timestamp,x,y,theta,vx,vy,bias_accel_x,bias_accel_y,bias_angular_velocity,accel_x,accel_y,accel_z,gyro_x,gyro_y,gyro_z,cov_trace
1757946878.914818,0.0,0.0,0.0,0.0,0.0,-2.3601138861829027,0.2700312106759444,0.0006812644135188875,0.10014048,0.31239945,9.77781339,0.002466,-0.000511,0.004611,3.13
1757946878.9381642,-0.001564564042899264,0.0007152920519768513,-0.1110987559177401,-0.3846194622918084,0.18831880654879915,-2.3600201212066274,0.26998834292464463,3.8890802175589926e-05,0.09236115,0.3210813,9.799218810000001,0.002324,-0.000749,0.004177,0.9675831097167065
1757946878.9650314,-0.008141582354974619,0.0007462017311800041,0.9202415055709627,-0.4610304234589861,0.06844802433416584,-2.360505153416057,0.26911897865086626,-4.994689655114093e-05,0.08921214,0.32332779000000006,9.78485697,0.005344,-0.000683,0.003142,0.587942980094792
1757946878.9851322,-0.0059446524193233815,0.0006997383687327883,1.1145356911980882,-0.2511955629938497,0.05244249099002343,-2.361367975244337,0.2695011984461254,-6.404881954191898e-05,0.10028763,0.32542713,9.787849020000001,0.00265,0.000708,0.004904,0.4099908251232768
1757946879.0153527,-0.011366458938496986,0.006062851992048519,1.3548286743149651,-0.31596916264246444,0.18320703076449119,-2.3639078707366665,0.26678708267607804,-8.498547574732645e-05,0.07844076,0.31239945,9.78515127,0.003626,5.5e-05,0.004914,0.2824431572335082
1757946879.036076,-0.015699218581338353,0.01067478861240308,1.43480800786981,-0.34951267452356644,0.24398355037290675,-2.36564366779084,0.26530224297943533,-9.202181883743394e-05,0.09744273000000002,0.329616,9.77347737,0.003838,0.000916,0.004127,0.2479605772808426
1757946879.0564666,-0.020090348328242344,0.015917407978528128,1.499189318629055,-0.3805567366478385,0.29960514548431444,-2.3676015504622447,0.2638688044059266,-9.771119177958852e-05,0.09011466,0.3097017,9.78485697,0.00586,-0.001782,0.003515,0.22235488027474978
1757946879.0784132,-0.017770660112010183,0.023207391540330243,1.587720206081726,-0.2807638602750552,0.3491004032587426,-2.370512286235179,0.2663857845492833,-0.00011305850852350925,0.08277678,0.31629402,9.78261048,0.003744,-0.000978,0.003962,0.1953130901767376
1757946879.099119,-0.016319137267409165,0.028359868070352425,1.651849940764083,-0.24681151255523817,0.39705494702727906,-2.373231062879731,0.2671145634043594,-0.00012179169580605364,0.10552617,0.31075136999999997,9.784248750000001,0.000989,0.002459,0.004739,0.1761265314902125
1757946879.1197855,-0.017452049472562042,0.03577574844414094,1.70311171597983,-0.24136209586836455,0.4432422192689587,-2.375908649142254,0.26743918609028766,-0.00012826625562470194,0.08667135000000001,0.31105548,9.772280550000001,0.00448,-0.000114,0.005021,0.16255657249753305
1757946879.1408029,-0.019689443512527428,0.04425221774252688,1.7457177261891808,-0.24805421912202485,0.48591768181247447,-2.3785648259247743,0.2676587596526391,-0.0001334829575564845,0.08622009,0.31838355,9.75865446,0.002965,-3.1e-05,0.002424,0.15206503585373668
1757946879.1618905,-0.02357609312165169,0.055513329592495435,1.782147799759592,-0.2637413283247745,0.5258596512453599,-2.3812604591445754,0.26800337034306165,-0.00013845347821046653,0.09475478999999999,0.3210813,9.796226760000001,0.003821,-0.000284,0.003853,0.14428546797734992
1757946879.1825058,-0.02524899657462162,0.060982959178244235,1.8132797241153726,-0.2742690243404346,0.5600291292749553,-2.38374296066867,0.26813227277563917,-0.00014136461368491218,0.09550035000000001,0.30641535000000003,9.763451550000001,0.004918,-0.000613,0.005249,0.1358202832332808
1757946879.2027452,-0.028835261839707298,0.06986299472997534,1.8404370173891387,-0.29180074478812257,0.5910998479791496,-2.3861276580876507,0.26833531331084093,-0.00014364037134145392,0.08726976,0.31449879,9.77721498,0.005674,-0.001066,0.004077,0.129751993788344
1757946879.2290025,-0.037019163547919925,0.08804114614674492,1.8853932544729863,-0.32840909605768676,0.6445911383052655,-2.3905406201193466,0.2690064643854945,-0.00014665587543611554,0.08636724,0.30581694000000004,9.78560253,0.003168,-0.000132,0.002876,0.11996680984154481
1757946879.2495084,-0.041681717500432106,0.09758918495193068,1.9041893440879072,-0.3465672260514494,0.6671555208060858,-2.3925556104230905,0.2694957490173799,-0.00014758568470392327,0.09759969,0.32332779000000006,9.772280550000001,0.002408,0.001111,0.004204,0.11603936149548495
1757946879.2722135,-0.04742486775650408,0.10895507279179464,1.9210777007547755,-0.366134894073354,0.6880031924747356,-2.3944577295646456,0.27016911272108135,-0.00014846623854680615,0.08382645000000001,0.30926025,9.77601816,0.002408,0.001111,0.004204,0.11298908938783911
1757946879.2929192,-0.05151020486299619,0.11659091606094442,1.9361283610650002,-0.3806441349592739,0.7064204745138553,-2.3961881375024183,0.270834933812435,-0.00014872915329234768,0.08906499000000001,0.30701375999999997,9.767189160000001,0.00254,-0.000159,0.003195,0.10927934934279895
1757946879.3136778,-0.056686539679073826,0.12607751713496584,1.949738846173462,-0.3965905100750414,0.7224522262929527,-2.3977818665504054,0.2716016135179667,-0.00014876851240597344,0.10463346000000001,0.31749084,9.784405710000001,0.002927,0.001919,0.004694,0.10645383367259761
1757946879.3339915,-0.062121534624127395,0.13578984868075142,1.9620543169796338,-0.41186595077900434,0.7371443381424034,-2.39923928945688,0.2724702959105062,-0.00014863388356667947,0.08712261,0.31150674,9.78201207,0.00433,-0.000563,0.003802,0.1039469065144629
1757946879.3552916,-0.06968093070778311,0.1493216380024429,1.9733323002476828,-0.42973837860937747,0.7505745296637159,-2.400585452393621,0.273593295109545,-0.0001487690107057511,0.08292393,0.30701375999999997,9.77407578,0.00017,-0.000556,0.002075,0.10252327954615692
1757946879.376387,-0.0726413945335467,0.15404827709598465,1.9834526106815087,-0.4376387235946892,0.7625222046024275,-2.401766183051106,0.27454228078453896,-0.00014807215814737504,0.09624591,0.3122523,9.77003406,0.005079,7.4e-05,0.003542,0.09912104687608309
1757946879.396443,-0.0783263016927655,0.16359336271591884,1.9927755773346485,-0.45039708102789144,0.7726388549648554,-2.4028277965605396,0.27559159911938413,-0.0001473127222255808,0.09131148000000001,0.3122523,9.78335604,0.004404,-0.00045,0.005302,0.09726316081849011
1757946879.4172156,-0.08399639783615039,0.1729629528093228,2.001296152812559,-0.46188176213450577,0.7816695055136047,-2.4037745521252147,0.27671732083378503,-0.00014646203299135475,0.09310671,0.31718673000000003,9.80131815,0.002311,-0.001307,0.003316,0.09549508546189038
1757946879.4373856,-0.0911654904346279,0.18489800407989218,2.009213049232102,-0.4745701611488398,0.7896114617486625,-2.4046179016616436,0.2780101799006158,-0.00014575732757483254,0.09460764,0.32182686000000005,9.755966520000001,0.006163,-0.000342,0.003648,0.09440650939417583
1757946879.4580765,-0.09581201667207921,0.19226041737185323,2.01645663591321,-0.4820755316957154,0.7971814538872,-2.405350828050769,0.27924596404770063,-0.00014469454917288884,0.08576883000000002,0.32153256,9.80176941,0.002095,0.000183,0.004575,0.09234181098896396
1757946879.4787672,-0.10287121816907822,0.20376006961263146,2.0232045727684174,-0.49321437889463926,0.8031832835785085,-2.405989182473852,0.2806289104389826,-0.00014376687938422387,0.10343664,0.30402171,9.787397760000001,0.002581,-0.002298,0.00334,0.09138444109321209
1757946879.4987757,-0.10684454452776714,0.20983677256900035,2.029400203899815,-0.4984644520839728,0.8091473565607278,-2.4065352673107046,0.2819039081774637,-0.00014242300387503612,0.09176274,0.31554846000000003,9.78993855,0.005238,0.000173,0.005436,0.08928807876233545
1757946879.519349,-0.1129366424718718,0.2194503057485982,2.0351660417740884,-0.5067870652668419,0.8139149661831895,-2.4069985628484454,0.2832531052850032,-0.00014109865902533562,0.08996751000000001,0.31763799,9.78110955,0.001938,0.001013,0.003637,0.08819549381909207
1757946879.540341,-0.11930327581010589,0.22948514306557585,2.040569772175653,-0.5148682356802257,0.8181086869326628,-2.407382831708751,0.28468106952759703,-0.00013981150670739728,0.09295956000000001,0.30491442,9.78245352,0.003909,0.000779,0.003853,0.0872356373240141
1757946879.561403,-0.12787478932362265,0.243194228923589,2.0457417266682185,-0.5249059641437434,0.8216075908282057,-2.4076851880313996,0.28631124663637647,-0.00013882513897371069,0.09160578000000001,0.31030011,9.78261048,0.004377,0.000146,0.004713,0.08705616117632693
1757946879.582313,-0.13052394336963222,0.24702324140978602,2.050415321097045,-0.5256803096319406,0.8257061931995989,-2.407931337657588,0.28769806048834334,-0.00013720776909617848,0.09684432000000001,0.30641535000000003,9.79443153,0.005568,-0.001708,0.002613,0.08473123431615263
1757946879.6092393,-0.14222447106775263,0.26501607058668725,2.0589302340807123,-0.5368909584752298,0.8302949653334395,-2.4082518351289592,0.2906038864932076,-0.00013402508663408605,0.10343664,0.32557428000000005,9.76764042,0.002444,-0.001415,0.003318,0.08296231015417976
1757946879.630145,-0.1474996860371843,0.2730290037234302,2.062849172917174,-0.540899956217413,0.8323221856599482,-2.408338521587694,0.2920635530988566,-0.000132352112695434,0.09430353000000001,0.32318064,9.755662410000001,0.00377,0.000616,0.005379,0.08194042579806203
1757946879.6501856,-0.15334747529263576,0.28194629048204595,2.0665907582807055,-0.5455035149084202,0.8339391383548574,-2.4083784793243903,0.29355346685020534,-0.00013068676678184085,0.09160578000000001,0.31854051,9.7894971,0.00389,-0.001,0.006921,0.0811879401130487
1757946879.6718936,-0.16118766780661434,0.29409186665994574,2.070138098246513,-0.5524376155687143,0.8348146415365751,-2.408362695646081,0.29519672656286533,-0.0001292741143152068,0.10088604,0.30042144,9.755809560000001,0.001139,0.001183,0.003483,0.08111647687502598
1757946879.6919537,-0.1651977153692687,0.3000849661576626,2.073410186718256,-0.5533257700089675,0.8366988337576233,-2.408318047368739,0.29670645383594635,-0.00012754697610378602,0.07858791000000001,0.31928607000000003,9.7692885,0.003085,-0.001307,0.003119,0.07970282800583642
1757946879.7126582,-0.17074407108449446,0.3084769258193221,2.076536931578664,-0.5566832438541351,0.8376161934206305,-2.4082387288758724,0.29822416532561635,-0.00012580859391310263,0.08906499000000001,0.31299785999999996,9.75461274,0.005728,0.00017,0.004019,0.07897269193047768
1757946879.7336745,-0.17703852229925848,0.3180399841198706,2.0795253997854255,-0.5604911572210765,0.8381855399398319,-2.408123194699451,0.29978859299983757,-0.0001241375027668324,0.08876088000000001,0.32363190000000003,9.76044969,0.000572,-0.000872,0.003806,0.07852312598430047
1757946879.755245,-0.18569896480490922,0.33137186567027693,2.0824405261631442,-0.5667038776968557,0.8379994916307246,-2.407957519947668,0.3015308341495111,-0.00012278175217487894,0.09954207,0.3153915,9.78934014,0.004064,-0.000863,0.003064,0.0788131499115817
1757946879.7754495,-0.18793876639282342,0.3346461298827052,2.0851070020585247,-0.5642307302220927,0.8392665253932436,-2.4077945775520133,0.3030175931577316,-0.00012089327775556944,0.09265545000000001,0.33050871,9.75072798,0.004245,2e-06,0.005214,0.07693201293703056
1757946879.7957768,-0.18793876639282342,0.3346461298827052,2.0851070020585247,-0.5642307302220927,0.8392665253932436,-2.4077945775520133,0.3030175931577316,-0.00012089327775556944,0.09265545000000001,0.33050871,9.75072798,0.004245,2e-06,0.005214,0.07693201293703056
1757946879.816214,-0.20756983778873872,0.36541938811666214,2.0880720144561797,-0.5824049954739047,0.836387131389891,-2.4074942370230112,0.3053948797042346,-0.00012070742878384383,0.10223982000000001,0.3210813,9.78201207,0.002104,0.001532,0.002778,0.08079492205741007
1757946879.8366249,-0.20627588596927368,0.3636065168146374,2.092757491174858,-0.5679801258059899,0.8400106312045252,-2.4070223388487024,0.30843550687626425,-0.00011668954581684357,0.09236115,0.32018859000000005,9.764795520000002,-0.000471,0.000762,0.002673,0.07484460617581525
1757946879.857585,-0.20886448840203745,0.36728273979065307,2.0948587853900067,-0.5678785443270361,0.8396457747828326,-2.4068108701017645,0.3097031057837593,-0.00011428845508234819,0.09834525,0.32093415000000003,9.795775500000001,0.004166,0.000393,0.004102,0.0736338489199286
1757946879.8776906,-0.21565293725370502,0.37743124749537316,2.0969449801619984,-0.5730321318087064,0.8384192678552521,-2.4065698663063864,0.31113712280752837,-0.00011225746771314695,0.08891784,0.31464594,9.75805605,0.003228,-7.6e-05,0.00339,0.07388971338562478
1757946879.8984463,-0.21982554094763626,0.38355855250515747,2.098920585794586,-0.5739659836783877,0.8379098156825222,-2.406324687006115,0.31254811645424707,-0.00011022640094302783,0.09924777,0.32093415000000003,9.787849020000001,0.001489,0.000209,0.00352,0.0731747407472528
1757946879.9190524,-0.22511865462980224,0.39138882742639614,2.100850985478594,-0.5761914838798673,0.8371649569433989,-2.4060659333959804,0.3140004872237311,-0.00010831046338628643,0.09475478999999999,0.32167971,9.791292330000001,0.004688,-0.000993,0.004297,0.0728721013760047
1757946879.9391303,-0.23118432556154817,0.4004169041152765,2.102729899335392,-0.5789788997618396,0.8361756717771199,-2.405789256656935,0.3155241900466146,-0.00010655448718079618,0.10253412,0.31808925000000005,9.78904584,0.003341,-0.000991,0.003898,0.07279152094024338
1757946879.9594736,-0.24010339002804917,0.413829529325448,2.1046682888308528,-0.584334737258056,0.835104574233143,-2.4054684516101457,0.31724739119023393,-0.00010517805673882001,0.08427771,0.31854051,9.79248915,0.003645,-0.001096,0.00511,0.07353072230533145
1757946879.9806488,-0.24118078432889933,0.41543511678582223,2.1063527753357336,-0.5802273102575289,0.8356901983679575,-2.4051764080162443,0.31869383787374417,-0.0001032816360522265,0.09774684000000002,0.29578131,9.793087560000002,0.005176,-0.001439,0.004695,0.07167216870338793
1757946880.0018353,-0.24683865335248426,0.423833903529613,2.1080130084344475,-0.5824402982683818,0.8348541008610312,-2.404869831618416,0.32019353625318353,-0.00010152184433352895,0.08667135000000001,0.31449879,9.78605379,0.002774,-0.000939,0.004014,0.07154068819926589
1757946880.022266,-0.2521807023614022,0.43176683243278585,2.109615423047077,-0.5837573808545722,0.8340281241797688,-2.404554639205217,0.3217113160474858,-9.982492464452091e-05,0.09430353000000001,0.32302368,9.77886306,0.003859,-0.001367,0.003933,0.07127294964832045
1757946880.0433576,-0.25770911789126133,0.43999041091616764,2.1111647252809274,-0.5852997052281386,0.8333783626811297,-2.4042273649245023,0.32325251945578165,-9.819721552773289e-05,0.08322804,0.3125466,9.78620094,0.003149,-0.000963,0.003645,0.07106256922519932
1757946880.064333,-0.2635371250635146,0.44868005337141614,2.1126539715874504,-0.5869118676739133,0.8324477439465116,-2.403888483458948,0.3248275277116075,-9.665463099282379e-05,0.09520605,0.31374342,9.77407578,0.002536,-0.001943,0.002658,0.07093278033974641
1757946880.08932,-0.2731181860695043,0.46305833749065484,2.115497941612567,-0.5866675576835217,0.8312146844000108,-2.4031903920646287,0.32798004535691483,-9.360969324263401e-05,0.09400923,0.31075136999999997,9.77721498,0.003208,0.000517,0.001414,0.06990836080464777
1757946880.1096873,-0.2731181860695043,0.46305833749065484,2.115497941612567,-0.5866675576835217,0.8312146844000108,-2.4031903920646287,0.32798004535691483,-9.360969324263401e-05,0.09400923,0.31075136999999997,9.77721498,0.003208,0.000517,0.001414,0.06990836080464777
1757946880.1299753,-0.2731181860695043,0.46305833749065484,2.115497941612567,-0.5866675576835217,0.8312146844000108,-2.4031903920646287,0.32798004535691483,-9.360969324263401e-05,0.09400923,0.31075136999999997,9.77721498,0.003208,0.000517,0.001414,0.06990836080464777
1757946880.1501257,-0.29350443892509775,0.4946332203223558,2.118665712299787,-0.5935094978499986,0.8290607703434947,-2.4022710167411914,0.3321598225677242,-9.233915520536996e-05,0.08308089000000002,0.32063004,9.78201207,0.005917,0.000388,0.003637,0.07149247481670018
1757946880.1701322,-0.2918068251816381,0.4923806112341515,2.120844789741236,-0.582043747631909,0.8292025537317979,-2.4016125944563873,0.3346896539051739,-8.798698414718682e-05,0.09805095000000001,0.31344912,9.79413723,0.00297,-0.000117,0.004309,0.06725032331615634
1757946880.1903589,-0.2970244326409334,0.5000150437186863,2.121889061175069,-0.5850664750152407,0.8274381964065917,-2.4012975535994197,0.335974777544773,-8.601520524552244e-05,0.08322804,0.32377905,9.787093650000001,0.004626,-0.000284,0.002827,0.06749842200852121
1757946880.210926,-0.30193481932667093,0.5072119171556297,2.122912668092713,-0.587015264740241,0.8260209259038241,-2.4009769102236365,0.33733318584857946,-8.425953141490756e-05,0.09056592000000001,0.31734369000000007,9.75640797,0.001696,0.000182,0.002196,0.06752811489671656
1757946880.2313182,-0.307113858583761,0.5148260719902933,2.1239649645528385,-0.5888320234438027,0.8246044970138309,-2.4006500021046113,0.3387572144916861,-8.268389829099345e-05,0.10088604,0.31134978,9.80101404,0.004727,-0.002194,0.004042,0.06757419571876538
1757946880.2520714,-0.3130994162279521,0.5236430512136054,2.1250329260533753,-0.5909044652494332,0.8234278329240133,-2.4003095136969055,0.34026019370637955,-8.129490254738377e-05,0.08891784,0.31959018000000006,9.79892451,0.00442,-0.00102,0.004626,0.06780446268980661
1757946880.2729836,-0.3185387197380309,0.5316965316046224,2.1260890630917713,-0.5921042494376523,0.8225154141634737,-2.399960815153014,0.3417939735082703,-7.999053090589349e-05,0.09071307,0.30701375999999997,9.77826465,0.00189,-7.4e-05,0.005231,0.06778512951552366
1757946880.2935221,-0.32142800267860516,0.5360265999017132,2.12702501974883,-0.5903159687859072,0.8219568399443355,-2.3996296199839318,0.34322626575253073,-7.852997527337742e-05,0.10852803000000001,0.31299785999999996,9.7781175,0.005416,-0.002007,0.003543,0.06697306157076802
1757946880.3144424,-0.32622653076246105,0.5431073869490801,2.1279388721247816,-0.5910563159666657,0.8208771801601302,-2.399296704054594,0.34468148581294855,-7.715469796355165e-05,0.09984618,0.31644117000000005,9.780658290000002,0.001977,-0.001372,0.002946,0.06686965869242567
1757946880.3346357,-0.3318252655750921,0.5513704072534688,2.1288471761639816,-0.5925587387187936,0.8199668062181361,-2.3989527383030347,0.3461896275501587,-7.591180235256666e-05,0.08502327,0.31150674,9.78919299,0.004666,-0.001075,0.00284,0.06699344222011461
1757946880.3550472,-0.33913110048569267,0.5621755475020516,2.129786135732319,-0.5956345240408745,0.8186615074183344,-2.3985837863253536,0.34782385780677294,-7.492423782389825e-05,0.09190989000000001,0.30027429,9.78021684,0.004427,-0.001937,0.00289,0.06757104655128642
1757946880.375141,-0.3409061759501499,0.5649766828533256,2.130594256694158,-0.5920412411568932,0.818659737456343,-2.3982440649480723,0.34926993797136346,-7.359731585763724e-05,0.10313253,0.31239945,9.77617512,0.00076,0.000235,0.00239,0.06635730368696144
1757946880.3954349,-0.34535713128785134,0.5715703724852877,2.131430266433288,-0.5921820969956024,0.8178764961189863,-2.397905245005951,0.35071617505040853,-7.23102867065046e-05,0.08712261,0.32093415000000003,9.79218504,0.003951,0.00084,0.004736,0.06617168648209361
1757946880.416486,-0.3505976824405081,0.5793210593516473,2.132267338486993,-0.5932232883672938,0.8168868719505368,-2.3975601710681587,0.35220156007704956,-7.113001904600024e-05,0.0896634,0.31390038,9.775723860000001,0.001688,-0.000737,0.004977,0.06623033062167895
1757946880.4367402,-0.35486464991253897,0.5856754183373334,2.1330905752176657,-0.5929989458618832,0.8160696292871161,-2.3972191892145167,0.35366766768645264,-6.994108801175592e-05,0.09759969,0.31419468,9.779010210000001,0.002213,0.000965,0.006353,0.06595719055345592
1757946880.4572015,-0.3597654262147093,0.5929461715624006,2.1338601071409258,-0.5936618252091898,0.8152399747175266,-2.396874317511449,0.35515245140290014,-6.881733797507997e-05,0.08846658,0.3065625,9.79203789,0.004568,-0.002393,0.004171,0.06590762116494017
1757946880.4779208,-0.36540961884302886,0.6013100173431666,2.134595942098291,-0.5948782087870035,0.8141633663108282,-2.396520708499667,0.3566865320793277,-6.781201726609192e-05,0.09504909,0.30850488,9.76988691,0.003027,-0.000895,0.002509,0.0660654666771187
1757946880.498638,-0.3691087880779785,0.6068785662676524,2.135337502859233,-0.5936525777690743,0.8135516451846266,-2.3961779329793824,0.3581583955881448,-6.670849861213544e-05,0.09999333,0.31868766000000004,9.783208890000001,0.004086,0.000101,0.005727,0.06559002412827333
1757946880.5195513,-0.3731705228188776,0.612938977191487,2.1360005338783266,-0.5931645105108745,0.8130619632122783,-2.3958388291104775,0.3596033573004202,-6.558674150716595e-05,0.07978473,0.32063004,9.77362452,0.003582,-0.000888,0.003031,0.06530462756179664
1757946880.5407634,-0.3847614301942311,0.6299609158218932,2.1368167312897324,-0.600373970176943,0.8106544649517792,-2.3954374929624085,0.3614011802992073,-6.515019269376214e-05,0.09176274,0.31165389,9.77108373,0.002076,-0.001254,0.003097,0.06729511036018043
1757946880.560873,-0.38311079133400705,0.6280665725279411,2.137407741999361,-0.5923813330177345,0.8118634854844436,-2.395100020484966,0.3627922415540263,-6.391184833119557e-05,0.09040896000000001,0.31584276000000006,9.78275763,0.005564,-0.001026,0.004495,0.06494225482178828
1757946880.581945,-0.3929948328517165,0.642580515687782,2.1381862592275223,-0.5980002636065149,0.8096521426918287,-2.394716843452192,0.3644601902589632,-6.323232842707957e-05,0.08876088000000001,0.32258223,9.78904584,0.00291,0.000248,0.005209,0.06650067882534527
1757946880.6027043,-0.39133861262668573,0.640619537540946,2.13870196129894,-0.5908215717291805,0.8105683909988034,-2.3943939053206678,0.3657792087882074,-6.189928915583191e-05,0.09056592000000001,0.30326634,9.77482134,0.000683,-0.000921,0.003707,0.0642883652481866
1757946880.6282477,-0.3991972025664628,0.6523216234122867,2.1397910288934696,-0.5912206649813695,0.8086681461639043,-2.3937505966553196,0.3685104462353486,-5.9584911152091755e-05,0.09160578000000001,0.31404753,9.76464837,0.001908,-0.000304,0.003959,0.0640000118141366
1757946880.6485891,-0.3991972025664628,0.6523216234122867,2.1397910288934696,-0.5912206649813695,0.8086681461639043,-2.3937505966553196,0.3685104462353486,-5.9584911152091755e-05,0.09160578000000001,0.31404753,9.76464837,0.001908,-0.000304,0.003959,0.0640000118141366
1757946880.66974,-0.4085668388781447,0.6665369672811036,2.140932838824078,-0.5910929321082222,0.8072219286849892,-2.393061122912477,0.3715479323910876,-5.795022716324466e-05,0.1013373,0.31479309,9.77437008,0.003998,-0.000894,0.005427,0.0638071946608106
1757946880.6902547,-0.4085668388781447,0.6665369672811036,2.140932838824078,-0.5910929321082222,0.8072219286849892,-2.393061122912477,0.3715479323910876,-5.795022716324466e-05,0.1013373,0.31479309,9.77437008,0.003998,-0.000894,0.005427,0.0638071946608106
1757946880.712756,-0.41828644039391083,0.6812921341000711,2.142083733680982,-0.5910892765233149,0.8056988275381362,-2.3923700648090493,0.37459549112678453,-5.637219876904049e-05,0.10059174,0.31988447999999997,9.78545538,0.004352,-0.000633,0.004402,0.06373739631731523
1757946880.733187,-0.41828644039391083,0.6812921341000711,2.142083733680982,-0.5910892765233149,0.8056988275381362,-2.3923700648090493,0.37459549112678453,-5.637219876904049e-05,0.10059174,0.31988447999999997,9.78545538,0.004352,-0.000633,0.004402,0.06373739631731523
1757946880.7551148,-0.43447322076965383,0.7049433069862387,2.142834975442108,-0.6032396161256717,0.8019569141343279,-2.3919531985926947,0.3765403127302824,-5.6422238094249845e-05,0.09220419,0.31075136999999997,9.799974180000001,0.004089,0.00086,0.003926,0.06731119929444901
1757946880.7768297,-0.43207723447053026,0.7025915022076044,2.143628949057244,-0.5892893200281174,0.8034338702484038,-2.3913139255112705,0.37926829050762084,-5.419488478045306e-05,0.09879651,0.31494024000000004,9.77960862,0.004194,-0.000282,0.004241,0.06320120052144901
1757946880.7972267,-0.43112666920499493,0.7014397360860086,2.1439208582394516,-0.5851704080694238,0.8034144871479989,-2.3910582139077383,0.3803748791511111,-5.272343041237299e-05,0.08622009,0.31524435,9.79457868,0.000958,0.000246,0.004741,0.06175643429058947
1757946880.81753,-0.43112666920499493,0.7014397360860086,2.1439208582394516,-0.5851704080694238,0.8034144871479989,-2.3910582139077383,0.3803748791511111,-5.272343041237299e-05,0.08622009,0.31524435,9.79457868,0.000958,0.000246,0.004741,0.06175643429058947
1757946880.8391728,-0.4450960017757729,0.7224264745160184,2.144956400351285,-0.5912251181023637,0.8007363266736538,-2.390398225120166,0.3835004376792328,-5.155404460517634e-05,0.09100737,0.31344912,9.779314320000001,0.00518,-0.000606,0.004145,0.06337103044059643
1757946880.8605092,-0.44522519359148727,0.7228695769862453,2.1452587470401827,-0.5875341569984283,0.8006921606691187,-2.3901361095569063,0.38471009977893417,-5.0350217804129486e-05,0.09205704,0.32332779000000006,9.77632227,0.002891,-6e-05,0.004735,0.062174051308264984
1757946880.8811483,-0.44706219896562843,0.7256473239808522,2.1455476792787307,-0.5866552235725524,0.8000734876675469,-2.3898889683729867,0.385893151631912,-4.917941460608269e-05,0.08607294000000001,0.31134978,9.78679935,0.002738,-0.000732,0.004297,0.06170449739536193
1757946880.9015248,-0.44706219896562843,0.7256473239808522,2.1455476792787307,-0.5866552235725524,0.8000734876675469,-2.3898889683729867,0.385893151631912,-4.917941460608269e-05,0.09056592000000001,0.31569561,9.78529842,0.0034,0.001484,0.003887,0.06170449739536193
1757946880.9219975,-0.45972469383901626,0.7446309673861402,2.146420424906382,-0.5902491325599233,0.7979098258575565,-2.389274370269988,0.38899090605134146,-4.8254974827127416e-05,0.10328949000000001,0.32691825,9.77601816,0.001565,0.000164,0.00421,0.06288050602543957
1757946880.9478261,-0.46203766267563223,0.7484020158614243,2.1469467979049988,-0.5856616635656907,0.7974825614205133,-2.3887840210228473,0.3914434385813776,-4.623201239174157e-05,0.09714843000000001,0.31494024000000004,9.78545538,0.002353,-0.001019,0.003215,0.06127455101515765
1757946880.9683437,-0.46203766267563223,0.7484020158614243,2.1469467979049988,-0.5856616635656907,0.7974825614205133,-2.3887840210228473,0.3914434385813776,-4.623201239174157e-05,0.09714843000000001,0.31494024000000004,9.78545538,0.002353,-0.001019,0.003215,0.06127455101515765
1757946880.9887588,-0.4766379925814518,0.7695333048593199,2.147487825139888,-0.5970308390978031,0.7938891801300023,-2.38846750921053,0.39315327802066574,-4.62115668692777e-05,0.09415638000000001,0.32407335000000004,9.772280550000001,0.003283,0.000952,0.004568,0.06475469583229074
1757946881.008722,-0.4729657895916934,0.7651408395656941,2.147912497251512,-0.5842729125011615,0.795800923143253,-2.38799619441372,0.3956028994310237,-4.4296454954798245e-05,0.09026181000000001,0.32033574000000004,9.78305193,0.001454,-0.000358,0.002995,0.06088412256846439
1757946881.0289102,-0.4768555500012356,0.770824498873478,2.1481543146528717,-0.586036692232542,0.7946195601033796,-2.3877767543731387,0.3968120603645199,-4.3411807669757926e-05,0.09040896000000001,0.31120263000000004,9.77333022,0.004274,0.000507,0.004157,0.061203656593948136
1757946881.0497546,-0.48057893708653243,0.7762861066733948,2.14841808849586,-0.5869704775525659,0.7938177610104395,-2.387554710577679,0.39806744065763366,-4.2665733058200146e-05,0.08846658,0.31674527999999996,9.771525180000001,0.004782,0.000116,0.004702,0.06137186028969423
1757946881.0700784,-0.4857579427802133,0.7838442642098051,2.1487173854543364,-0.5891436522509776,0.7928960344318198,-2.387318009529682,0.39941714211513213,-4.213332053510853e-05,0.08667135000000001,0.30806343,9.771378030000001,0.002274,0.000508,0.004462,0.061922465426461154
1757946881.0924928,-0.4907105021404273,0.7911266607836377,2.1490433677160112,-0.5905550421125452,0.7924250592814022,-2.3870680105509186,0.4008216816961879,-4.1721711053172514e-05,0.07858791000000001,0.30177522,9.78515127,0.004026,0.000721,0.005089,0.0622767541611817
1757946881.1135545,-0.4914785146970383,0.7925173589608786,2.1492709411026256,-0.587333426831391,0.79275184055633,-2.3868420231501726,0.4020844784437543,-4.1051031951968554e-05,0.08951625,0.31374342,9.78156081,0.001227,-7.2e-05,0.004802,0.06129778954800284
1757946881.1362572,-0.5001770947850148,0.8051352956645134,2.1496191403427733,-0.5927895213729308,0.7907545499721855,-2.386575445271203,0.4035977949281123,-4.08866512803169e-05,0.09909081000000002,0.30402171,9.77422293,0.002319,7e-06,0.003834,0.06289768319905675
1757946881.1568365,-0.4986520795026731,0.8033896094586452,2.1498032989569564,-0.586517048237209,0.7917953873947291,-2.3863549819375334,0.40483322483328643,-4.0175981629155756e-05,0.09310671,0.33291216,9.78305193,0.005727,0.000326,0.004544,0.06109760976283499
1757946881.1770384,-0.5024474553126851,0.8090023361526172,2.1500262197852074,-0.5872680648201515,0.7908337639791506,-2.386133134756609,0.40611182975063687,-3.9588587553936596e-05,0.10014048,0.31434183000000004,9.78634809,0.002183,0.000844,0.004109,0.061263167999079736
1757946881.1980178,-0.5059313354601465,0.8141844682770994,2.1502459266659955,-0.587428931289588,0.7902593907007831,-2.3859114081214003,0.4074044470172917,-3.905783046251746e-05,0.09160578000000001,0.3150972,9.76554108,0.003829,0.000129,0.004016,0.06128331920519381
1757946881.2187567,-0.5139291478479302,0.8257989048818936,2.150589306464834,-0.5917490697602898,0.7887678297693563,-2.3856541422824966,0.40889877163518834,-3.893379575241122e-05,0.09086022,0.31374342,9.783503190000001,0.004573,-0.001356,0.004901,0.06264211351755737
1757946881.239376,-0.5132880270685188,0.8253127961757946,2.150786098150948,-0.5865867723638093,0.7894957377044152,-2.3854351052555027,0.41016117745361524,-3.834451234067735e-05,0.10059174,0.31629402,9.79562835,0.000735,-8.5e-05,0.006117,0.06113242164928595
1757946881.2595048,-0.516440730418491,0.8300414763036628,2.150952337705471,-0.5864809673893124,0.7888174810966601,-2.385219627194723,0.41143040225486793,-3.780316455239034e-05,0.09789399,0.31674527999999996,9.7894971,0.004362,-0.001188,0.002744,0.06107431777994171
1757946881.2798765,-0.5202536237645802,0.8356971101308119,2.151131807068815,-0.586845632775821,0.7882569091626122,-2.3850013990577077,0.4127263360659905,-3.734225010712098e-05,0.08622009,0.32423030999999997,9.76809168,0.003091,0.0,0.00294,0.061213680779849865
1757946881.3008368,-0.5276108678691055,0.846408680391869,2.1514060485502267,-0.5901896022814829,0.7867304547141372,-2.384755637214322,0.4141897572344936,-3.7223587054933344e-05,0.09879651,0.32646699000000007,9.79323471,0.002349,0.000138,0.003695,0.06237604071173843
1757946881.3274975,-0.529865210455278,0.8503062405725219,2.1517151467576117,-0.5850110300928706,0.7870986645762612,-2.384334920947746,0.4166948552449773,-3.616708614403522e-05,0.08622009,0.31000581,9.76599234,0.001439,0.001351,0.00391,0.060764278935291814
1757946881.3485818,-0.5337006659422989,0.8559993892458023,2.1518890220133313,-0.5857646228962003,0.7864104127345282,-2.384124731299576,0.417971542199842,-3.573050609421326e-05,0.08816247,0.3153915,9.779167170000001,0.002515,-0.002152,0.003929,0.060965184746431436
1757946881.3692155,-0.5368096520776678,0.8606874409468386,2.1520673314666405,-0.5856148240077116,0.7858139231402339,-2.383917660534681,0.41924816335750886,-3.531367239122529e-05,0.09909081000000002,0.31045707000000006,9.78545538,0.004642,-0.000246,0.004594,0.06089395952382258
1757946881.3895442,-0.5368096520776678,0.8606874409468386,2.1520673314666405,-0.5856148240077116,0.7858139231402339,-2.383917660534681,0.41924816335750886,-3.531367239122529e-05,0.09909081000000002,0.31045707000000006,9.78545538,0.004642,-0.000246,0.004594,0.06089395952382258
1757946881.410377,-0.5519633014157922,0.8825675814551015,2.152495370862721,-0.5963958190611384,0.7828804092485367,-2.3836155776997923,0.42105223425370125,-3.595716001353583e-05,0.09100737,0.3122523,9.77661657,0.000377,-0.000531,0.003715,0.06443382783651316
1757946881.4312887,-0.5461739898744319,0.875605386508316,2.1526508347375284,-0.5811425772458074,0.7856160338823794,-2.3831965000555826,0.42349752063785573,-3.474285758704538e-05,0.09430353000000001,0.31270356000000005,9.77392863,0.002768,-0.000454,0.00124,0.05987742997380567
1757946881.4513814,-0.5506571656896756,0.8821872733958048,2.1527756625470875,-0.5832711848921409,0.7842957738263758,-2.383003771277417,0.42470441463318176,-3.418360151165513e-05,0.08861373,0.32586858,9.78485697,0.001703,0.002031,0.003916,0.060495714505454726
1757946881.4717548,-0.5515961902235262,0.8837838417136276,2.1528734409343997,-0.5813816468186414,0.7842054816073967,-2.382828575517955,0.4258458216415963,-3.353956629315423e-05,0.08308089000000002,0.32452461,9.78170796,0.0048,-0.000255,0.00522,0.05988100312401949
1757946881.492847,-0.5547832986065248,0.8885217503844799,2.1529813583486153,-0.5820935061905045,0.7831090047095342,-2.3826549625271713,0.4270328396821966,-3.3029968419073027e-05,0.10717425000000001,0.31973733,9.779010210000001,0.002316,-0.001393,0.004021,0.0600571005119452
1757946881.5133996,-0.5594060340480838,0.8953008894047119,2.1531149552881503,-0.5839186564063317,0.7822880308477711,-2.3824690950606118,0.4283046941391812,-3.2717356423422825e-05,0.08636724,0.31689243,9.787692060000001,0.005124,0.000477,0.003383,0.06061559334758178
1757946881.5341809,-0.5611144659811853,0.8980054900770185,2.1532134778297642,-0.5824800084940245,0.7823223405132658,-2.382293804094541,0.4295182341219502,-3.230598721193392e-05,0.08547453,0.31390038,9.78335604,0.004635,-0.000399,0.003588,0.060165986317464594
1757946881.5544693,-0.5637457731165403,0.9019812890585174,2.15330512733561,-0.5821572150313342,0.781825272475653,-2.3821229573951315,0.4307288622127347,-3.1914262863743914e-05,0.09729558,0.3210813,9.77766624,0.000858,0.000903,0.003108,0.060082581391982956
1757946881.575013,-0.5670682139990485,0.906941778926149,2.1534219882623242,-0.5827404137732252,0.7810861754624996,-2.381950712646367,0.4319692396446201,-3.160244769475395e-05,0.10343664,0.30625839,9.78814332,0.005783,-0.000445,0.003731,0.06021945777152794
1757946881.5950537,-0.5701562422879476,0.9115744800393676,2.153547068466522,-0.5826432367390051,0.7806384458800844,-2.381779255085007,0.43321478391702656,-3.13153165148741e-05,0.09655002,0.32138541,9.77362452,0.003891,0.001065,0.004207,0.06024825055083226
1757946881.615407,-0.573290894463695,0.916291359841422,2.1536865205199174,-0.5828311363483126,0.7801134433315112,-2.3816074721740215,0.4344707100540354,-3.105989523822735e-05,0.1013373,0.30462012,9.78679935,0.000946,0.000179,0.004847,0.060284403114405416
1757946881.6359863,-0.5760123289492354,0.9204234463185693,2.1537913058054006,-0.5823653566125025,0.7798722335512563,-2.3814382546536876,0.435713017832878,-3.0788534610221215e-05,0.0928026,0.31644117000000005,9.78904584,0.003774,-0.000326,0.003601,0.060184900851879664
1757946881.6563687,-0.5813954592621484,0.9283149622471434,2.1539398015415188,-0.5841987740620277,0.7788032462521494,-2.3812541535877414,0.43705077263111775,-3.0717981142003726e-05,0.10313253,0.32557428000000005,9.77077962,0.00408,0.001164,0.003379,0.060907632731774033
1757946881.67702,-0.5815918258698461,0.9289655198681164,2.1540046376188995,-0.5808725985343742,0.7791993981683976,-2.381093726836877,0.438248811269936,-3.036323394555022e-05,0.09999333,0.3153915,9.77362452,0.00383,0.000528,0.003293,0.059918167125456584
1757946881.697286,-0.584697367971247,0.9336339501709464,2.154121994601919,-0.5813301741112197,0.7786893812773452,-2.3809314330794966,0.43947009591546254,-3.0075040957748155e-05,0.09400923,0.30686661000000004,9.791586630000001,0.005753,0.000143,0.004872,0.0600202182999328
1757946881.718051,-0.5873678947321188,0.9376892943192453,2.1542597362909337,-0.5808909093164162,0.7782418092385152,-2.380773001188796,0.4406851668494092,-2.9787782938185927e-05,0.10059174,0.32527017,9.77407578,0.001642,0.001023,0.006343,0.059958713392386946
1757946881.7390015,-0.5909227216444207,0.9429958476292752,2.1543790961524305,-0.5815349816240639,0.7777468431439337,-2.380609488857759,0.4419324219167451,-2.9578595915679392e-05,0.0925083,0.31285071000000003,9.78934014,0.005162,-0.000215,0.00456,0.06017726592758629
1757946881.758611,-0.5930390245205691,0.9462914715800349,2.154448366174652,-0.5805777717598142,0.7776601845349027,-2.380452093732031,0.44314433811551557,-2.930828344332523e-05,0.09131148000000001,0.31554846000000003,9.77886306,0.004899,-7e-05,0.003239,0.059911640141238426
1757946881.7795484,-0.5958141615871081,0.9504971847548583,2.154549659470174,-0.580463983091011,0.7773815705983377,-2.380295090317907,0.44435717040902,-2.9053546156560767e-05,0.08891784,0.31598991,9.79413723,0.001161,-0.000685,0.004761,0.05990111930520854
1757946881.7999687,-0.5982689418732884,0.9542549281260938,2.154648533584977,-0.5799330006760832,0.7769269942540632,-2.380143032410677,0.4455585636852751,-2.8788230421776643e-05,0.10328949000000001,0.3210813,9.799670070000001,0.002848,-0.002226,0.005094,0.059790881949719606
1757946881.8270857,-0.6035148975269855,0.9622908480452361,2.154809477864479,-0.5792461170085926,0.776179598937102,-2.3798349031369024,0.4480067307270652,-2.8376724518628144e-05,0.10059174,0.31390038,9.77751909,0.003064,0.00088,0.003594,0.05962755690048443
1757946881.847674,-0.6064646864992184,0.9667353034609479,2.154881616437442,-0.579494778054195,0.7757619427224656,-2.379686757804017,0.4492083150481205,-2.8144660533916602e-05,0.09295956000000001,0.31434183000000004,9.783650340000001,0.004875,-0.001707,0.003808,0.059726760753777836
1757946881.8683617,-0.6087877491698408,0.9703044943988011,2.154932880694071,-0.5789284745366277,0.7754082376422106,-2.3795432564324526,0.45039699931882005,-2.7900511333999628e-05,0.10044459,0.32018859000000005,9.77797035,0.001345,0.000958,0.003211,0.05960883844752761
1757946881.8895068,-0.6125716710501514,0.9759215032302881,2.1550287877829284,-0.5797986169101491,0.7751047975603408,-2.3793907373631407,0.4516282792563062,-2.775522624172725e-05,0.08023599000000001,0.3210813,9.75446559,0.004319,0.001079,0.004208,0.05995933924282641
1757946881.9099483,-0.614320213080012,0.9787087844984533,2.1551004589807263,-0.578615521585319,0.7750150831111677,-2.3792465029528924,0.4528143403113864,-2.7522544116304484e-05,0.09564750000000001,0.31359627000000007,9.7929306,0.003315,0.000431,0.004657,0.0596176451918857
1757946881.9307446,-0.616682252762446,0.9823282357316256,2.1551696987411404,-0.578112460664304,0.7747553560938859,-2.3791056055690647,0.45398988065024465,-2.7281942765222306e-05,0.09145863,0.32557428000000005,9.78529842,0.002357,-0.00069,0.004574,0.05953409679758667
1757946881.9511628,-0.6205514791495251,0.9880810745215887,2.1552516789759393,-0.5792549173837517,0.7740813535704756,-2.3789563607290263,0.45521929010304407,-2.7163697267344985e-05,0.09550035000000001,0.31285071000000003,9.77287896,0.004866,-0.000228,0.00377,0.05992723907803076
1757946881.9714882,-0.6214409893056801,0.9896628463855304,2.155291001828081,-0.5772419278004279,0.7742182433700763,-2.378821344568352,0.4563703595065548,-2.6889980760408413e-05,0.09325386000000001,0.31763799,9.78335604,0.003633,0.000156,0.004124,0.059330905494532085
1757946881.9924488,-0.6238397282867824,0.9933210511675516,2.155355063603773,-0.5770515151617795,0.7738374316777635,-2.378688623394409,0.4575240503056364,-2.6639412830230413e-05,0.09355797,0.32318064,9.772280550000001,0.001898,-0.001636,0.004888,0.059318713728015664
1757946882.01306,-0.6266441784354997,0.9975598833706758,2.155409180864713,-0.577477675865494,0.7734302678076167,-2.3785536030193715,0.4586981202728531,-2.6445970111295987e-05,0.09176274,0.30775932,9.77886306,0.00329,-0.001541,0.003892,0.059430720214183316
1757946882.034105,-0.6290615440063243,1.0012607371939428,2.155453426169263,-0.5773377868064897,0.7731555227760881,-2.378419637802305,0.4598705909017478,-2.62606532528228e-05,0.0925083,0.31060422000000004,9.78470001,0.002118,0.000709,0.003567,0.0593979326725872
1757946882.0549932,-0.6318432922980854,1.005471262231226,2.1555253412355118,-0.5774259055566557,0.7728445190289432,-2.3782842634185655,0.46105309223959073,-2.6105344848216726e-05,0.09040896000000001,0.31689243,9.784405710000001,0.004405,-0.000508,0.004666,0.059482023799570065
1757946882.0755656,-0.6333621568649604,1.0079107065134711,2.155558655468578,-0.5762592002724746,0.7727654334123667,-2.378157210923121,0.4621951641796026,-2.587625198909714e-05,0.09340101,0.31928607000000003,9.78993855,0.004529,0.001067,0.003961,0.059162883384504705
1757946882.0960076,-0.6370729414685369,1.0134153630389686,2.155635662116965,-0.5771618925127668,0.7721423534497203,-2.3780228760947426,0.4633877298877352,-2.5764147287265713e-05,0.09310671,0.32871348000000006,9.78829047,0.000664,0.001042,0.004456,0.059578236726962115
1757946882.116563,-0.6378810269136032,1.0148707448036043,2.1556352002501615,-0.5754042680018525,0.7722493900342272,-2.3779013199429073,0.46451140060994345,-2.5517003575145923e-05,0.09310671,0.31180104000000003,9.78605379,0.003696,-0.001022,0.002705,0.059022620153035804
1757946882.1368911,-0.6403675384088717,1.018646156042019,2.1556649917216735,-0.5755475690668094,0.7718466804234244,-2.3777796941780416,0.4656490345576062,-2.531649090007908e-05,0.0928026,0.31808925000000005,9.77512545,0.003344,-0.000317,0.003609,0.059095861864666165
1757946882.1573768,-0.6423265684560004,1.0216787464045725,2.155695837250576,-0.5749889431256272,0.771641655677558,-2.377662094618533,0.4667737307344407,-2.510333359773767e-05,0.09100737,0.32602554,9.787397760000001,0.002136,-0.001215,0.004063,0.05898677379427024
1757946882.1779022,-0.644884953436597,1.0255638005460452,2.1557632977778347,-0.575398757796648,0.7711692729286552,-2.3775432025143126,0.46791720586242247,-2.4940939705167624e-05,0.09759969,0.30565998000000005,9.784405710000001,0.004497,0.00024,0.005356,0.05908416322361214
1757946882.1985211,-0.6474721065190537,1.0294902474558103,2.1558079246636135,-0.5755556857380947,0.7709160112418518,-2.377422448884283,0.469071038183737,-2.4809498924831675e-05,0.08921214,0.31374342,9.78649524,0.001584,-0.000802,0.004047,0.05916719162117579
1757946882.2195582,-0.6497292247560409,1.0329543356514306,2.155873679503175,-0.5752113382897248,0.7708230437833643,-2.377302460486737,0.4702163491775375,-2.4666370232930973e-05,0.08502327,0.32138541,9.783954450000001,0.003174,-0.002422,0.005406,0.059131655766704455
1757946882.2468119,-0.6533303115250609,1.0385935486370637,2.155932696565033,-0.5742292629265972,0.770378314364327,-2.3770760126474055,0.47245246860366,-2.4299142229390824e-05,0.09624591,0.31419468,9.764491410000002,0.000565,-0.001046,0.005489,0.05884594842816185
1757946882.267049,-0.6556395631157816,1.0421195647045147,2.1559820102128917,-0.5741893185511872,0.7698315502920419,-2.3769662178948012,0.47357719648751445,-2.4146618875502117e-05,0.10537902,0.31898196000000006,9.77886306,0.003015,0.000798,0.005029,0.058891415532582744
1757946882.2873397,-0.6577945739383202,1.0454298694060342,2.155984839458217,-0.5739972460966275,0.7695685742940003,-2.3768576641381394,0.4747012467778488,-2.400435620672942e-05,0.09445068,0.31734369000000007,9.77976558,0.004197,-0.001371,0.002743,0.05887941691454994
1757946882.3083615,-0.6598756940170694,1.0486438847261634,2.1560167677685307,-0.5738474306730238,0.7691513572887472,-2.376751475386086,0.47582504489003313,-2.3870434942376003e-05,0.10432935000000002,0.31000581,9.767787570000001,0.002245,0.001559,0.004237,0.058847391593775736
1757946882.3284822,-0.6620198804924021,1.0519354099306475,2.1560334198982627,-0.5735273815172833,0.7688975843452575,-2.3766469815041424,0.4769459620103377,-2.3740323019408188e-05,0.09580446000000001,0.32407335000000004,9.75776175,0.00411,-0.000723,0.003487,0.058839636275204305
1757946882.3491998,-0.6638334218379581,1.054761342484921,2.1560377389989585,-0.5730320159510648,0.7688752504327975,-2.376544765611934,0.4780523596697625,-2.359008180065676e-05,0.08607294000000001,0.31973733,9.75461274,0.003262,0.000537,0.003196,0.05873347024875979
1757946882.3693452,-0.665782895767413,1.0577860046771739,2.1560699845583624,-0.5729900150505465,0.7684938343659006,-2.3764445276223047,0.47915971540867036,-2.345155814985533e-05,0.10238697000000001,0.30402171,9.7724277,0.002346,0.001107,0.004576,0.05869226085978451
1757946882.3901074,-0.6677606451119117,1.0608386775182592,2.15608364303454,-0.5729635357388704,0.768556845692044,-2.3763430206622553,0.4802648230537644,-2.3318916572478312e-05,0.0782838,0.30625839,9.755662410000001,0.005818,-0.001253,0.003647,0.05866837010279111
1757946882.410416,-0.669915308817955,1.0641392876832383,2.1561091712293594,-0.5729143358671108,0.768373924350357,-2.3762411730561954,0.481373267469775,-2.3202805870153858e-05,0.08906499000000001,0.31524435,9.77646942,0.001991,0.000699,0.004104,0.05870073488767597
1757946882.4305623,-0.6719330556329685,1.0672491170207576,2.1561597715898095,-0.572618313839388,0.7681628492483794,-2.3761408288793953,0.48247734282709037,-2.308417260111769e-05,0.0925083,0.32048288999999996,9.76539393,0.003291,0.000945,0.005504,0.058682958076846536
1757946882.4513283,-0.6736851181661373,1.0699809091363615,2.156153967719934,-0.5721708395542224,0.7682461137932605,-2.3760417147578696,0.48356742509768574,-2.2946385553191875e-05,0.0779895,0.31883481,9.780658290000002,0.005691,-0.001201,0.002977,0.05858908041128151
1757946882.4720685,-0.6754606313800482,1.0727357804363662,2.1561381994665982,-0.5716236147059509,0.7681907912761821,-2.3759450396996935,0.48464583660484734,-2.2796841372719505e-05,0.08277678,0.33095997000000005,9.79473564,0.002382,0.00068,0.002622,0.05851986151647708
1757946882.49281,-0.6776573334969348,1.0760978695876853,2.1561532690439194,-0.5717700202710696,0.7676508547627987,-2.375849049712821,0.48573742819169724,-2.2685960700895772e-05,0.10328949000000001,0.31464594,9.78245352,0.004569,-0.002107,0.003784,0.058595143078620904
1757946882.5130413,-0.6791281052838036,1.0784361801174374,2.156138425684005,-0.5710488618970787,0.767360653787793,-2.3757589777482786,0.48681030085927435,-2.2545381104327666e-05,0.10178856,0.32258223,9.78110955,0.00477,0.000645,0.002788,0.05842950421962239
1757946882.5336807,-0.6812245776586704,1.0816438225679301,2.156147917583608,-0.5710388750741393,0.7670772494676188,-2.375668903405937,0.4878906016201291,-2.2431744719083292e-05,0.09265545000000001,0.32242527000000004,9.79173378,0.00276,-6.3e-05,0.003676,0.05849161323062245
1757946882.5542235,-0.6828073413678452,1.084131466171027,2.1561760788302404,-0.570598686721798,0.7670284096326867,-2.3755813105921484,0.48895728545666556,-2.229710066814625e-05,0.08636724,0.31883481,9.80026848,0.00469,6e-06,0.005054,0.05838237327060816
1757946882.5742443,-0.684646380298118,1.0869699147672076,2.1561968678424375,-0.5703790841189883,0.7669429154222196,-2.3754942879275003,0.49002123446233686,-2.2166982002598023e-05,0.0836793,0.32482872,9.79712928,0.001502,-0.00023,0.00461,0.058373760174565636
1757946882.5952504,-0.6864325766848169,1.0897482431294665,2.1562026888705503,-0.5703210965265535,0.7665082512461674,-2.3754095159675126,0.4910875956044448,-2.205186625287497e-05,0.10343664,0.31090833,9.796079610000001,0.003667,-0.000968,0.003817,0.05835045246724181
1757946882.615318,-0.6899074999008309,1.094913642256605,2.1562294817495626,-0.5718031946137656,0.7659508314857784,-2.3753137151303365,0.4922145848043229,-2.2073528915388982e-05,0.09385227000000002,0.30761217,9.78859458,0.004815,-0.002795,0.003222,0.05885376854412978
1757946882.6363108,-0.6898251301755474,1.0950904982515053,2.156213515223344,-0.5695439420295345,0.7663395418663688,-2.3752325228202418,0.4932548284021594,-2.1908316008781362e-05,0.0868185,0.31734369000000007,9.76209777,0.002137,-0.000129,0.003753,0.058158360610948985
1757946882.6565602,-0.6916725364730563,1.0979375726865732,2.1562104165285962,-0.5694857773648648,0.7658153142909211,-2.375153775485889,0.49430477748648016,-2.177883930451212e-05,0.10523187,0.32242527000000004,9.775566900000001,0.003196,-0.000922,0.00362,0.05820400904711863
1757946882.680009,-0.7004737362610792,1.1106744717810664,2.1563415383767746,-0.5755962820003908,0.7640967911118897,-2.375027453997997,0.49561482280707814,-2.2215232934976595e-05,0.09909081000000002,0.3097017,9.787996170000001,0.003076,-0.002865,0.003332,0.06037819205908837
1757946882.7001123,-0.699623066750501,1.1099251841436126,2.1563505607195594,-0.5712410059542006,0.7649737997469799,-2.374926899700336,0.4967412594642345,-2.22053905177749e-05,0.09100737,0.3270654,9.77601816,0.001958,-0.000954,0.003534,0.05914930315680817
1757946882.7202942,-0.6986187623845551,1.1088409804331913,2.156330127313109,-0.5681182407067559,0.7653808918490265,-2.374849034667446,0.4977517632260937,-2.194955079613665e-05,0.0896634,0.32033574000000004,9.77632227,0.004966,-0.001545,0.004816,0.05815435830576657
1757946882.747018,-0.6995358007952074,1.1105840657023411,2.1562231329728094,-0.5667273876957454,0.7648279147764586,-2.37472638093509,0.4996901162071095,-2.1353755865256064e-05,0.09984618,0.30476727000000003,9.77632227,0.002347,-0.001739,0.002192,0.0575738990618615
1757946882.7670758,-0.7012697285820821,1.1132170856623371,2.1562198871676443,-0.5671108682820716,0.7647208423994368,-2.3746653418896257,0.5006872012762971,-2.1157820758978588e-05,0.07724394000000001,0.32332779000000006,9.76209777,0.004759,0.000201,0.00462,0.057721288705265106
1757946882.787976,-0.7026617921629243,1.1153854227709872,2.1562200996166787,-0.5670768377103095,0.7643404063811274,-2.3746072119079726,0.5016904690220352,-2.099274478546693e-05,0.10088604,0.31763799,9.76060665,0.001991,-0.001466,0.00473,0.05771929270583957
1757946882.8121595,-0.7071652038128202,1.1219601605937066,2.1563244383663003,-0.5696114497788147,0.7634801229399018,-2.3745312110895522,0.5028005394031871,-2.106542785299847e-05,0.09714843000000001,0.32138541,9.77048532,0.002881,-0.000126,0.006202,0.058674715853270845
1757946882.8329296,-0.7056052725894394,1.1200379777524445,2.1562972078666185,-0.5658712726296176,0.7640368019360856,-2.3744803117096076,0.5037743104140202,-2.0838853764181473e-05,0.10059174,0.34248672,9.749227050000002,0.004718,0.004852,0.005183,0.057554206992459056
1757946882.8534,-0.7073235728220952,1.1226600411097325,2.156269913182677,-0.5665170143204576,0.7639573163723041,-2.374425826656407,0.5047705290049483,-2.068250844240826e-05,0.07933347,0.30806343,9.81628821,0.004332,0.001168,0.00329,0.05769012750725921
1757946882.8736985,-0.7091333740913984,1.1254329017441733,2.1562994342489112,-0.5670285899128442,0.763293245871858,-2.3743715962752243,0.505789893571442,-2.058770284017985e-05,0.11496339000000001,0.30491442,9.853860509999999,0.001557,-0.002614,0.005589,0.05781578950114849
1757946882.8939116,-0.7123688670238815,1.1301969442597297,2.156331375693182,-0.5680024691958881,0.763239059385034,-2.374305805313427,0.5068564659450049,-2.060322654120216e-05,0.07559586,0.33994593000000006,9.76180347,0.004293,-0.000514,0.004213,0.058350008557372525
1757946882.914283,-0.7122618851728176,1.1303010858762046,2.1563117783956898,-0.566134388833453,0.763545961912165,-2.3742520218967242,0.507851212130148,-2.046258870231347e-05,0.09100737,0.31763799,9.7954812,0.002969,0.002263,0.004169,0.057743395719960365
1757946882.9351103,-0.713640957024931,1.1324691601347507,2.1563009985379473,-0.5662118349463356,0.7631000050789359,-2.3742004394130616,0.5088521763526017,-2.0348596569317088e-05,0.10747836000000001,0.30806343,9.80969589,0.00333,-0.002064,0.003973,0.057727370035246625
1757946882.9554873,-0.7153732982767519,1.1351238197386289,2.156305654430904,-0.5663179515896075,0.762837957301695,-2.374148301165892,0.5098636103857501,-2.0268027462509348e-05,0.09669717,0.32227812,9.76659075,0.002899,5.2e-05,0.004361,0.057819091315884044
1757946882.9762068,-0.7160887828801027,1.1363538389694443,2.156304135187141,-0.5657082846446762,0.7628571276021096,-2.3741008694767016,0.5108512670387847,-2.0143690269929198e-05,0.09370512,0.30761217,9.77976558,0.003173,0.000924,0.004898,0.05757590741921999
1757946882.9971354,-0.720718319899012,1.143113007349626,2.156311711430445,-0.5684456619127345,0.761988545998972,-2.3740334925208186,0.5119521878563001,-2.0277262605251413e-05,0.09909081000000002,0.31689243,9.799817220000001,0.004361,-0.000933,0.00219,0.05859486055090081
1757946883.0175245,-0.7189025157895201,1.1408434090363275,2.1562616894727498,-0.5649240783847391,0.7627558525159518,-2.373989219579764,0.5129147604930124,-2.0098390867089396e-05,0.08981055,0.30821058,9.77077962,0.001073,0.0005,0.003427,0.057409396814119024
1757946883.038405,-0.7206074423472515,1.1434362967837783,2.1562455353205667,-0.5652070190270405,0.762581122972398,-2.3739430611355044,0.5138960195992704,-1.9979426342593072e-05,0.08667135000000001,0.32631984,9.77108373,0.004941,-0.000208,0.003742,0.05756479637774221
1757946883.0601127,-0.7217882601684911,1.1453141694160451,2.1562418527267546,-0.5652902871949138,0.7623324340851175,-2.373898276800133,0.5148798131328912,-1.987758754615265e-05,0.08996751000000001,0.31374342,9.77467419,0.001336,0.000366,0.003668,0.0575202937094681
1757946883.086703,-0.7243568387401956,1.1493285180521289,2.1562139063378547,-0.5651635865908443,0.7623711045123854,-2.3738090760164394,0.5168445929992596,-1.970180509912334e-05,0.0811287,0.31554846000000003,9.78170796,0.006399,-0.001014,0.003931,0.05750599024386901
1757946883.1072056,-0.7243568387401956,1.1493285180521289,2.1562139063378547,-0.5651635865908443,0.7623711045123854,-2.3738090760164394,0.5168445929992596,-1.970180509912334e-05,0.0811287,0.31554846000000003,9.78170796,0.006399,-0.001014,0.003931,0.05750599024386901
1757946883.13358,-0.7302012247073615,1.158446859789884,2.1563407226689746,-0.5654801633815445,0.7623764880809024,-2.3736406477611074,0.5191434689171702,-2.0205379810077236e-05,0.09445068,0.32407335000000004,9.77108373,0.002454,-0.000689,0.005097,0.057928671565677076
1757946883.1540096,-0.7274410080854921,1.1547906357646556,2.1562768960287837,-0.5617325303081252,0.7628171368767207,-2.3736123224777606,0.5200043189967075,-1.9806696112313398e-05,0.09265545000000001,0.31988447999999997,9.779167170000001,0.005642,-0.000174,0.005971,0.05662240235816193
1757946883.1741831,-0.7289960979216532,1.1571439215672767,2.1562610009900656,-0.5629736239312161,0.7621100881041549,-2.373582029373771,0.520916040443961,-1.9558758767381803e-05,0.09714843000000001,0.30491442,9.77781339,0.00343,0.000774,0.005156,0.05692204056066703
1757946883.1947281,-0.7301255941648257,1.1588934819630992,2.1562204105191505,-0.5629851410808566,0.7615403282294385,-2.373555430876078,0.521843911981923,-1.9374481063809493e-05,0.10822392,0.329616,9.77797035,0.002654,0.000237,0.003598,0.05699912190201717
1757946883.2155218,-0.7318120213390674,1.1614321216942607,2.1562089289202397,-0.5634878516145047,0.761280418213131,-2.37352628744406,0.5227976860035185,-1.92667216578274e-05,0.09145863,0.3239262,9.7692885,0.004196,-0.000568,0.004223,0.05722282436281267
1757946883.2359493,-0.7326997051833448,1.1628633150304082,2.156170681471888,-0.5633780508316868,0.7612054261662874,-2.373498868699229,0.5237474583288858,-1.9163689905552113e-05,0.09430353000000001,0.30670965,9.76044969,0.002752,0.000586,0.003082,0.05714476414082283
1757946883.2562258,-0.7340904985741361,1.165002934740917,2.156171843779541,-0.5638045808781041,0.7611112430319884,-2.3734690431109042,0.5247104280168401,-1.9100335790082318e-05,0.09071307,0.30237363,9.78485697,0.005375,-0.000585,0.004589,0.05723626180531102
1757946883.276305,-0.7354186411115031,1.1670516307943277,2.1561444332235995,-0.5636895971218275,0.7609768425159819,-2.373439443892721,0.5256758035030283,-1.9051702792862254e-05,0.09640287000000002,0.32242527000000004,9.77092677,0.002229,0.001439,0.003036,0.05728168925582519
1757946883.2972016,-0.7365567244915092,1.1688391507370377,2.156158207280196,-0.5633934674388901,0.7607502238298705,-2.373412097285074,0.5266368852549116,-1.899891318731051e-05,0.10432935000000002,0.32167971,9.80445735,0.002235,-6.9e-05,0.005214,0.05725638514093626
1757946883.3176725,-0.7385693018060211,1.1718614496974136,2.1561501934163827,-0.5639310375380284,0.7606607587774559,-2.3733791216065825,0.5276207069945231,-1.9003462171481035e-05,0.08846658,0.31943322,9.780658290000002,0.005426,-0.000198,0.003325,0.057509729561481995
1757946883.3378658,-0.7392826772028593,1.1730661731400431,2.156161868065178,-0.5631772846696128,0.7607263920971811,-2.373350031387892,0.528578744017348,-1.895112146373187e-05,0.09445068,0.31898196000000006,9.77347737,0.002694,0.000114,0.00524,0.05730626999900003
1757946883.3583047,-0.7462439003913283,1.1831500253253098,2.1563037118892208,-0.568055416457612,0.759674452337382,-2.373282515600209,0.5297257566651509,-1.9321758004070312e-05,0.09310671,0.30880899,9.79802199,0.004378,-0.000103,0.005162,0.05909129192246011
1757946883.3790123,-0.7417208385718548,1.1771397799035717,2.156234446919685,-0.5617055258266742,0.7609707819024909,-2.3732578290527635,0.5306259432141067,-1.9101324574775902e-05,0.09564750000000001,0.31314501,9.77886306,0.004201,-0.001303,0.004192,0.056956890462004126
1757946883.3994088,-0.7421625887549307,1.1779275731221304,2.156181865499418,-0.5612641144205244,0.7606886990866084,-2.373238958122165,0.531520955947205,-1.889700190798296e-05,0.09864936,0.32272938,9.77032836,9.5e-05,0.000656,0.003392,0.05681495559048223
1757946883.4203148,-0.7421625887549307,1.1779275731221304,2.156181865499418,-0.5612641144205244,0.7606886990866084,-2.373238958122165,0.531520955947205,-1.889700190798296e-05,0.09864936,0.32272938,9.77032836,9.5e-05,0.000656,0.003392,0.05681495559048223
1757946883.4469097,-0.7447525813960719,1.1827538276601268,2.15623267962682,-0.5576167349435267,0.7605951906430228,-2.3731131663729212,0.5345660682974118,-1.8988325102042318e-05,0.09774684000000002,0.32467176000000003,9.78560253,0.001608,-0.001144,0.00588,0.0559391924742241
1757946883.4676285,-0.7457202028433213,1.1842223575679498,2.156172200451177,-0.5585839657445162,0.7599599690343959,-2.373116958038748,0.5353958433082984,-1.8644884338493015e-05,0.09385227000000002,0.32423030999999997,9.76508982,0.004541,-0.0004,0.004308,0.05620099614045191
1757946883.4886386,-0.7467767144556811,1.1858285220059788,2.156099498152307,-0.559448972529525,0.7595098147853678,-2.373119964834814,0.5362613558639451,-1.8419304133248968e-05,0.09655002,0.3122523,9.779010210000001,0.002814,-0.000438,0.002708,0.05640813521512648
1757946883.5092099,-0.7487970445677352,1.1888021543663392,2.156126598808852,-0.5606405757160321,0.7592196477480925,-2.373116212672681,0.5371744065873783,-1.8321351127364505e-05,0.08876088000000001,0.32423030999999997,9.78829047,0.003681,-3.5e-05,0.006127,0.05685409123338264
1757946883.5299916,-0.7496651932584808,1.1901734884625583,2.156086595006382,-0.5606127639794471,0.7592039355397113,-2.373112853338334,0.5380870200620358,-1.823615933201076e-05,0.0928026,0.31464594,9.7812567,0.004862,-0.001164,0.003178,0.05683599240340892
1757946883.5507746,-0.7500009312708739,1.1907907679341017,2.1560332431337255,-0.560177002274141,0.7592814199621216,-2.3731128597076347,0.5389836003713468,-1.812827151079846e-05,0.09325386000000001,0.31105548,9.79069392,3e-06,-0.002913,0.002824,0.05665071206806833
1757946883.5710785,-0.7516857965783758,1.1933094175517607,2.156024908820374,-0.560738359624383,0.7587979279387947,-2.373110533417659,0.5399085660904211,-1.809621424618526e-05,0.10987200000000001,0.32407335000000004,9.767787570000001,0.004821,-0.002256,0.004041,0.05691871493776981
1757946883.5915596,-0.7519187420594747,1.1937862926650245,2.155986452834137,-0.5601037630281828,0.7590720204016952,-2.3731113723914308,0.5408080750013544,-1.801428402975549e-05,0.08741691000000001,0.31165389,9.77302611,0.004094,-0.000791,0.003377,0.05667512616749395
1757946883.6121645,-0.7538397786537072,1.1966486429171073,2.155992685957954,-0.56111295853036,0.7588069967922415,-2.3731056177342937,0.5417431333470787,-1.8020965497566926e-05,0.09774684000000002,0.30895614000000005,9.780658290000002,0.002185,-0.001607,0.00429,0.057008929178643364
1757946883.6324518,-0.7539256199081545,1.196927904637064,2.155951138481715,-0.5601766095502944,0.7589714690822602,-2.3731053389762997,0.5426448397193135,-1.7956340275888283e-05,0.09729558,0.31374342,9.79038981,0.00533,-0.000443,0.003037,0.0566952788196442
1757946883.6528335,-0.7550879563293393,1.1987140074462306,2.155946538048509,-0.5604699151955719,0.7588973901194492,-2.3731029323026545,0.5435567464173422,-1.792293816923071e-05,0.09520605,0.31015296,9.77362452,0.002735,-0.001507,0.00435,0.05678401549137667
1757946883.673347,-0.756903746011037,1.2014295375946187,2.1559333369496194,-0.5611739062579816,0.7589324147056143,-2.3730934624963247,0.5444928005410251,-1.795039330850423e-05,0.08547453,0.31299785999999996,9.755211150000001,0.00388,-0.0009,0.00317,0.057055987415151846
1757946883.693673,-0.7569198918032676,1.201619648344018,2.1559464369936627,-0.5601203621997756,0.7589586036094564,-2.373090979472332,0.5453923271711817,-1.7893619934232587e-05,0.10523187,0.3125466,9.77003406,0.006161,-0.002624,0.00595,0.056707075872246604
1757946883.7138758,-0.7585384336571406,1.2040540002501048,2.1559576382741943,-0.560910079465869,0.7591709174011174,-2.3730807216729737,0.546313625053719,-1.7893029604504486e-05,0.07469334000000001,0.30402171,9.79413723,0.002291,0.001124,0.004625,0.05693682696480431
1757946883.7339315,-0.7590120587705819,1.2048776934271244,2.155939684179504,-0.5602131758678002,0.7592551188974367,-2.373073809718035,0.5472133038238794,-1.7846750555603235e-05,0.09295956000000001,0.31973733,9.780962400000002,0.004634,-0.001293,0.003966,0.05675456804362201
1757946883.754246,-0.7600980661833325,1.2065628357954723,2.155934657497461,-0.5603587181567604,0.7592158663506585,-2.3730652172027096,0.5481181150789746,-1.7818554149069437e-05,0.09071307,0.31015296,9.77601816,0.005801,0.000195,0.004261,0.05680359397793281
1757946883.774998,-0.7608046256664975,1.2077135930598921,2.1559244760653495,-0.56007973597251,0.7591524916631032,-2.373058226150482,0.5490148540077087,-1.7776953185005017e-05,0.09640287000000002,0.31210515000000005,9.77287896,0.005801,0.000195,0.004261,0.056721031776777106
1757946883.795925,-0.7616344323516562,1.2090276860605131,2.1559276569668393,-0.5596457492167911,0.7588922456319288,-2.3730541931205757,0.5499062873334133,-1.7729104948478956e-05,0.10597743000000001,0.32976315,9.775272600000001,0.005161,-0.002573,0.004971,0.05668932970180483
1757946883.816428,-0.7628065948000442,1.210825152744542,2.1559303014869915,-0.5597556794865881,0.7589419471494069,-2.3730476994385117,0.5508031182804729,-1.7699651404110588e-05,0.08562168,0.31959018000000006,9.76269618,0.002388,0.000492,0.004637,0.056772524577531194
1757946883.83697,-0.7640142222385166,1.2126831784087673,2.155950497675356,-0.5598949889968161,0.7589097908520074,-2.3730389340421914,0.55170523479411,-1.7685236525885043e-05,0.08981055,0.31554846000000003,9.771230880000001,0.002685,-0.002041,0.005347,0.05684871548687363
1757946883.857289,-0.7642723672248998,1.213201424522543,2.1559167134635917,-0.5591446760832273,0.7588802541851476,-2.373035046021442,0.5525838158425425,-1.7621369907543672e-05,0.09894366,0.31674527999999996,9.78500412,0.007459,0.000293,0.003397,0.05661117072520856
1757946883.878354,-0.76521979901529,1.214681332599229,2.1558868440201335,-0.5591565680793547,0.758739912929895,-2.3730310187015378,0.5534661659407963,-1.7575081119417034e-05,0.09580446000000001,0.31674527999999996,9.77422293,0.00116,0.00094,0.003256,0.056638896952053
1757946883.8992376,-0.7662159269222675,1.216230766186818,2.1558882661197822,-0.5589865300812462,0.7584198557351217,-2.3730284850001966,0.5543508172145946,-1.753971164372111e-05,0.10687995,0.32617269000000004,9.7784118,0.004108,-0.000351,0.004706,0.056671150844018844
1757946883.9194155,-0.7669235054408259,1.2173710399085274,2.1558680167987365,-0.5588607726418691,0.7586775255469763,-2.373024823067457,0.5552277978052994,-1.749251680306518e-05,0.07813665,0.31180104000000003,9.7983261,0.003763,-0.001654,0.003809,0.056609000669815765
1757946883.9403174,-0.7678800043358767,1.2188605834717123,2.155849030873542,-0.5586492520812327,0.7584275715050484,-2.3730224841579632,0.5561055338565541,-1.745396926735071e-05,0.10269108,0.32827203,9.787544910000001,0.000505,0.00101,0.003716,0.0566325142070592
1757946883.960614,-0.7678800043358767,1.2188605834717123,2.155849030873542,-0.5586492520812327,0.7584275715050484,-2.3730224841579632,0.5561055338565541,-1.745396926735071e-05,0.10269108,0.32827203,9.787544910000001,0.000505,0.00101,0.003716,0.0566325142070592
1757946883.9811203,-0.7764352575879994,1.2319689836046088,2.156058710683226,-0.560628023093309,0.7579701589422886,-2.3729039030093313,0.558349699813505,-1.840452920260004e-05,0.09355797,0.32617269000000004,9.779314320000001,0.003567,0.000252,0.005954,0.05793217046770392
1757946884.0012026,-0.7713934697759905,1.225100645621159,2.1559483216768456,-0.5552174750267338,0.7586975026486061,-2.372914354381328,0.5591102947017025,-1.798658084268821e-05,0.09624591,0.29713509,9.78919299,0.001502,-0.001446,0.003952,0.05589565061754524
1757946884.021728,-0.7713934697759905,1.225100645621159,2.1559483216768456,-0.5552174750267338,0.7586975026486061,-2.372914354381328,0.5591102947017025,-1.798658084268821e-05,0.09624591,0.29713509,9.78919299,0.001502,-0.001446,0.003952,0.05589565061754524
1757946884.044798,-0.789960113300827,1.251988324467558,2.156261100395956,-0.5698083888905658,0.7555509962847595,-2.372811972259962,0.5604620549539076,-1.8991786797201963e-05,0.09071307,0.32482872,9.79024266,0.005756,-0.001879,0.004234,0.06167241181130544
1757946884.0653148,-0.789960113300827,1.251988324467558,2.156261100395956,-0.5698083888905658,0.7555509962847595,-2.372811972259962,0.5604620549539076,-1.8991786797201963e-05,0.09071307,0.32482872,9.79024266,0.005756,-0.001879,0.004234,0.06167241181130544
1757946884.0857863,-0.789960113300827,1.251988324467558,2.156261100395956,-0.5698083888905658,0.7555509962847595,-2.372811972259962,0.5604620549539076,-1.8991786797201963e-05,0.09071307,0.32482872,9.79024266,0.005756,-0.001879,0.004234,0.06167241181130544
1757946884.1112878,-0.8116285876048814,1.2835623424874956,2.1568560817559597,-0.5809313687851579,0.753153278968572,-2.3725544859630876,0.5623892676486627,-2.142344277573084e-05,0.09744273000000002,0.31150674,9.768238830000001,0.001248,-0.000157,0.004403,0.06694080689788148
1757946884.132191,-0.8116285876048814,1.2835623424874956,2.1568560817559597,-0.5809313687851579,0.753153278968572,-2.3725544859630876,0.5623892676486627,-2.142344277573084e-05,0.09744273000000002,0.31150674,9.768238830000001,0.001248,-0.000157,0.004403,0.06694080689788148
1757946884.1529121,-0.8116285876048814,1.2835623424874956,2.1568560817559597,-0.5809313687851579,0.753153278968572,-2.3725544859630876,0.5623892676486627,-2.142344277573084e-05,0.09744273000000002,0.31150674,9.768238830000001,0.001248,-0.000157,0.004403,0.06694080689788148
1757946884.1775134,-0.8361949403881233,1.319539249473433,2.1579486434908874,-0.5880577945999079,0.7505786741428213,-2.37211696065869,0.5647808447284187,-2.8069905054958266e-05,0.09580446000000001,0.32407335000000004,9.77871591,0.003781,-0.003375,0.003966,0.07199091580343678
1757946884.202932,-0.8328320206524437,1.3171931134192825,2.157829358814599,-0.5741371711329869,0.7515937354873129,-2.3717943080997563,0.5663951396632119,-2.5888031077853856e-05,0.08382645000000001,0.30955455000000004,9.771525180000001,0.003855,-0.001844,0.003992,0.06787580347152536
1757946884.2242205,-0.8309354642815213,1.3158859029423173,2.1578469419416813,-0.5661633586255914,0.7507973857110083,-2.3715613108488385,0.5676716905944272,-2.5763788556563208e-05,0.07499745000000001,0.31210515000000005,9.7664436,0.001689,-0.000148,0.003381,0.06547912208619688
1757946884.2448244,-0.8290264158852092,1.3141589954877844,2.157760846314832,-0.5604310857478721,0.7492347974633322,-2.3713989195017025,0.5687716968002499,-2.5197702906508182e-05,0.09086022,0.32213097,9.765246780000002,0.004145,0.000381,0.00274,0.06371180853686016
1757946884.2657988,-0.8274913901095103,1.3127025285646723,2.1576676897488323,-0.556841575102945,0.7476857131428694,-2.37128912300833,0.5697814032272739,-2.4471497917172604e-05,0.08412075,0.30611124,9.77467419,0.002109,-0.000464,0.00456,0.062485261510461285
1757946884.2910526,-0.8212640975646934,1.3048340044312399,2.157321189040675,-0.5491264440405953,0.7455386531488505,-2.371216025584896,0.5715625643777121,-2.2701928042133035e-05,0.08772102000000001,0.31194819,9.76090095,0.006977,0.002024,0.004321,0.059697046073798596
1757946884.311143,-0.8081072602480164,1.2864021305188929,2.156774517459894,-0.5400549150795984,0.7446111860865914,-2.3713783225259184,0.5728427428069698,-2.0245932121971016e-05,0.10178856,0.32182686000000005,9.79457868,0.003531,-4.2e-05,0.00441,0.055869859817911316
1757946884.3382082,-0.7902429874470962,1.2603991715006804,2.155899618897834,-0.5338080131249584,0.7440721722628182,-2.371892285196402,0.5743618869925174,-1.6819090727943248e-05,0.10762551000000001,0.32063004,9.76898439,0.005522,0.000379,0.003675,0.05240193796288842
1757946884.3593574,-0.7796964782946283,1.2446882141225524,2.1553747168588755,-0.5325722310945583,0.744842631364918,-2.372336102149702,0.5752747935925597,-1.4972804800257622e-05,0.09160578000000001,0.32033574000000004,9.7781175,0.004791,-0.000727,0.003187,0.05099917797078835
1757946884.3847232,-0.7647773173508454,1.2221617394395778,2.1546371242474702,-0.5319906044210845,0.7469303814220326,-2.373084842648598,0.5765640821309883,-1.277897622234556e-05,0.08067744,0.31210515000000005,9.784101600000001,0.002113,-0.000159,0.003134,0.049397700264001365
1757946884.406532,-0.7573563694661055,1.2106784480675106,2.1542382821462898,-0.5339632654006826,0.7484346251195133,-2.3736109562080974,0.5774283009098783,-1.1703774536551193e-05,0.09415638000000001,0.32242527000000004,9.79727643,0.002037,-0.00017,0.003254,0.04921873493658735
1757946884.427178,-0.758715651713986,1.2122542820404436,2.15410871763798,-0.5392750368261539,0.7488420382233,-2.3738615407056334,0.5779904382623093,-1.1498456437106443e-05,0.08981055,0.31898196000000006,9.78620094,0.00468,0.000749,0.002225,0.05073493234872123
1757946884.4487977,-0.7606831667369123,1.2147478754917773,2.1540682819161328,-0.5438557097107943,0.7494733654353919,-2.374095432239525,0.5786575355813368,-1.1531037991520581e-05,0.10313253,0.31689243,9.772133400000001,0.003693,-0.000549,0.003722,0.05210116891542423
1757946884.468959,-0.7601082581214026,1.213659284796157,2.154043058512996,-0.5452548387486237,0.7511577609373599,-2.3743177547588172,0.5793329409994912,-1.158773883152741e-05,0.0836793,0.31194819,9.76209777,0.00271,0.000404,0.004875,0.052339864953505635
1757946884.489845,-0.7613475304727945,1.2151930229403765,2.1540501560843826,-0.547882766657828,0.7525788328911583,-2.374521407691825,0.5800570649236608,-1.1753015122596364e-05,0.0836793,0.31959018000000006,9.77077962,0.005324,-0.001396,0.004381,0.05309726228585383
1757946884.5105088,-0.7624029763046299,1.2165262584239571,2.154077546014814,-0.5499110072622638,0.7539102475132123,-2.374707189438024,0.5808115668143541,-1.198037363768735e-05,0.0925083,0.31090833,9.78844743,0.001397,0.001321,0.004565,0.053629841060663194
1757946884.5306046,-0.7634942677228084,1.2179487422660245,2.154140561008953,-0.5512407832125755,0.7551806708496506,-2.3748764772742215,0.5815824120158115,-1.2234770931362722e-05,0.09370512,0.329616,9.75910572,0.002488,0.000706,0.005827,0.054057716837353435
1757946884.5514057,-0.7644604240676598,1.2192419510774484,2.1542008026217037,-0.5524595496090489,0.756362110900644,-2.375029544532694,0.5823632967219854,-1.2499975975478711e-05,0.09385227000000002,0.31434183000000004,9.77766624,0.005954,-0.000329,0.005444,0.05436080780275842
1757946884.572316,-0.7653270319122627,1.2204290891291185,2.154229717062586,-0.5535308215106217,0.7574436570081299,-2.375167200735823,0.5831500708974413,-1.276713663571239e-05,0.09340101,0.30491442,9.783954450000001,2.3e-05,-0.000348,0.003696,0.05457415058378424
1757946884.5932846,-0.7662683503143202,1.2217384877307345,2.1542880789871024,-0.5543115051080448,0.7585338448856647,-2.3752900437458018,0.5839386407611552,-1.3025864921650046e-05,0.08502327,0.31614687,9.765246780000002,0.003753,-0.00016,0.005096,0.054769110555162016
1757946884.6141448,-0.7676167745578568,1.2236527240774404,2.1543229459545756,-0.5552174667565946,0.759266909378067,-2.3753981803222386,0.5847392469014207,-1.330103293565598e-05,0.09400923,0.31883481,9.78215922,0.004997,-0.001092,0.003495,0.05505420348447822
1757946884.634802,-0.7684699330036463,1.2248826398418178,2.154342088698548,-0.555560184741237,0.7601651102084312,-2.3754943059643936,0.5855332061441648,-1.3547977001871375e-05,0.08262963000000001,0.31749084,9.77991273,0.000661,-7.4e-05,0.002967,0.05512993196709598
1757946884.6549742,-0.7695504158675013,1.2264544335961949,2.1543678855080373,-0.5559856992901224,0.7605393525304345,-2.375580470217258,0.5863303928666626,-1.3790510508824393e-05,0.10178856,0.31854051,9.78470001,0.005581,-0.000252,0.003188,0.055265197633396365
1757946884.6750753,-0.769948381594324,1.22706391474031,2.154365350707894,-0.5558489568259151,0.7610897581868936,-2.3756603148394597,0.5871115021262934,-1.3983848462575519e-05,0.09220419,0.31404753,9.78141366,0.00192,-5.6e-05,0.002258,0.0551637354407658
1757946884.6954017,-0.7710835509233042,1.2287239301501176,2.154373156284443,-0.5562791287963348,0.7612672118782906,-2.375731608544416,0.5879009522917586,-1.4188731202147154e-05,0.10028763,0.31838355,9.78889869,0.001736,0.000167,0.002468,0.055316403641580685
1757946884.7160087,-0.7722492426777224,1.230443594744266,2.1544043844274325,-0.5567883822477693,0.7614856209261978,-2.3757939188112087,0.5886980608431617,-1.440034456979089e-05,0.0953532,0.30790647,9.76300029,0.006442,-0.000582,0.003481,0.05545006986224132
1757946884.7361753,-0.7732533794638509,1.2319332582050957,2.154444345601089,-0.5567962371644998,0.7617765826918624,-2.375849546655569,0.5894916649643857,-1.4590961489167705e-05,0.08981055,0.32242527000000004,9.77422293,0.00098,0.001453,0.00409,0.05550623759464128
1757946884.7567837,-0.7739796468725523,1.2330375482732645,2.1544923434003236,-0.5565999942307788,0.7618219888392068,-2.375901916634122,0.5902771708303155,-1.474932853699286e-05,0.10104300000000001,0.31913892,9.796530870000002,0.003559,-0.001323,0.004873,0.05546724536397815
1757946884.776942,-0.7748912095676338,1.234409563272777,2.1545365510113683,-0.5567633605931495,0.7618443543825189,-2.375949382103951,0.5910637554053492,-1.489949160626376e-05,0.09714843000000001,0.30880899,9.7866522,0.005206,-0.001681,0.004671,0.05549928994350692
1757946884.7981107,-0.7757138238615732,1.2356508490019507,2.1545463289940034,-0.5567286921622082,0.7620272099429017,-2.3759923264758163,0.5918463717666786,-1.5031712821251068e-05,0.0868185,0.31404753,9.78874173,0.001149,0.001264,0.003091,0.055498477146665795
1757946884.8182874,-0.7766844807387783,1.2371036370461796,2.1545893754027556,-0.5568648632157605,0.762246941287745,-2.376029610442695,0.5926291727725777,-1.5155241696279998e-05,0.08023599000000001,0.31150674,9.78934014,0.004998,0.000362,0.004766,0.05554693173543519
1757946884.8389437,-0.7777486855358116,1.2386956383150673,2.1545814704371242,-0.5569288923473346,0.7622089744563451,-2.376062768578591,0.5934149316003549,-1.5279701432512246e-05,0.09131148000000001,0.31569561,9.780511140000002,0.004031,1.8e-05,0.002164,0.05561508091182783
1757946884.858988,-0.7781932301558563,1.2394101816755638,2.154608200150199,-0.5565553085463935,0.7622325329739056,-2.3760956463370855,0.5941873319511743,-1.536246179958775e-05,0.09086022,0.3094074,9.78141366,0.002539,-0.000372,0.004452,0.055478110072057385
1757946884.879339,-0.7790504897369505,1.240702280409562,2.154634710259945,-0.5563250872682499,0.7619182136108259,-2.3761282734442277,0.5949595783424015,-1.5439489675102915e-05,0.1041822,0.32437746,9.7812567,0.004781,-0.001034,0.004351,0.0554977545906786
1757946884.900055,-0.7800778742174724,1.242238208576973,2.1546778097789723,-0.556488589350494,0.7619922370681673,-2.376156490883671,0.595735457829279,-1.5519094480050867e-05,0.08128566000000001,0.31165389,9.78934014,0.001329,0.000527,0.005079,0.05557063548946221
1757946884.9208791,-0.7883710509820222,1.2542231127178722,2.154798161240116,-0.5622250435091075,0.7609898256106133,-2.3761366007548217,0.5967126970889943,-1.609176465472917e-05,0.09160578000000001,0.31045707000000006,9.78620094,0.00459,-1.6e-05,0.002803,0.05789659156277045
1757946884.9472697,-0.7824787347734582,1.246212944711396,2.154742286452297,-0.5543734869805714,0.7618567849831386,-2.376190228851203,0.5981814951084271,-1.5917435509278384e-05,0.0928026,0.31703958,9.7866522,0.001095,0.000714,0.004099,0.05510273986424649
1757946884.9681237,-0.7831334208320712,1.247200132466293,2.1547222874535503,-0.5545388394660437,0.761312727939641,-2.37622391802037,0.5989109927768977,-1.5840027999334866e-05,0.10178856,0.3179421,9.78141366,0.005074,-0.000223,0.003409,0.055181259365593184
1757946884.988373,-0.7834975500482871,1.247768278003256,2.1547022347755806,-0.5543061700525067,0.7609767029332013,-2.376260210215279,0.5996415447252348,-1.5776300635519557e-05,0.09864936,0.32093415000000003,9.77976558,0.004318,-0.000955,0.003417,0.05513885944292618
1757946885.00902,-0.7840075799525943,1.2485387958034018,2.1547346464712493,-0.5543125057207842,0.7608777203114068,-2.3762964196575886,0.6003749680933785,-1.572583035493782e-05,0.0865242,0.3150972,9.774968490000001,0.002588,0.000399,0.006019,0.055143952907397584
1757946885.0295367,-0.7855991601408915,1.250861478559834,2.1547620356761863,-0.5552126870195517,0.7605775861684136,-2.3763264289484884,0.6011387360134155,-1.5754390244681996e-05,0.09220419,0.31030011,9.77377167,0.006305,-0.00108,0.004622,0.05548287866046177
1757946885.050019,-0.7865716317224778,1.252316047633158,2.1547720207309524,-0.5552139848168401,0.7603571275403956,-2.3763552711062825,0.6019063151060328,-1.5790661295969552e-05,0.09744273000000002,0.31598991,9.79024266,0.002704,-0.000817,0.003906,0.05555171535406064
1757946885.0708895,-0.7860506426895787,1.2516415592905539,2.1547623574811645,-0.5541187053229552,0.7605107726191527,-2.3763903908131505,0.6026387819699182,-1.5738529650846796e-05,0.0868185,0.30955455000000004,9.787397760000001,0.002819,-0.001,0.004243,0.055139245922305374
1757946885.090904,-0.7867903755228798,1.252741677838046,2.154764361200982,-0.5541889181013157,0.7602703767636697,-2.3764251595631163,0.6033783649753719,-1.5709982031884083e-05,0.09609875999999999,0.31734369000000007,9.764942670000002,0.005687,-0.00064,0.004219,0.05520756799034962
1757946885.111853,-0.7891212396957287,1.2561214599089623,2.154780591520103,-0.5552884245575908,0.7598295631907073,-2.3764511344165067,0.6041608683533684,-1.579104341124424e-05,0.09849240000000001,0.32423030999999997,9.78275763,0.000661,-0.001156,0.003462,0.05575774197155141
1757946885.1326294,-0.7884853043786084,1.2552956031962244,2.154777693185771,-0.5539194902983638,0.7601333095068188,-2.37648403394862,0.6048976798000255,-1.575187738535383e-05,0.08248248000000001,0.3125466,9.79084107,0.005458,-0.002396,0.0045,0.055263412358226356
1757946885.1533546,-0.7889071347780492,1.25595244491251,2.1547594921548203,-0.5537097605378812,0.7599287539590714,-2.376518545483513,0.6056317396190358,-1.571151825893563e-05,0.09774684000000002,0.31524435,9.775723860000001,0.002753,4.7e-05,0.003365,0.055207453547135854
1757946885.1740336,-0.7905518432182407,1.2583549430492738,2.1547901750116996,-0.5543940042075319,0.7595391317095007,-2.3765480699975656,0.6063930617799358,-1.5741972837663705e-05,0.10028763,0.31973733,9.77677353,0.003331,0.000801,0.004735,0.0555455615514705
1757946885.1944072,-0.7902862677455906,1.2580483896012569,2.1547719319417036,-0.5535955091604866,0.7597205957732008,-2.37658168408696,0.607126273433477,-1.5701179223448522e-05,0.08576883000000002,0.30506157,9.79009551,0.004271,-0.002223,0.003566,0.055213565384313594
1757946885.214593,-0.7910465595661241,1.2591911434402223,2.154773117200781,-0.5538356105019047,0.7595390983947806,-2.3766139383915696,0.6078672463673581,-1.5684139937173005e-05,0.09550035000000001,0.30521853,9.80461431,0.00196,0.000916,0.004066,0.05527520928408319
1757946885.2351084,-0.7914382337129702,1.2597980781626388,2.1547939715847297,-0.5534531115746213,0.7595948477801088,-2.3766471459810314,0.6085992574461733,-1.5646827352993162e-05,0.08667135000000001,0.32122845000000005,9.7667379,0.003655,0.000264,0.005411,0.05520335963040155
1757946885.2559242,-0.7945820102791208,1.2643639576594259,2.154856623723722,-0.5557458808138124,0.7591764767059554,-2.3766640778767254,0.6094007123459185,-1.578396021757765e-05,0.09370512,0.29697813,9.80670384,0.003642,-0.001428,0.004801,0.0560178316915089
1757946885.2768753,-0.7962132294965585,1.2667972889939643,2.154879611396348,-0.5559728869176547,0.7593677121407246,-2.3766741352911813,0.6102059154784619,-1.5918665484917904e-05,0.08023599000000001,0.30730806,9.79173378,0.00167,-0.001175,0.003466,0.0561876272327714
1757946885.2973373,-0.7930267307195777,1.262373412968616,2.154831942595301,-0.5521565219836293,0.7598715667603541,-2.376708880772144,0.6108934932216293,-1.57474163193393e-05,0.08772102000000001,0.32318064,9.7490799,0.003635,0.000904,0.004316,0.054818587229325866
1757946885.3180695,-0.7994616664451282,1.2716540092779127,2.1549067476251853,-0.5569175399261258,0.7589115296553329,-2.3767096255321505,0.6117422151833883,-1.599524902384616e-05,0.0925083,0.31689243,9.775419750000001,0.003923,-0.001491,0.003638,0.05677465769873968
1757946885.345168,-0.7943850419849026,1.2646179330479503,2.154784738052733,-0.5512524684626835,0.7594052390800891,-2.3767895347741055,0.6130891160630406,-1.5586162565092738e-05,0.0896634,0.32213097,9.764942670000002,0.005171,0.000737,0.003505,0.054656304793176416
1757946885.3667977,-0.7958970721785101,1.266799010961847,2.1547908701743097,-0.5522591748336576,0.7589406862202939,-2.376826294640611,0.6138028560588958,-1.5514120286051323e-05,0.09714843000000001,0.32213097,9.763893,0.004216,-0.001657,0.004631,0.05508679514219314
1757946885.387083,-0.7954316329343646,1.2661643618231901,2.154761444765562,-0.5514446752932559,0.7591604281083058,-2.3768676929718486,0.6144929112891716,-1.539312160829422e-05,0.07903917,0.32018859000000005,9.77377167,0.001989,-0.001199,0.004012,0.054791326991829745
1757946885.4072514,-0.7961356934218792,1.267191476398754,2.1547558715011332,-0.5516921391277075,0.7588770309807534,-2.376908578417135,0.6151956556606226,-1.5316438556774372e-05,0.0981981,0.32182686000000005,9.77003406,0.004907,0.000682,0.004476,0.05492060906945069
1757946885.427891,-0.7981486785003776,1.2701023310263868,2.1547817300948022,-0.5528357876121703,0.7585846316003758,-2.376941117146678,0.6159373680164018,-1.5344393449344205e-05,0.09445068,0.32153256,9.77077962,0.001629,-3e-05,0.004589,0.05543109634275291
1757946885.4485703,-0.797335175011553,1.2690020586591484,2.1547639317863023,-0.5515228592704792,0.7586246860557427,-2.37698212021407,0.6166388065287529,-1.5269503186252623e-05,0.10088604,0.3150972,9.78110955,0.005775,-0.002403,0.004374,0.05494148723881028
1757946885.469154,-0.7976972458544888,1.2695523149339818,2.15474814386282,-0.5516466556813441,0.7587214777676007,-2.377021977881676,0.617341245733605,-1.5205904846751843e-05,0.0836793,0.30775932,9.7667379,0.0048,-0.000332,0.003985,0.054929343534062036
1757946885.4896927,-0.7984558385158184,1.2706724268074379,2.1547369494782913,-0.5519820923716351,0.758574490538471,-2.3770598399748963,0.6180542912616969,-1.5176421100913782e-05,0.09564750000000001,0.31045707000000006,9.78889869,0.002742,0.000699,0.003794,0.05503987849839764
1757946885.5102217,-0.7987276679418922,1.2710997830269513,2.154721567208335,-0.5517461665502176,0.7585029982871723,-2.3770989816956667,0.6187617049102568,-1.5137469028768273e-05,0.09729558,0.31494024000000004,9.79173378,0.003406,-0.000728,0.003819,0.05496945623581029
1757946885.5312135,-0.7992317216743632,1.2718543659338961,2.15470686082757,-0.551748776788836,0.7585032970011322,-2.377137339597312,0.6194698750826183,-1.5106202397732401e-05,0.09160578000000001,0.31479309,9.78515127,0.002593,0.000584,0.00371,0.05498601311684943
1757946885.5515158,-0.8020850667642515,1.2759774008790539,2.1547465175559726,-0.5534078642514494,0.7582584499361685,-2.377162009517975,0.6202329483148665,-1.5217243136402152e-05,0.09176274,0.3210813,9.77362452,0.001965,-5.9e-05,0.004271,0.055739175983719955
1757946885.5725482,-0.8003522558732433,1.273590023728777,2.15471806780352,-0.5511130987565719,0.758498838976192,-2.3772008388353543,0.6209243567574924,-1.5136775739558426e-05,0.10014048,0.31569561,9.784101600000001,0.005028,0.000223,0.004133,0.05489160487720547
1757946885.592957,-0.8026817057574751,1.2769718683633078,2.1547267725400836,-0.5527350387930685,0.75808489843196,-2.377228959191069,0.6216671355062442,-1.5195328250890705e-05,0.09909081000000002,0.30895614000000005,9.787849020000001,0.000885,0.001229,0.003507,0.055512899833180085
1757946885.613385,-0.8010960743570401,1.2747749342191859,2.154689219094813,-0.5506815739568632,0.758402651554961,-2.377269326989219,0.6223476348414083,-1.5092913197900373e-05,0.09056592000000001,0.31928607000000003,9.7607538,0.003071,-0.000657,0.003768,0.054763547879611005
1757946885.6335363,-0.8015777435120026,1.2754875343239083,2.154706832133513,-0.5508507227400116,0.7583730612824279,-2.377308650772051,0.6230347214261895,-1.5017528342390641e-05,0.08846658,0.31644117000000005,9.779314320000001,0.005062,0.000381,0.005759,0.05482568416998798
1757946885.6535764,-0.8021211191379515,1.276299111504382,2.1546852458131625,-0.5511199912141489,0.7581916733851978,-2.3773470626005446,0.6237303897111932,-1.4973073315430513e-05,0.09879651,0.30761217,9.803711790000001,0.001217,0.00018,0.003519,0.05488802497964932
1757946885.6743796,-0.8025639003762635,1.2769642499388432,2.154658547910439,-0.551057329850272,0.758073675518458,-2.3773857160708,0.6244272050146632,-1.4938614988998269e-05,0.09894366,0.31703958,9.76659075,0.003525,-0.00091,0.003193,0.05489939230594373
1757946885.6946304,-0.8030919572828659,1.2777461988982781,2.154644242739188,-0.5509811887961175,0.7581647250595088,-2.3774232377304645,0.6251237208053209,-1.4909234631905018e-05,0.08772102000000001,0.32213097,9.77826465,0.002967,0.000419,0.003727,0.05493265438953132
1757946885.7152011,-0.8033817988568694,1.278202056304723,2.154622448649137,-0.5510880968848255,0.7582467764213523,-2.37745977298093,0.6258187696891488,-1.488074484868188e-05,0.08891784,0.29952873,9.78634809,0.001074,-0.002542,0.003408,0.05488514651297609
1757946885.7354941,-0.8039344929372279,1.2790183127774402,2.1546325502057773,-0.5510215408355612,0.7583813074231532,-2.3774948046493143,0.626513235037554,-1.4854862414136106e-05,0.08442486000000002,0.32198382,9.77077962,0.00521,-0.001263,0.004902,0.054926029999478765
1757946885.7556129,-0.8045178429728852,1.279896973691149,2.1546155180756745,-0.5512661410454642,0.758265264894702,-2.3775283689253994,0.6272132041263165,-1.48471496259355e-05,0.09744273000000002,0.30297204000000005,9.77452704,0.002816,0.000643,0.003382,0.054968972071220444
1757946885.776562,-0.8048063240577106,1.280343488048515,2.154608017931647,-0.5510070850881048,0.7584482630284616,-2.3775616982265286,0.6279052095976404,-1.4821966830014141e-05,0.0836793,0.31674527999999996,9.7695828,0.004062,-0.002077,0.004094,0.054907718623878055
1757946885.7977567,-0.8054506803207202,1.2813054670327848,2.154575036177423,-0.5510213293899963,0.758136982694476,-2.377595207387666,0.6286025721431923,-1.4815998351799859e-05,0.10762551000000001,0.31718673000000003,9.780815250000002,0.005147,0.000689,0.002541,0.05497007655455338
1757946885.8183975,-0.8059708289162729,1.2820998547567963,2.154593645866277,-0.5511521493137296,0.7579516722143381,-2.377628239845897,0.6293027118737883,-1.4817526605063591e-05,0.10358379000000001,0.30252078000000004,9.787849020000001,0.001062,-6e-06,0.005078,0.05498228105605671
1757946885.8445408,-0.806379242769486,1.2827712622923322,2.1545782843087267,-0.5503893849978423,0.7580826775530434,-2.3776941325611367,0.6306878502522578,-1.4785639964100637e-05,0.09071307,0.31689243,9.7692885,0.002865,0.000913,0.003975,0.05477952873876624
1757946885.8652034,-0.8065676796912774,1.2830712558507313,2.1545573863951724,-0.5502046882390537,0.7579802883469955,-2.377730694893258,0.6313644957470124,-1.4736322064807006e-05,0.09879651,0.31464594,9.77751909,-5.4e-05,-0.001225,0.003677,0.05472610743941245
1757946885.8859003,-0.8073246173329597,1.2841924367022721,2.154509541298756,-0.5505954693575328,0.7576100005954832,-2.3777660298787424,0.6320555323722855,-1.4732339983739894e-05,0.11106882000000001,0.30611124,9.779010210000001,0.004083,-0.002315,0.001797,0.054860923848337066
1757946885.9062083,-0.8073651196063572,1.2842724271545214,2.154501366477195,-0.5500258468214496,0.7579408065392691,-2.3778022751583245,0.63273131037672,-1.4692249199803612e-05,0.07978473,0.32617269000000004,9.75865446,0.002878,-1.8e-05,0.004251,0.054736354113725114
1757946885.926268,-0.807783400621011,1.2848949973093973,2.154484972155175,-0.5499688281354945,0.7579738305577477,-2.3778378976276486,0.6334072175278422,-1.4658723826633963e-05,0.09116433,0.31928607000000003,9.76164651,0.002318,0.000492,0.003646,0.05475640369994096
1757946885.9467793,-0.8084069820023938,1.2858270169559618,2.1545077785943594,-0.5504127225076321,0.757898671964667,-2.3778709732723753,0.6340921455646105,-1.4650938083079598e-05,0.09595161,0.29818476,9.78275763,0.00404,0.000754,0.005311,0.05483807795542693
1757946885.9676485,-0.8087475908126167,1.286348478999263,2.1545055737610586,-0.5502861705441509,0.7579418397519958,-2.377903813265255,0.6347733448621043,-1.463581735449766e-05,0.09295956000000001,0.31239945,9.76628664,0.001806,0.001459,0.004245,0.054809460845041985
1757946885.9877605,-0.8096688702336673,1.2877057493710982,2.1545015264712752,-0.5506496308704988,0.7578057446716808,-2.3779336384520815,0.6354662591868482,-1.465424518372313e-05,0.09894366,0.31015296,9.7695828,0.005117,-0.000961,0.003665,0.05497087575650518
1757946886.007798,-0.8094747925915238,1.2874666441233946,2.154481949669231,-0.549924690618876,0.7579564540741252,-2.3779665758218447,0.6361387300839091,-1.462043051642803e-05,0.09100737,0.3179421,9.76240188,0.005117,-0.000961,0.003665,0.0547448975689796
1757946886.029268,-0.8122901410500768,1.2915415603286196,2.1545022947325716,-0.5518820286127492,0.7579393154758365,-2.3779836697511225,0.6368673918611808,-1.4737944290412175e-05,0.08292393,0.30730806,9.79383312,0.001887,0.000431,0.003423,0.05552387688552238
1757946886.0498724,-0.8101008994197609,1.2884883579633364,2.1544634799819837,-0.5493300545222812,0.7583451603671675,-2.378016139783511,0.637518156762643,-1.4642341436552325e-05,0.08846658,0.31390038,9.79353882,0.005025,-0.000367,0.003782,0.054557663781841154
1757946886.0708272,-0.8104322002972045,1.2889799865362057,2.154442610351616,-0.5494014022843922,0.7583611499920819,-2.3780479802669365,0.6381731038362349,-1.4569824124101106e-05,0.08562168,0.31614687,9.799375770000001,0.002524,4.9e-05,0.003778,0.05459528042762052
1757946886.0916455,-0.810617858146712,1.2892633002314835,2.1544368624243306,-0.5493207994067368,0.7584141510901308,-2.3780799874544405,0.6388267321864085,-1.450259992751414e-05,0.08562168,0.31584276000000006,9.79069392,0.003297,0.000591,0.004578,0.05457161123902449
1757946886.112509,-0.8114002078376621,1.290406926349546,2.1544226797778325,-0.5496994018181508,0.7582165376712735,-2.378109806585258,0.6394938819037881,-1.4478910334641598e-05,0.09700128,0.31419468,9.77766624,0.005465,-0.001819,0.003586,0.054736861990867566
1757946886.1333675,-0.8116996892079037,1.2908656104085048,2.1544192966122413,-0.549739430992282,0.7583772571461938,-2.3781383162448257,0.6401588083240133,-1.4452894043195911e-05,0.08248248000000001,0.30596409,9.78605379,0.001363,0.001652,0.004286,0.054713368297789416
1757946886.1541748,-0.81181907503168,1.291062685916354,2.1544197933222833,-0.5494272118440954,0.7583149008725626,-2.3781685310027516,0.640816963914406,-1.441282973686931e-05,0.0953532,0.31734369000000007,9.78859458,0.004215,-0.000484,0.0047,0.05463391360855033
1757946886.1744194,-0.8122331985237211,1.2916777154650556,2.1543944515693774,-0.5494023890811179,0.75828081525395,-2.378198275157169,0.6414764742839272,-1.438284643990816e-05,0.09190989000000001,0.31734369000000007,9.77452704,0.002668,-0.000332,0.003204,0.054663245221407954
1757946886.1947753,-0.8133385074350405,1.2932959291165018,2.154415041598382,-0.5499409443231422,0.7579533465434458,-2.3782247598490285,0.6421542531627292,-1.4403539862161811e-05,0.10463346000000001,0.3122523,9.78201207,0.001843,0.000781,0.004767,0.0549040488503756
1757946886.2149363,-0.8126561191303772,1.292363954892752,2.1544016345096537,-0.5490310504540854,0.7578801087534657,-2.3782577273511,0.6428054022563775,-1.4353282200043394e-05,0.10552617,0.30641535000000003,9.78185511,0.004873,-0.001421,0.004394,0.05452835911601127
1757946886.2354567,-0.8131489121155387,1.2930812225135533,2.1543980862400467,-0.548981841121116,0.7579127030817336,-2.378289724959403,0.6434591615631456,-1.4316934418667777e-05,0.0896634,0.32542713,9.77018121,0.001269,0.000473,0.004354,0.054602377350056436
1757946886.2565937,-0.813362331478476,1.2934021016759083,2.154389572829495,-0.5485588437967833,0.7577820405961355,-2.3783237887601323,0.6441074976955335,-1.4271805239484978e-05,0.10088604,0.33246090000000006,9.77871591,0.002396,-0.001506,0.004284,0.054566765913932634
1757946886.2771437,-0.8139045088778671,1.2942040479622985,2.1543585770275318,-0.5490416420044189,0.758044746267155,-2.3783535708502743,0.6447629262896161,-1.4251968069490043e-05,0.07693983,0.29982303,9.78919299,0.004784,-4e-05,0.002826,0.054647996158057835
1757946886.3042657,-0.8141540908475788,1.2946059687919043,2.154326888969649,-0.5485685846735607,0.7582252582553265,-2.3784144956733937,0.6460576743363003,-1.4180939930707897e-05,0.08128566000000001,0.31689243,9.7582032,0.004478,-0.000509,0.003008,0.054504915026033024
1757946886.3246439,-0.8145803081706521,1.295234984027115,2.1543065299122075,-0.5485859313786408,0.7580820965188264,-2.3784451480168767,0.6467033138249062,-1.4150302799040079e-05,0.09789399,0.31943322,9.76584519,0.005686,-0.001156,0.003467,0.05455326998954187
1757946886.3456316,-0.8154510052411468,1.2965080008799275,2.154335760843283,-0.5490921054926146,0.7581248497246904,-2.3784714835828042,0.6473610467750858,-1.415402908674563e-05,0.0868185,0.3097017,9.77512545,0.00197,-5e-05,0.005421,0.05473291846139271
1757946886.3666208,-0.8150831459598389,1.2960085981223957,2.1543083029607786,-0.5484888326411814,0.7583857008681949,-2.378500320580683,0.6479987950796466,-1.4106878927480337e-05,0.08083440000000001,0.31180104000000003,9.77317326,0.004583,-0.002023,0.003479,0.05448121266298797
1757946886.3871453,-0.8156493321130455,1.296835620108352,2.154274618261356,-0.548691127120544,0.7584861373506367,-2.3785266025646434,0.6486423682060435,-1.4083020492714326e-05,0.08248248000000001,0.31614687,9.767493270000001,0.00156,-0.000633,0.002707,0.05457825440249634
1757946886.4071827,-0.8160603550342191,1.2974484105585165,2.154293676372591,-0.5486956488517112,0.7584508148849756,-2.378552234657631,0.6492865735117177,-1.406314815034909e-05,0.09100737,0.31584276000000006,9.78141366,0.002028,0.00041,0.005327,0.054602964820868835
1757946886.4306905,-0.8190375946769871,1.301762983993021,2.154309797999826,-0.5506488555072339,0.7582056224008025,-2.378562642025462,0.649988598364948,-1.4201236800797173e-05,0.09116433,0.31210515000000005,9.763294590000001,0.004988,-0.0006,0.00311,0.05543716000784352
1757946886.4515808,-0.8158669949261859,1.2972985611881016,2.154269859936231,-0.5473329841411031,0.7585471379395641,-2.3785944919191877,0.6505941255094861,-1.4068608665391863e-05,0.09504909,0.31913892,9.78589683,-0.000277,0.001381,0.004708,0.05415304752898488
1757946886.4718359,-0.8162327942040206,1.2978196109378477,2.1542478716724824,-0.5474455081984134,0.7583659480398873,-2.378626386154687,0.6512092391675169,-1.3977273918936899e-05,0.09265545000000001,0.32782077000000004,9.75716334,0.004723,-0.000461,0.00396,0.0542614013288345
1757946886.4926617,-0.816373295111912,1.2980295771545696,2.154238029785363,-0.5476412920128326,0.7583351522898397,-2.3786579202710096,0.6518285726740327,-1.3907196123099705e-05,0.08861373,0.30806343,9.79787484,0.004293,0.00032,0.004498,0.05426848059640306
1757946886.5132387,-0.8164820972455473,1.2981896811330558,2.1542397496149164,-0.5475108110297852,0.7581368439659848,-2.378691133412897,0.6524481884235593,-1.3845546962801517e-05,0.10059174,0.32153256,9.795334050000001,8e-06,0.000854,0.005065,0.05425391206081078
1757946886.5334456,-0.8199754845846828,1.3032254595136579,2.154267445490027,-0.5497530374471402,0.7577177562995709,-2.3787077228494566,0.6531390903208765,-1.3981717829836078e-05,0.09759969,0.32586858,9.768533130000002,0.005377,-0.000451,0.003537,0.05531226979333696
1757946886.5543334,-0.8168803661722819,1.2988603656941737,2.1542187619557307,-0.546773694171572,0.7582405574268656,-2.3787429843817467,0.6537382273729955,-1.3859269275636288e-05,0.08337519,0.30491442,9.77721498,0.003557,0.000714,0.003991,0.05406510462090698
1757946886.5751963,-0.8175598221872993,1.2998356642463524,2.154190554700371,-0.5473317019079462,0.7580363812137111,-2.378775785955843,0.6543559144876923,-1.3801125619314215e-05,0.09520605,0.31703958,9.779167170000001,0.004114,0.001161,0.003319,0.05428037905148664
1757946886.5955746,-0.8179643215847863,1.300420662958834,2.1541893781764667,-0.5473640522311433,0.7579398645423269,-2.378808173051107,0.6549779848957078,-1.376209484714283e-05,0.0953532,0.32452461,9.78215922,0.004252,-0.001826,0.004565,0.05435303834964415
1757946886.6157424,-0.8183220272955705,1.3009475475565735,2.1541900583875426,-0.5475248875535558,0.7579501457608072,-2.378839252184871,0.6556033087646774,-1.3736596427158941e-05,0.09100737,0.31270356000000005,9.787544910000001,0.004252,-0.001826,0.004565,0.05439393282698978
1757946886.6360009,-0.8186550979231975,1.301444788874297,2.1541764920170055,-0.5476526447504321,0.7578806028580035,-2.378869577234432,0.6562313061853466,-1.3722466510302053e-05,0.09640287000000002,0.30985866000000006,9.774968490000001,0.003383,-0.000933,0.003768,0.054416417395730055
1757946886.65764,-0.818703172567313,1.301522067801162,2.1541774455360514,-0.5472234935733892,0.7579125386972155,-2.3789014807065967,0.6568505881840718,-1.3688030461586424e-05,0.08726976,0.31763799,9.78934014,0.000264,-0.001311,0.003476,0.054339420982935746
1757946886.6840012,-0.8187383619353162,1.3015909068771134,2.1541394866293126,-0.547074264033107,0.7579479846403925,-2.378967497840089,0.6580749189196095,-1.359902307814159e-05,0.09669717,0.30895614000000005,9.787250610000001,0.003662,-0.001058,0.004284,0.05422110428218299
1757946886.7044203,-0.8187383619353162,1.3015909068771134,2.1541394866293126,-0.547074264033107,0.7579479846403925,-2.378967497840089,0.6580749189196095,-1.359902307814159e-05,0.09669717,0.30895614000000005,9.787250610000001,0.003662,-0.001058,0.004284,0.05422110428218299
1757946886.730295,-0.8219546317897217,1.306552772149187,2.154231021236841,-0.5472996086931445,0.7582043081377945,-2.3789751351707036,0.6594905186174246,-1.3986266120460923e-05,0.09550035000000001,0.3210813,9.78245352,0.001923,-0.000681,0.004083,0.054590525402957404
1757946886.7509074,-0.8190882153638928,1.302463222219686,2.1541655667747506,-0.5449442022965676,0.7584127356705282,-2.379015457486924,0.6600422897526118,-1.374342942313542e-05,0.08217837000000001,0.31854051,9.796678020000002,0.005512,-0.00098,0.004193,0.05359042183333403
1757946886.7713056,-0.8194660383715902,1.302988246941684,2.15412472857005,-0.545702179185605,0.7580148652078729,-2.3790548529499675,0.660619367101167,-1.3596301960565772e-05,0.09805095000000001,0.31390038,9.77317326,0.001374,0.001647,0.003616,0.053821532380201036
1757946886.7920887,-0.8196000538336901,1.3031627509845705,2.154088593339024,-0.5460865450310601,0.7581002118480383,-2.379092756914652,0.6612064651311913,-1.3494702227132383e-05,0.08053028999999999,0.31180104000000003,9.7929306,0.002451,-0.00227,0.003555,0.053908195740566635
1757946886.8126245,-0.8201009096581188,1.3038775633597044,2.1540272817171235,-0.5467773710408631,0.7580376301702624,-2.379127577427703,0.6618104899881472,-1.345355092188273e-05,0.09056592000000001,0.30177522,9.768385980000001,0.004607,-0.000549,0.00169,0.05408252983719003
1757946886.8331842,-0.8200497599992118,1.3037953414570616,2.1540052410254997,-0.5465720365985175,0.7580985861211383,-2.3791633934286818,0.6624103879421674,-1.3408846524131117e-05,0.09011466,0.31913892,9.77871591,0.003166,-0.000546,0.00379,0.054033221229052054
1757946886.8541389,-0.8201235395260791,1.3038977100927005,2.153995588553725,-0.5466917279476117,0.7581166056414252,-2.3791988784933964,0.6630118648128647,-1.3374889139754447e-05,0.09190989000000001,0.30716091,9.79742358,0.005108,-0.000657,0.004296,0.054030557016661346
1757946886.8748024,-0.8202056588486174,1.3040061483545655,2.153949847882651,-0.5467221608638088,0.7583424759033474,-2.379233197411843,0.6636123222878687,-1.3346135607569033e-05,0.0811287,0.31194819,9.780815250000002,0.003882,-0.000755,0.00238,0.05402594601610867
1757946886.8956866,-0.8208034239572735,1.304859773405155,2.153960483152474,-0.5469052170157198,0.7581437548091163,-2.379266302465075,0.6642218827847188,-1.334644257849512e-05,0.10223982000000001,0.32242527000000004,9.78215922,0.002258,-0.000522,0.004763,0.05417918113998288
1757946886.9161358,-0.8221683828763525,1.3068307838108653,2.1539762504942113,-0.5477550577215554,0.7581724149307766,-2.379292195873456,0.6648535607784272,-1.3408596110115952e-05,0.08921214,0.31239945,9.77646942,0.00351,0.000472,0.004176,0.05454482051388617
1757946886.9376447,-0.8210233811438077,1.3052182918685584,2.153943102669251,-0.5466336073215778,0.7582243269198466,-2.379325533013584,0.6654512373495056,-1.3374117897240779e-05,0.10119015,0.30206952000000004,9.780511140000002,0.002328,0.00126,0.003331,0.054038124541388344
1757946886.9594438,-0.8211860209326018,1.305446812086071,2.1539616301351527,-0.5466568200226453,0.7583912295324893,-2.3793577318954604,0.666048735325183,-1.3343811262333425e-05,0.08352234000000001,0.31479309,9.77092677,0.003796,-0.000582,0.005586,0.05405406233874032
1757946886.980039,-0.8226664001680561,1.307579652630943,2.1539803933813104,-0.5476050972925133,0.7583211830072224,-2.3793825500513957,0.6666732392755186,-1.3391744526897763e-05,0.09131148000000001,0.3150972,9.79443153,0.004535,2.6e-05,0.004391,0.05448164252317709
1757946887.0043478,-0.8214965752938673,1.305962971058509,2.153985718069178,-0.5456328319183379,0.7584087610487772,-2.3794398182966665,0.6678800972266216,-1.3359017158689978e-05,0.08547453,0.31479309,9.77751909,0.005399,-0.000414,0.005437,0.053802523127759336
1757946887.024533,-0.8217648432397952,1.3063368646496252,2.153955635631199,-0.5460030660774733,0.7584450848741771,-2.379473137247712,0.6684621984830996,-1.329437131761217e-05,0.08532738,0.31150674,9.79084107,0.003346,0.000393,0.003439,0.05390388814112934
1757946887.0446453,-0.8219856302158749,1.3066473490927506,2.1539522406924014,-0.5462096656328714,0.7584518061988492,-2.3795053273992193,0.6690495156723015,-1.3251785244446553e-05,0.0896634,0.31180104000000003,9.787397760000001,0.001626,-4.8e-05,0.004607,0.05395915044500184
1757946887.0649476,-0.8222113856490013,1.306969566487725,2.1539311325313637,-0.5463524906839925,0.758405454383336,-2.379536785513782,0.6696407324784532,-1.322641773721782e-05,0.09430353000000001,0.31105548,9.77781339,0.004596,-0.001803,0.003565,0.05399817292797397
1757946887.0857642,-0.8223318928178557,1.3071382378103669,2.153906476568877,-0.5462536451194091,0.7584171766320555,-2.379568336696158,0.6702306173948401,-1.3202812530907754e-05,0.09295956000000001,0.31778514,9.783208890000001,0.002665,0.001371,0.003382,0.05399031915431897
1757946887.1065753,-0.8224175935054486,1.3072531284622315,2.153917545271411,-0.5462299393345428,0.7587329471947075,-2.3795983497322912,0.6708168734385263,-1.3172564637959767e-05,0.07559586,0.31434183000000004,9.7692885,0.002516,0.000916,0.00526,0.05397155073001483
1757946887.1276233,-0.822578778360034,1.3074817396002176,2.1539198662343964,-0.5461350359131412,0.7585908690640281,-2.3796290538621143,0.6714031395137764,-1.3146315969545026e-05,0.09968922,0.31988447999999997,9.780962400000002,0.005358,-0.000233,0.004768,0.053975212675568734
1757946887.1483586,-0.8236831953758481,1.3090665171737783,2.1539174415442295,-0.5465845031663514,0.7584901890049738,-2.379655391805954,0.6720056898822656,-1.3169644793123587e-05,0.09460764,0.32736951,9.76240188,0.0017,0.000397,0.003761,0.05427514169896211
1757946887.1687489,-0.8229396478920694,1.3080017689007835,2.1538943430890285,-0.545558851316973,0.7587361136567753,-2.379686450357672,0.6725808588272016,-1.3117390639675253e-05,0.0836793,0.32811507,9.78529842,0.005328,-0.001622,0.003954,0.05392442985662761
1757946887.1888373,-0.8231541812016032,1.3083078907170942,2.1538687317221523,-0.5455592282634056,0.7585511792417446,-2.3797179193157127,0.6731589435002261,-1.3080417475908798e-05,0.10014048,0.32213097,9.79009551,0.003551,-0.000373,0.0034,0.05395245314416991
1757946887.2088866,-0.8233566035218719,1.3085976925490965,2.153870118979528,-0.5456237530529261,0.7585601171800442,-2.379748669535483,0.6737381902303866,-1.3050944928233765e-05,0.09100737,0.31703958,9.784101600000001,0.001097,0.000645,0.004695,0.05396846753550764
1757946887.2290602,-0.8258689129756633,1.3122390537839397,2.1539019744228476,-0.5475581930814153,0.7582889256457999,-2.3797663637784288,0.6743680620896857,-1.3164762615355703e-05,0.09744273000000002,0.30462012,9.78904584,0.004622,-0.000965,0.004123,0.05471671166363731
1757946887.2493358,-0.8236546945135303,1.309104181946229,2.153852061693165,-0.5453833264198457,0.7584162016578581,-2.379798092239583,0.6749365062869457,-1.3098193772429165e-05,0.10343664,0.30850488,9.78245352,0.003434,-0.001376,0.002951,0.05380639656361169
1757946887.2700522,-0.8237008546688734,1.3091675314200109,2.153842914728304,-0.545383101092674,0.7581723558872733,-2.3798311418938067,0.6755082720400809,-1.3049335080729502e-05,0.10508471999999999,0.3153915,9.77302611,0.001211,-0.000792,0.00441,0.05380829095680398
1757946887.2908075,-0.8237314829081582,1.3091969787296989,2.153788795791872,-0.5452696442166072,0.7583550091104928,-2.3798638030372588,0.6760783033101005,-1.300556971684358e-05,0.0836793,0.32167971,9.77677353,0.005535,-0.000277,0.002058,0.05379799694053748
1757946887.3112671,-0.8235705301544959,1.308954535678298,2.153759496600914,-0.5450903633612476,0.7584000437940935,-2.379897559096103,0.6766442005160627,-1.2957584286095128e-05,0.09176274,0.31703958,9.771829290000001,0.00212,3.8e-05,0.003406,0.053722775401211884
1757946887.3319678,-0.8252504278050369,1.3113794110411894,2.1537980341525067,-0.5465479384456339,0.7582147363632895,-2.3799223747236193,0.6772465863891839,-1.301503828672713e-05,0.09729558,0.30221667,9.78245352,0.002004,0.000641,0.005117,0.0542481431076238
1757946887.3525026,-0.8245367899358002,1.3103649784320077,2.153802076757753,-0.5455107995287607,0.75835353420845,-2.3799523471784507,0.6778216840700076,-1.299183859364814e-05,0.09445068,0.32227812,9.76060665,0.006382,0.001314,0.005133,0.05389571192484531
1757946887.3725564,-0.824219384150136,1.3099057999826884,2.1537770545543733,-0.5451317130103039,0.7583567888274382,-2.3799847132240703,0.6783876007576662,-1.2948004993002836e-05,0.09609875999999999,0.31598991,9.780815250000002,0.00318,-0.000322,0.003647,0.0537454259028015
1757946887.3925815,-0.8281150603412807,1.315533173336351,2.1538254902508536,-0.5480253796726876,0.7583152225751157,-2.3799954398627623,0.6790305229442157,-1.3125470207723635e-05,0.08532738,0.30955455000000004,9.79727643,0.003847,0.000878,0.003929,0.0549680295305649
1757946887.4134083,-0.8247399513909774,1.3107422689068402,2.1537753146523126,-0.544642860599274,0.7587768476540232,-2.38002654456204,0.6795791623391493,-1.3021285252291378e-05,0.08636724,0.32258223,9.784248750000001,0.002808,0.000552,0.003702,0.053624381815857984
1757946887.4345593,-0.824799665976232,1.3108196081553352,2.153759141179508,-0.544910680506973,0.7586840169450744,-2.3800573570116637,0.6801349357072306,-1.294958645746018e-05,0.09236115,0.30790647,9.771682140000001,0.002927,-7.8e-05,0.004204,0.05366204272624165
1757946887.454641,-0.8245642215232318,1.3104632645190701,2.1537455376908836,-0.5447572683508529,0.758799359210954,-2.3800891232018673,0.6806869607801506,-1.2876969407047587e-05,0.08442486000000002,0.31614687,9.78529842,0.0048,-0.000756,0.00449,0.05358660948289119
1757946887.475218,-0.8249497657485246,1.3110031514964524,2.1537424794559596,-0.5450800176874474,0.7587026146303174,-2.380119369873264,0.6812487908505509,-1.2840378062676621e-05,0.09460764,0.31524435,9.78245352,0.0048,-0.000756,0.00449,0.05371698518160783
1757946887.4965813,-0.8249908992387778,1.3110556111164822,2.1537734490475184,-0.5452595017488459,0.7588114944556649,-2.3801485787447674,0.6818113031000264,-1.2808453452033894e-05,0.08667135000000001,0.30326634,9.77797035,0.0016,0.001366,0.00634,0.05370600334446036
1757946887.5175009,-0.8250995176565487,1.3112033995458494,2.1537692913894944,-0.545379696660102,0.758886186129348,-2.3801768465227284,0.6823749546457104,-1.2784268452117506e-05,0.09655002,0.31344912,9.78170796,0.001224,-0.001005,0.002597,0.05371398383923161
1757946887.538503,-0.8251895509454622,1.3113246493884871,2.153729105943828,-0.5453357341466022,0.7588350004799359,-2.380205331424107,0.6829386146976594,-1.2766096664354185e-05,0.09655002,0.31344912,9.78170796,0.001224,-0.001005,0.002597,0.053709294940480934
1757946887.5637593,-0.825281136445168,1.3114570287143283,2.153713529025884,-0.5445072627250832,0.7591325400100277,-2.3802557484062357,0.684072837354089,-1.2753493642905867e-05,0.08397360000000001,0.31943322,9.79338186,0.004999,0.001137,0.004093,0.05356182162091303
1757946887.5848148,-0.8253367510598807,1.3115229708844613,2.1537215847268554,-0.5446422233995465,0.7591221102281153,-2.380285109634905,0.6846206555656227,-1.2698157532553767e-05,0.0896634,0.31299785999999996,9.79189074,0.001407,-0.001295,0.005363,0.05357841186021493
1757946887.6050665,-0.8256080710578457,1.3118996448322073,2.153742632231501,-0.5446642574716428,0.7588633595601163,-2.3803149621653854,0.6851733626109523,-1.2661831982810329e-05,0.10448631000000001,0.32452461,9.77960862,0.00398,-0.000266,0.005782,0.05365100875637421
1757946887.6253538,-0.8259349725184145,1.3123629195062194,2.153721525167988,-0.5448378166209518,0.7587940506691988,-2.3803436568286,0.6857310817623414,-1.2645204553073195e-05,0.09624591,0.31569561,9.78185511,0.002137,0.001003,0.003494,0.05372363884175044
1757946887.6458318,-0.8257305242573921,1.312058244105546,2.153716644447063,-0.544526925350349,0.7589176289597281,-2.380373479585775,0.6862802056240236,-1.2607197813360293e-05,0.08831943,0.31913892,9.771525180000001,0.002174,0.000404,0.004687,0.05360870288008264
1757946887.6659045,-0.8259131946158264,1.3123001663538247,2.1537112627823616,-0.5443211936370271,0.7589666446032692,-2.3804032701367155,0.6868276532578497,-1.2569991697153203e-05,0.08996751000000001,0.33380487000000003,9.76164651,0.003809,-0.002725,0.004503,0.053636570237455564
1757946887.686778,-0.8259519039828962,1.3123468036611003,2.1536983276408748,-0.5443503140701414,0.7590272086211786,-2.380432626161081,0.6873741283586445,-1.2534767060926294e-05,0.08921214,0.31479309,9.77302611,0.001519,0.000762,0.00416,0.053612523008352696
1757946887.7077773,-0.8260540438012661,1.312490033471326,2.1536556083044482,-0.5445921247499886,0.7590878563535175,-2.38046064321751,0.6879231204148265,-1.2512750217887818e-05,0.08906499000000001,0.30416886,9.767787570000001,0.004371,0.000971,0.002507,0.05361271992488785
1757946887.7285378,-0.8276659053411661,1.3148077846757353,2.1536596324541843,-0.5455576615521857,0.7591079296134341,-2.3804804710188257,0.6884983337932989,-1.2569456428895287e-05,0.08786817,0.32122845000000005,9.77677353,0.004569,-9.2e-05,0.003652,0.054089502960937536
1757946887.7490356,-0.826388942512029,1.3129837411540284,2.1536274901732417,-0.5442902723582508,0.7592524877618052,-2.3805077845818343,0.6890384176633512,-1.2522322856771023e-05,0.09176274,0.31390038,9.771829290000001,0.000661,0.000208,0.003589,0.05354752725919816
1757946887.7691774,-0.8276901895305191,1.3148487969909035,2.153612573119327,-0.5450854187838675,0.7593597716482142,-2.3805280913260405,0.6896001059809452,-1.254441667173573e-05,0.08157996,0.32287653,9.77781339,0.004998,-0.000506,0.003121,0.05394344802833233
1757946887.7895708,-0.8276901895305191,1.3148487969909035,2.153612573119327,-0.5450854187838675,0.7593597716482142,-2.3805280913260405,0.6896001059809452,-1.254441667173573e-05,0.08157996,0.32287653,9.77781339,0.004998,-0.000506,0.003121,0.05394344802833233
1757946887.8132074,-0.8414287870682667,1.334866166246942,2.1537670017379273,-0.5538087632428386,0.7585735003805281,-2.3804752868576413,0.6904318236495134,-1.336468940757418e-05,0.09460764,0.32377905,9.79009551,0.004014,8.5e-05,0.00226,0.05816252203356513
1757946887.8336053,-0.8297598770926888,1.318559640469849,2.153673466380555,-0.5418158022034895,0.7593497272319144,-2.3804990573931004,0.6915163351676513,-1.3090771009991486e-05,0.09445068,0.31150674,9.767934720000001,0.005497,-0.000829,0.004848,0.0532324503262887
1757946887.854455,-0.8258140992671846,1.3128364514962303,2.153572908515436,-0.5394593007877417,0.7588886037848871,-2.380551601087146,0.6919505653466469,-1.268894105272415e-05,0.11226564,0.31868766000000004,9.7926363,0.002271,0.000118,0.004253,0.05209943220485095
1757946887.8750007,-0.8261547363115669,1.3132526905562394,2.153529534788352,-0.5406631805982601,0.7584426029565614,-2.3806027435744253,0.6924218955996986,-1.2434683381579676e-05,0.09176274,0.32887044,9.767493270000001,0.003355,0.000656,0.004507,0.052552825401077786
1757946887.8961668,-0.8261389810407201,1.313166966053138,2.1534922694162084,-0.5414428085353405,0.7583305635774478,-2.380652837680842,0.6929136844896935,-1.2266720799177909e-05,0.08726976,0.3153915,9.7812567,0.004976,0.000727,0.004257,0.05276374483090783
1757946887.9171872,-0.8265033725215648,1.3136377190799584,2.153453811990075,-0.5421641764011054,0.7581918215349578,-2.3807008518556527,0.6934254569824945,-1.2175545485171723e-05,0.09624591,0.32302368,9.783807300000001,0.002966,-0.000907,0.003742,0.05302866379517597
1757946887.9433475,-0.8262858511491463,1.3132285275191624,2.1534076882159,-0.542402865497452,0.7583511887552944,-2.3807969507791866,0.6944582281794122,-1.2053575213663648e-05,0.08741691000000001,0.32033574000000004,9.791135370000001,0.002405,-0.000652,0.00435,0.053094545919364924
1757946887.964156,-0.8262509332842459,1.3131399197386553,2.1533722998519567,-0.5425740866854915,0.7582915814277332,-2.38084455038761,0.6949793220380936,-1.201919784832444e-05,0.10164141000000002,0.31703958,9.787849020000001,0.001653,-0.000227,0.003127,0.05312841917255443
1757946887.9850252,-0.8273838538998133,1.314747997056011,2.1533816078513253,-0.5438327197408531,0.7585791768282723,-2.3808835201192666,0.6955245934473192,-1.2058775426769184e-05,0.08143281,0.30221667,9.79697232,0.004786,-0.001904,0.004267,0.05352716785082314
1757946888.005162,-0.82647961578538,1.3134205820504028,2.153348684784951,-0.5429060412254785,0.7588005278167174,-2.3809269207540837,0.6960457213338884,-1.2029082785630848e-05,0.09220419,0.32586858,9.767787570000001,0.003382,8e-05,0.003357,0.05318315405031563
1757946888.0255897,-0.82647961578538,1.3134205820504028,2.153348684784951,-0.5429060412254785,0.7588005278167174,-2.3809269207540837,0.6960457213338884,-1.2029082785630848e-05,0.09220419,0.32586858,9.767787570000001,0.003382,8e-05,0.003357,0.05318315405031563
1757946888.0465794,-0.8282975379760757,1.31623527547122,2.1533967303569614,-0.5428352709404565,0.7591416699567537,-2.3809704488548897,0.697217176968071,-1.2309989134690702e-05,0.09640287000000002,0.32138541,9.79428438,0.004145,-0.002711,0.003124,0.053335473623156986
1757946888.0668366,-0.8268758264073168,1.3141564247156066,2.1533686149793283,-0.5418092313633566,0.7592057075732704,-2.3810156165554934,0.6977071325774946,-1.2166420151631143e-05,0.08846658,0.32796792,9.77797035,0.002902,0.000806,0.004845,0.05290021742436392
1757946888.0875113,-0.8273148751828506,1.3147512879019652,2.1533780085839815,-0.5424539113936867,0.7591377123439959,-2.3810579532552536,0.6982145205090038,-1.2089038503492526e-05,0.08981055,0.32122845000000005,9.77856876,0.004818,0.000107,0.005446,0.053140727492345635
1757946888.1076913,-0.8269682486011792,1.3142165807180413,2.1533459845639493,-0.5423316878791529,0.7591715177505534,-2.3811015257295987,0.6987194600198551,-1.2016109335379846e-05,0.09086022,0.32153256,9.77976558,0.004506,-0.000771,0.003638,0.05306473432963262
1757946888.1283197,-0.8268804720706543,1.3140589546305255,2.153339459642778,-0.5425622124472609,0.7591128013285238,-2.3811448822748886,0.6992288430662773,-1.1964845899632296e-05,0.09640287000000002,0.31194819,9.80640954,0.001594,-0.001397,0.004708,0.053079273459598314
1757946888.1490765,-0.8284754362139437,1.3163417667671533,2.153323369669131,-0.5437672050442236,0.758843652997005,-2.381180914814614,0.6997709810529363,-1.201650984058034e-05,0.10463346000000001,0.31883481,9.78156081,0.004654,0.000461,0.002857,0.053619896040482604
1757946888.1698418,-0.8273411573390065,1.3147018062762974,2.153316667799812,-0.5429300032189139,0.7590707776270962,-2.3812217355919283,0.7002866082852952,-1.1987538175591714e-05,0.09100737,0.30476727000000003,9.7812567,0.003289,0.001449,0.004873,0.05317440789954819
1757946888.190736,-0.8273499430380529,1.3146899825778546,2.1533296166147258,-0.5431506106911133,0.7592365016785481,-2.3812609622064604,0.7008040815896917,-1.1967965589861056e-05,0.08712261,0.30761217,9.78829047,0.003148,-0.000257,0.005352,0.05318719125880564
1757946888.2115114,-0.8279028079162853,1.3154583147435275,2.1532997889259544,-0.5434701849364505,0.7594510686393696,-2.38129638665489,0.7013293248732794,-1.19773192247622e-05,0.0836793,0.32167971,9.76704201,0.005006,-0.000582,0.00276,0.053364098584282815
1757946888.2320247,-0.8293650241092947,1.3175726319129843,2.153320288304747,-0.5447285701345239,0.7594792075343225,-2.3813230552101934,0.7018809791809112,-1.2063890717506999e-05,0.09145863,0.29862621,9.78919299,0.000404,0.0015,0.004177,0.053795083197421774
1757946888.2528758,-0.8276462971789869,1.3150948792137667,2.153296053849525,-0.5431354144371463,0.7598572479891881,-2.3813580703319235,0.7023891932089619,-1.2017583128969923e-05,0.08038314,0.3150972,9.76913154,0.003187,0.000923,0.004206,0.05312029303594771
1757946888.273351,-0.8280342550569952,1.3156321189841078,2.1532886481540885,-0.5435175289046488,0.7598710227758428,-2.381390585065969,0.7029066832454863,-1.2005380466238992e-05,0.08996751000000001,0.3125466,9.77347737,0.004741,0.00159,0.004049,0.05326051505489348
1757946888.2944124,-0.8279552626708876,1.3154976993787288,2.1532933178850477,-0.5434444391150582,0.7600059117278172,-2.381422825034783,0.7034210116327927,-1.1986826738054504e-05,0.08592579,0.31344912,9.787250610000001,0.001603,0.001124,0.004888,0.05321607397514543
1757946888.3147385,-0.8278697183520206,1.3153493958894573,2.153286442916473,-0.5432650968850905,0.7600673479557924,-2.3814554802537184,0.7039318142722846,-1.1962074245948294e-05,0.08951625,0.32033574000000004,9.77302611,0.005916,-0.000333,0.004363,0.05317359922033431
1757946888.3351276,-0.8291626666722856,1.3172109450856235,2.1532770232735237,-0.5443203835997403,0.7598809288546288,-2.3814816530498053,0.7044682338036552,-1.201696296494028e-05,0.09909081000000002,0.30551283,9.784101600000001,0.003907,8.7e-05,0.003132,0.0535788484167058
1757946888.355583,-0.8288688392987162,1.3167868854711617,2.1532457006316026,-0.5438038850264412,0.7599433519512289,-2.3815098670298673,0.7049913267387251,-1.2030730160164491e-05,0.09415638000000001,0.31419468,9.78515127,0.00141,-0.001915,0.002721,0.05339041726485683
1757946888.375872,-0.8287658139148237,1.3166302554758842,2.15326793608771,-0.5435524145607287,0.7599151163229747,-2.3815392146866503,0.7055085427454194,-1.2026370228633552e-05,0.09624591,0.31464594,9.78934014,0.004349,-0.001047,0.005606,0.053304316961990256
