timestamp,x,y,theta,vx,vy,bias_accel_x,bias_accel_y,bias_angular_velocity,accel_x,accel_y,accel_z,gyro_x,gyro_y,gyro_z,cov_trace
1757070414.4421484,0.0,0.0,0.0,0.0,0.0,-1.0720400764624507,-0.5349886020355731,0.005075061264822136,0.46687752000000005,-0.2140542,9.77392863,0.003363,0.000349,0.004594,3.13
1757070414.4716313,0.0,0.0,0.0,0.0,0.0,-1.0720400764624507,-0.5349886020355731,0.0002416298519031376,0.47586348000000006,-0.21570228000000002,9.76972995,0.002948,-0.001572,0.003696,0.7968920388741481
1757070414.4923666,0.0,0.0,0.0,0.0,0.0,-1.0720400764624507,-0.5349886020355731,0.00012352388653291333,0.47002653,-0.22123512,9.78185511,0.002832,-0.000282,0.003876,0.5260741003066111
1757070414.512908,0.0,0.0,0.0,0.0,0.0,-1.0720400764624507,-0.5349886020355731,8.2769891664815e-05,0.45819567,-0.22318731000000003,9.77108373,0.002759,0.000357,0.003749,0.4108964282979757
1757070414.5331547,0.0,0.0,0.0,0.0,0.0,-1.0720400764624507,-0.5349886020355731,8.2769891664815e-05,0.46927115999999996,-0.21884148000000003,9.7724277,0.004104,0.000313,0.00552,0.4108964282979757
1757070414.5544896,0.0,0.0,0.0,0.0,0.0,-1.0720400764624507,-0.5349886020355731,6.187584996621892e-05,0.46358136,-0.20911977,9.77946147,0.004196,1e-06,0.003157,0.3519971267520106
1757070414.5746949,0.0,0.0,0.0,0.0,0.0,-1.0720400764624507,-0.5349886020355731,4.08383321186941e-05,0.46778004,-0.22617936000000002,9.76764042,0.003539,-0.000333,0.003995,0.2806230116090236
1757070414.5952837,0.0,0.0,0.0,0.0,0.0,-1.0720400764624507,-0.5349886020355731,3.02608501812814e-05,0.47077209,-0.21899844000000002,9.78679935,0.002194,-0.002588,0.004017,0.24250657186205818
1757070414.6163158,0.0,0.0,0.0,0.0,0.0,-1.0720400764624507,-0.5349886020355731,2.6667794382888012e-05,0.48378996,-0.22228479,9.771378030000001,0.003502,-0.001418,0.004995,0.23053243707930268
1757070414.6370363,0.0,0.0,0.0,0.0,0.0,-1.0720400764624507,-0.5349886020355731,2.374921615021677e-05,0.4742154,-0.23306598000000003,9.768238830000001,0.004655,-0.000356,0.004869,0.22079410695290094
1757070414.65735,0.0,0.0,0.0,0.0,0.0,-1.0720400764624507,-0.5349886020355731,2.374921615021677e-05,0.46178613,-0.22917141000000002,9.77077962,0.002702,0.00022,0.0055,0.22627967239720959
1757070414.677777,0.0,0.0,0.0,0.0,0.0,-1.0720400764624507,-0.5349886020355731,1.9274010258603512e-05,0.45610614000000005,-0.21285737999999998,9.79173378,0.002584,0.000645,0.004121,0.20536236903069421
1757070414.6978862,0.0,0.0,0.0,0.0,0.0,-1.0720400764624507,-0.5349886020355731,1.7523070975282266e-05,0.46343421,-0.23022108,9.76434426,0.003692,0.000402,0.003839,0.20001542313813803
1757070414.7190263,0.0,0.0,0.0,0.0,0.0,-1.0720400764624507,-0.5349886020355731,1.6014145476363106e-05,0.46837845000000006,-0.22931856000000003,9.76809168,0.004079,-0.000615,0.001653,0.1947604082404764
1757070414.7394545,0.0,0.0,0.0,0.0,0.0,-1.0720400764624507,-0.5349886020355731,1.4680218332789646e-05,0.47271447000000005,-0.20073222000000002,9.7781175,0.0046,0.000877,0.00359,0.190756002980667
1757070414.7598336,0.0,0.0,0.0,0.0,0.0,-1.0720400764624507,-0.5349886020355731,1.4680218332789646e-05,0.47271447000000005,-0.20073222000000002,9.7781175,0.0046,0.000877,0.00359,0.190756002980667
1757070414.7808545,0.0,0.0,0.0,0.0,0.0,-1.0720400764624507,-0.5349886020355731,1.2415550648151729e-05,0.46687752000000005,-0.21599658,9.7664436,0.002308,-0.000818,0.004645,0.18296532998486656
1757070414.801849,0.0,0.0,0.0,0.0,0.0,-1.0720400764624507,-0.5349886020355731,1.1491168262671243e-05,0.45101475,-0.22079367,9.7812567,0.002934,-0.001162,0.004336,0.17979112435099998
1757070414.822208,0.0,0.0,0.0,0.0,0.0,-1.0720400764624507,-0.5349886020355731,1.1491168262671243e-05,0.45101475,-0.22079367,9.7812567,0.002934,-0.001162,0.004336,0.17979112435099998
1757070414.84272,0.0,0.0,0.0,0.0,0.0,-1.0720400764624507,-0.5349886020355731,9.851190093063678e-06,0.46912401000000004,-0.22139208000000002,9.78290478,0.003342,-0.000346,0.003945,0.17495159094706517
1757070414.863489,0.0,0.0,0.0,0.0,0.0,-1.0720400764624507,-0.5349886020355731,9.15918370352419e-06,0.46448388,-0.21360294000000002,9.771829290000001,0.004151,-0.00052,0.00303,0.17287062148334814
1757070414.8843646,0.0,0.0,0.0,0.0,0.0,-1.0720400764624507,-0.5349886020355731,8.533162794205863e-06,0.45610614000000005,-0.22048956,9.77092677,0.003316,0.000613,0.003594,0.17084026479292164
1757070414.9054103,0.0,0.0,0.0,0.0,0.0,-1.0720400764624507,-0.5349886020355731,7.957625297700844e-06,0.46508229,-0.22019526000000003,9.765246780000002,0.004963,-0.000755,0.004678,0.16930362023432427
1757070414.9260092,0.0,0.0,0.0,0.0,0.0,-1.0720400764624507,-0.5349886020355731,7.426129248255297e-06,0.46522944000000005,-0.21704625,9.77392863,0.002246,-0.001707,0.005039,0.16778782774431963
1757070414.9472845,0.0,0.0,0.0,0.0,0.0,-1.0720400764624507,-0.5349886020355731,6.925055320453923e-06,0.4713705,-0.21974400000000002,9.767493270000001,0.002671,-0.000784,0.004952,0.16673820563257574
1757070414.9685524,0.0,0.0,0.0,0.0,0.0,-1.0720400764624507,-0.5349886020355731,6.4736286596079105e-06,0.4713705,-0.21974400000000002,9.767493270000001,0.002671,-0.000784,0.004952,0.1644953420271248
1757070414.9893026,0.0,0.0,0.0,0.0,0.0,-1.0720400764624507,-0.5349886020355731,6.05216183833116e-06,0.47990520000000003,-0.22168638000000002,9.76404996,0.002655,0.000607,0.003567,0.16736802625175476
1757070415.010923,0.0,0.0,0.0,0.0,0.0,-1.0720400764624507,-0.5349886020355731,5.6630148671085715e-06,0.46373832000000004,-0.21974400000000002,9.76164651,0.002422,0.00047,0.004535,0.16679116557462093
1757070415.0339956,0.0,0.0,0.0,0.0,0.0,-1.0720400764624507,-0.5349886020355731,4.962077094112557e-06,0.47346984000000003,-0.21135645000000003,9.76628664,0.003395,0.000456,0.005061,0.16031212842378412
1757070415.0548635,0.0,0.0,0.0,0.0,0.0,-1.0720400764624507,-0.5349886020355731,4.646978407047188e-06,0.45176031000000005,-0.21780162,9.76688505,0.001952,-0.001374,0.003931,0.15945927990087558
1757070415.0755692,0.0,0.0,0.0,0.0,0.0,-1.0720400764624507,-0.5349886020355731,4.354333734950507e-06,0.46642626,-0.22917141000000002,9.77092677,0.002932,-0.000692,0.004873,0.15846996423735382
1757070415.095959,0.0,0.0,0.0,0.0,0.0,-1.0720400764624507,-0.5349886020355731,4.354333734950507e-06,0.46642626,-0.22917141000000002,9.77092677,0.002932,-0.000692,0.004873,0.15846996423735382
1757070415.11633,0.0,0.0,0.0,0.0,0.0,-1.0720400764624507,-0.5349886020355731,4.354333734950507e-06,0.46642626,-0.22917141000000002,9.77092677,0.002932,-0.000692,0.004873,0.15846996423735382
1757070415.1371841,0.0,0.0,0.0,0.0,0.0,-1.0720400764624507,-0.5349886020355731,4.048019518825097e-06,0.47450970000000003,-0.21450546,9.77273181,0.002839,0.000176,0.004156,0.15963580741681127
1757070415.1586995,0.0,0.0,0.0,0.0,0.0,-1.0720400764624507,-0.5349886020355731,3.531894229832739e-06,0.46403262,-0.21330864,9.75880161,0.003306,0.000547,0.002276,0.1573213668514475
1757070415.17895,0.0,0.0,0.0,0.0,0.0,-1.0720400764624507,-0.5349886020355731,3.109235469505064e-06,0.46298295,-0.22108797000000002,9.771829290000001,0.003368,0.000646,0.003953,0.1543985389673623
1757070415.19983,0.0,0.0,0.0,0.0,0.0,-1.0720400764624507,-0.5349886020355731,2.921656205369414e-06,0.46658322,-0.2225889,9.77092677,0.004297,6.7e-05,0.003427,0.1538248536398551
1757070415.2203016,0.0,0.0,0.0,0.0,0.0,-1.0720400764624507,-0.5349886020355731,2.744814653127794e-06,0.45310428,-0.2080701,9.77108373,0.004058,-0.000369,0.004585,0.15368144092761718
1757070415.2404857,0.0,0.0,0.0,0.0,0.0,-1.0720400764624507,-0.5349886020355731,2.578347032057371e-06,0.47046798,-0.21046374,9.77617512,0.003042,-0.001285,0.003559,0.1532605663215017
1757070415.2619073,0.0,0.0,0.0,0.0,0.0,-1.0720400764624507,-0.5349886020355731,2.4181676053381734e-06,0.46837845000000006,-0.2200383,9.77467419,0.003042,-0.001285,0.003559,0.15324607174630497
1757070415.2819693,0.0,0.0,0.0,0.0,0.0,-1.0720400764624507,-0.5349886020355731,2.27184592147992e-06,0.47361699000000007,-0.22123512,9.77077962,0.001416,-0.001899,0.002209,0.1519248533103845
1757070415.3029046,0.0,0.0,0.0,0.0,0.0,-1.0720400764624507,-0.5349886020355731,2.134203395439797e-06,0.47541222,-0.21644784,9.78634809,0.002841,5e-05,0.003649,0.15176441376282132
1757070415.323528,0.0,0.0,0.0,0.0,0.0,-1.0720400764624507,-0.5349886020355731,2.004904385485598e-06,0.45071064,-0.21120930000000002,9.77003406,0.004567,0.001329,0.003032,0.15140568272651483
1757070415.3440547,0.0,0.0,0.0,0.0,0.0,-1.0720400764624507,-0.5349886020355731,1.8811943830031829e-06,0.47211606000000006,-0.210915,9.78215922,0.003626,0.000209,0.003965,0.15140567736172378
1757070415.3645246,0.0,0.0,0.0,0.0,0.0,-1.0720400764624507,-0.5349886020355731,1.7671263285551073e-06,0.47646189000000005,-0.22019526000000003,9.767189160000001,0.001869,0.000802,0.004368,0.1504505371051123
1757070415.3849113,0.0,0.0,0.0,0.0,0.0,-1.0720400764624507,-0.5349886020355731,1.6584822949949575e-06,0.45999090000000004,-0.21001248,9.779167170000001,0.003209,0.000228,0.004424,0.15054721915987787
1757070415.4052086,0.0,0.0,0.0,0.0,0.0,-1.0720400764624507,-0.5349886020355731,1.6584822949949575e-06,0.45999090000000004,-0.21001248,9.779167170000001,0.003209,0.000228,0.004424,0.15054721915987787
1757070415.4254875,0.0,0.0,0.0,0.0,0.0,-1.0720400764624507,-0.5349886020355731,1.6584822949949575e-06,0.45999090000000004,-0.21001248,9.779167170000001,0.003209,0.000228,0.004424,0.15054721915987787
1757070415.4491084,0.0,0.0,0.0,0.0,0.0,-1.0720400764624507,-0.5349886020355731,1.442245447788505e-06,0.47331288,-0.22812174000000002,9.7667379,0.002842,-0.001948,0.003807,0.14974951400287703
1757070415.4706428,0.0,0.0,0.0,0.0,0.0,-1.0720400764624507,-0.5349886020355731,1.2680689071558396e-06,0.46897686000000005,-0.22213764000000003,9.75880161,0.003899,0.000852,0.004352,0.1499729065594658
1757070415.4915257,0.0,0.0,0.0,0.0,0.0,-1.0720400764624507,-0.5349886020355731,1.1929601156112883e-06,0.46912401000000004,-0.2140542,9.75042387,0.003964,-0.000401,0.002384,0.15202200885657305
1757070415.512413,0.0,0.0,0.0,0.0,0.0,-1.0720400764624507,-0.5349886020355731,1.055409234050414e-06,0.46238454000000007,-0.22543380000000002,9.79173378,0.004178,-0.000969,0.002116,0.14807291459940633
1757070415.533421,0.0,0.0,0.0,0.0,0.0,-1.0720400764624507,-0.5349886020355731,9.924649981348732e-07,0.46673037000000006,-0.22617936000000002,9.74728467,0.003402,-0.000386,0.004331,0.14811615280451618
1757070415.5544555,0.0,0.0,0.0,0.0,0.0,-1.0720400764624507,-0.5349886020355731,9.331201824664081e-07,0.46613196000000007,-0.1995354,9.77482134,0.002833,-0.000332,0.001633,0.14790241379234573
1757070415.5752223,0.0,0.0,0.0,0.0,0.0,-1.0720400764624507,-0.5349886020355731,9.331201824664081e-07,0.46613196000000007,-0.1995354,9.77482134,0.002833,-0.000332,0.001633,0.14790241379234573
1757070415.5954864,0.0,0.0,0.0,0.0,0.0,-1.0720400764624507,-0.5349886020355731,8.22930405980668e-07,0.47945394,-0.21914559000000003,9.76688505,0.001373,-0.000975,0.003829,0.1471622641229283
1757070415.6157398,0.0,0.0,0.0,0.0,0.0,-1.0720400764624507,-0.5349886020355731,7.734652823050558e-07,0.47436255000000005,-0.22483539,9.764491410000002,0.003981,0.000158,0.004702,0.1471765237873527
1757070415.6358902,0.0,0.0,0.0,0.0,0.0,-1.0720400764624507,-0.5349886020355731,7.26833346901297e-07,0.46448388,-0.21479976,9.76135221,0.0034,0.001418,0.004242,0.1471288944944946
1757070415.6562974,0.0,0.0,0.0,0.0,0.0,-1.0720400764624507,-0.5349886020355731,7.26833346901297e-07,0.46448388,-0.21479976,9.76135221,0.0034,0.001418,0.004242,0.1471288944944946
1757070415.6768556,0.0,0.0,0.0,0.0,0.0,-1.0720400764624507,-0.5349886020355731,6.405134104740159e-07,0.47301858,-0.23276187000000004,9.77482134,0.004343,0.000252,0.003044,0.14634429438442642
1757070415.6969173,0.0,0.0,0.0,0.0,0.0,-1.0720400764624507,-0.5349886020355731,6.01955955670107e-07,0.46792719,-0.21106215,9.77108373,0.003858,-0.000696,0.003745,0.14646846665657193
1757070415.7172651,0.0,0.0,0.0,0.0,0.0,-1.0720400764624507,-0.5349886020355731,6.01955955670107e-07,0.46792719,-0.21106215,9.77108373,0.003858,-0.000696,0.003745,0.14646846665657193
1757070415.7375553,0.0,0.0,0.0,0.0,0.0,-1.0720400764624507,-0.5349886020355731,5.63462163231939e-07,0.45056349,-0.22363857000000004,9.77437008,0.002528,-0.001428,0.005022,0.14935791271957422
1757070415.757931,0.0,0.0,0.0,0.0,0.0,-1.0720400764624507,-0.5349886020355731,4.970287518710622e-07,0.47481381,-0.21479976,9.775566900000001,0.001927,-0.001013,0.004739,0.14553525915515794
1757070415.7788126,0.0,0.0,0.0,0.0,0.0,-1.0720400764624507,-0.5349886020355731,4.670711552108386e-07,0.46882971,-0.22019526000000003,9.76809168,0.003137,-0.00012,0.003667,0.1459953511850285
1757070415.7996304,0.0,0.0,0.0,0.0,0.0,-1.0720400764624507,-0.5349886020355731,4.388969717842117e-07,0.46867275,-0.22079367,9.787093650000001,0.002916,0.001738,0.005678,0.14597047506438426
1757070415.820535,0.0,0.0,0.0,0.0,0.0,-1.0720400764624507,-0.5349886020355731,4.1203982909491623e-07,0.47287143000000004,-0.21450546,9.77452704,0.003418,-0.000586,0.005067,0.14616994019270307
1757070415.8410192,0.0,0.0,0.0,0.0,0.0,-1.0720400764624507,-0.5349886020355731,3.871819837207174e-07,0.47062494000000005,-0.2228832,9.76733631,0.003452,0.000451,0.0028,0.14559588391127823
1757070415.8613546,0.0,0.0,0.0,0.0,0.0,-1.0720400764624507,-0.5349886020355731,3.6368555127711006e-07,0.46718163,-0.22094082,9.7812567,0.003756,-0.00072,0.005015,0.14574994637873148
1757070415.8820176,0.0,0.0,0.0,0.0,0.0,-1.0720400764624507,-0.5349886020355731,3.4161735656619833e-07,0.46702467,-0.21271023000000003,9.7667379,0.003296,-0.001678,0.00402,0.14562195879348758
1757070415.9027455,0.0,0.0,0.0,0.0,0.0,-1.0720400764624507,-0.5349886020355731,3.2044352289300825e-07,0.46732878,-0.22543380000000002,9.759851280000001,0.002508,-0.002624,0.004553,0.14595819066814195
1757070415.9231544,0.0,0.0,0.0,0.0,0.0,-1.0720400764624507,-0.5349886020355731,3.010629116855746e-07,0.47002653,-0.22438413000000001,9.76269618,0.002274,-0.001161,0.003425,0.14509164122223608
1757070415.9436357,0.0,0.0,0.0,0.0,0.0,-1.0720400764624507,-0.5349886020355731,2.8279660323996415e-07,0.47810997000000005,-0.22094082,9.774968490000001,0.00331,-6.2e-05,0.003823,0.1453200674739952
1757070415.9637058,0.0,0.0,0.0,0.0,0.0,-1.0720400764624507,-0.5349886020355731,2.6561874573275435e-07,0.47316573,-0.22483539,9.763893,0.002613,-0.000637,0.003706,0.14530314705362615
1757070415.9839778,0.0,0.0,0.0,0.0,0.0,-1.0720400764624507,-0.5349886020355731,2.492028305292266e-07,0.46373832000000004,-0.21615354000000003,9.78560253,0.004339,0.000611,0.004464,0.1455859824374342
1757070416.004633,0.0,0.0,0.0,0.0,0.0,-1.0720400764624507,-0.5349886020355731,2.3406772270480108e-07,0.4596966,-0.22677777,9.775871010000001,0.003697,-0.000456,0.002562,0.14494443150025607
1757070416.0250304,0.0,0.0,0.0,0.0,0.0,-1.0720400764624507,-0.5349886020355731,2.3406772270480108e-07,0.4596966,-0.22677777,9.775871010000001,0.003697,-0.000456,0.002562,0.14494443150025607
1757070416.045386,0.0,0.0,0.0,0.0,0.0,-1.0720400764624507,-0.5349886020355731,2.3406772270480108e-07,0.4596966,-0.22677777,9.775871010000001,0.003697,-0.000456,0.002562,0.14494443150025607
1757070416.0655146,0.0,0.0,0.0,0.0,0.0,-1.0720400764624507,-0.5349886020355731,2.0393160785930228e-07,0.45834282000000004,-0.21659499000000002,9.771230880000001,0.002615,-0.000331,0.004989,0.14503126832314722
1757070416.0862784,0.07036550437736988,0.041842095847528835,0.0,0.0009645372080166814,0.0005735517518626838,-1.0720400764624507,-0.5349886020355731,1.907094794435577e-07,0.46732878,-0.21630069,9.78170796,0.003496,-0.000187,0.005018,0.14518860379425452
1757070416.1087017,0.20600885804181004,0.1225009677667796,0.0,0.00143722645179606,0.0008546313635178734,-1.0720400764624507,-0.5349886020355731,1.6801058989036342e-07,0.46209024000000004,-0.21539817000000003,9.77677353,0.002513,-0.001381,0.004491,0.14644964403556063
1757070416.1293647,0.27138907542308294,0.16137861593267971,0.0,0.0014468112599164717,0.0008603308673245061,-1.0720400764624507,-0.5349886020355731,1.5809318192947157e-07,0.46209024000000004,-0.21539817000000003,9.77677353,0.002513,-0.001381,0.004491,0.1440448376362077
1757070416.1521902,0.3976853219163704,0.23647933037671345,0.0,0.0015433408164951367,0.0009177311374458263,-1.0720400764624507,-0.5349886020355731,1.3966420181861138e-07,0.47077209,-0.20971818000000003,9.779314320000001,0.002894,0.000153,0.00369,0.14423920679796362
1757070416.1755233,0.4586786980545657,0.2727483902380895,0.0,0.0015551223833847176,0.0009247369203985661,-1.0720400764624507,-0.5349886020355731,1.3128237425110575e-07,0.46627911,-0.22467843,9.78261048,0.003629,0.000471,0.003707,0.1448487961533742
1757070416.196002,0.4586786980545657,0.2727483902380895,0.0,0.0015551223833847176,0.0009247369203985661,-1.0720400764624507,-0.5349886020355731,1.3128237425110575e-07,0.46627911,-0.22467843,9.78261048,0.003629,0.000471,0.003707,0.1448487961533742
1757070416.2190769,0.5766081127207386,0.3428738574733095,0.0,0.001655470437361985,0.000984407819225807,-1.0720400764624507,-0.5349886020355731,1.1568886546955093e-07,0.46778004,-0.20956122,9.78515127,0.00356,-0.000848,0.0033,0.14458724761446842
1757070416.2396264,0.6336115356457251,0.37677033425933526,0.0,0.001614117930182122,0.0009598179923743431,-1.0720400764624507,-0.5349886020355731,1.0873354921374551e-07,0.46897686000000005,-0.21675195,9.76988691,0.002196,-0.002194,0.005979,0.14445777347661515
1757070416.2604191,0.6893905591783112,0.4099387350202433,0.0,0.0015971102520829343,0.0009497045581928212,-1.0720400764624507,-0.5349886020355731,1.0210364585787834e-07,0.45610614000000005,-0.21479976,9.7724277,0.002432,0.000902,0.004807,0.14489143546279115
1757070416.2807329,0.7439469304725219,0.44238009868251943,0.0,0.001561832460669063,0.000928726996208585,-1.0720400764624507,-0.5349886020355731,9.598323209809961e-08,0.48409407000000004,-0.21510387,9.77302611,0.003079,-4.8e-05,0.003528,0.1443766237572343
1757070416.301688,0.7973522823184984,0.4741370209199591,0.0,0.001531048985609714,0.0009104219314563234,-1.0720400764624507,-0.5349886020355731,9.019846352262455e-08,0.46673037000000006,-0.23216346000000002,9.78545538,0.001889,0.001116,0.002198,0.14465090906861683
1757070416.3220215,0.7973522823184984,0.4741370209199591,0.0,0.001531048985609714,0.0009104219314563234,-1.0720400764624507,-0.5349886020355731,9.019846352262455e-08,0.46673037000000006,-0.23216346000000002,9.78545538,0.001889,0.001116,0.002198,0.14465090906861683
1757070416.3421903,0.8497187489270388,0.5052761811436958,0.0,0.0017313491168877188,0.0010295282658081633,-1.0720400764624507,-0.5349886020355731,8.43760461602576e-08,0.46792719,-0.22273605000000002,9.767787570000001,0.002152,-0.001259,0.003422,0.14763241621892112
1757070416.3630655,0.951029380509504,0.5655194664659069,0.0,0.0016743263813364464,0.000995620304975128,-1.0720400764624507,-0.5349886020355731,7.437763045057085e-08,0.46478799,-0.22438413000000001,9.77048532,0.002569,-0.000994,0.004163,0.14381020464782146
1757070416.383282,1.0001526618742527,0.5947301012136622,0.0,0.0015579007137075719,0.0009263890248593187,-1.0720400764624507,-0.5349886020355731,6.989627060588054e-08,0.46194309,-0.21465261000000002,9.77991273,0.00351,-0.002025,0.003993,0.14441814905380448
1757070416.4039044,1.048280860268416,0.6233490204979971,0.0,0.0014858280203580636,0.0008835317673180859,-1.0720400764624507,-0.5349886020355731,6.567872898521262e-08,0.46298295,-0.21539817000000003,9.77347737,0.002533,-0.001329,0.004152,0.14457899126541057
1757070416.4251244,1.0954395283623242,0.6513914189414836,0.0,0.0014382960807657887,0.0008552674069637168,-1.0720400764624507,-0.5349886020355731,6.173846170146953e-08,0.47077209,-0.21285737999999998,9.76044969,0.003213,-2.9e-05,0.003085,0.1444700560368294
1757070416.445488,1.1416694431432255,0.678881544144191,0.0,0.0014161792254452192,0.0008421158551009433,-1.0720400764624507,-0.5349886020355731,5.80157201568395e-08,0.47510811000000003,-0.21989115,9.76704201,0.002031,0.000169,0.003395,0.14465190495978075
1757070416.4658635,1.1870070042426581,0.7058410407583552,0.0,0.001443423740549192,0.0008583165151031261,-1.0720400764624507,-0.5349886020355731,5.445059449734702e-08,0.45625329000000003,-0.21584943000000004,9.7667379,0.001988,0.000822,0.004302,0.14500135798338293
1757070416.4870894,1.2314405915817133,0.7322629990281267,0.0,0.0014266754354752668,0.0008483573143216108,-1.0720400764624507,-0.5349886020355731,5.11748199138025e-08,0.46822149,-0.21869433000000002,9.77108373,0.003443,0.001155,0.003208,0.14431388432333103
1757070416.5081518,1.2750592752088192,0.7582003835067544,0.0,0.0014000836796041036,0.0008325448106273556,-1.0720400764624507,-0.5349886020355731,4.807832135204869e-08,0.4628358,-0.22363857000000004,9.77032836,0.001735,-0.000347,0.003975,0.1485253378891206
1757070416.529167,1.3177911700539662,0.7836104485049128,0.0,0.0013785339831965864,0.0008197305137563665,-1.0720400764624507,-0.5349886020355731,4.517415089009787e-08,0.4628358,-0.22363857000000004,9.77032836,0.001735,-0.000347,0.003975,0.1446003926183972
1757070416.5520444,1.4009302911267159,0.8330482391295485,0.0,0.0014161275338210706,0.0008420851172285828,-1.0720400764624507,-0.5349886020355731,3.980353418517783e-08,0.46642626,-0.22393287,9.77512545,0.002283,-0.000537,0.004068,0.14416469135319776
1757070416.5726805,1.4413438874334072,0.8570797526555392,0.0,0.0013696651949107119,0.0008144567834990113,-1.0720400764624507,-0.5349886020355731,3.739478681410557e-08,0.45819567,-0.20611791,9.772280550000001,0.003338,3.8e-05,0.001879,0.14459448147236115
1757070416.5931633,1.4810170060967205,0.8806709490573745,0.0,0.0013411120455019212,0.0007974779580804635,-1.0720400764624507,-0.5349886020355731,3.512517686277139e-08,0.46792719,-0.22543380000000002,9.77482134,0.003211,0.000101,0.00481,0.14472409452549168
1757070416.6135457,1.4810170060967205,0.8806709490573745,0.0,0.0013411120455019212,0.0007974779580804635,-1.0720400764624507,-0.5349886020355731,3.512517686277139e-08,0.46792719,-0.22543380000000002,9.77482134,0.003211,0.000101,0.00481,0.14472409452549168
1757070416.6360295,1.520030755750666,0.9038700587182282,0.0,0.0014987210350217996,0.0008911984608221996,-1.0720400764624507,-0.5349886020355731,3.2849990350437856e-08,0.45909819,-0.21959685,9.77018121,0.003905,0.000205,0.004136,0.145909067684587
1757070416.6569684,1.595863077764208,0.9489629393009437,0.0,0.0014387406103786417,0.0008555317417515174,-1.0720400764624507,-0.5349886020355731,2.892548127086232e-08,0.46178613,-0.2140542,9.7610481,0.004317,0.001378,0.002798,0.14420121345567397
1757070416.6770093,1.63277466189479,0.9709120186792854,0.0,0.0013444740706875734,0.0007994771504589538,-1.0720400764624507,-0.5349886020355731,2.718486084186816e-08,0.46209024000000004,-0.22887711000000002,9.768238830000001,0.004037,-8e-05,0.005075,0.1443560400421468
1757070416.6974912,1.6690473154544403,0.992481164815829,0.0,0.0012819178285280106,0.0007622787490055359,-1.0720400764624507,-0.5349886020355731,2.553792110492386e-08,0.46882971,-0.22168638000000002,9.77063247,0.003014,-0.001545,0.004506,0.14479945269302966
1757070416.7185214,1.6690473154544403,0.992481164815829,0.0,0.0012819178285280106,0.0007622787490055359,-1.0720400764624507,-0.5349886020355731,2.553792110492386e-08,0.47466666,-0.21584943000000004,9.77317326,0.001708,0.000266,0.005221,0.14479945269302966
1757070416.738954,1.7047365651742064,1.0137033960883033,0.0,0.001315327835274781,0.0007821456527808257,-1.0720400764624507,-0.5349886020355731,2.3942143817276368e-08,0.47376414,-0.22512969000000002,9.77946147,0.002041,-0.002264,0.003744,0.1492804630657162
1757070416.7596493,1.774169418048422,1.054990900677905,0.0,0.001286550905490678,0.0007650337587515221,-1.0720400764624507,-0.5349886020355731,2.11066691481938e-08,0.46058931000000003,-0.20223315000000003,9.763893,0.001863,0.001484,0.004766,0.1442129431883032
1757070416.779708,1.8080289286892803,1.0751250971442186,0.0,0.0012453901491544712,0.0007405579544918111,-1.0720400764624507,-0.5349886020355731,1.9820068982865288e-08,0.47331288,-0.20687328,9.77377167,0.003634,7.9e-05,0.003532,0.1450060124847286
1757070416.8003578,1.8413054523259356,1.09491262661335,0.0,0.0012102879350828683,0.0007196847976994207,-1.0720400764624507,-0.5349886020355731,1.8628237857273667e-08,0.46582785000000004,-0.21749751,9.763893,0.003505,-0.000784,0.005483,0.1446832330466415
1757070416.8205209,1.8740344173610346,1.1143745562066445,0.0,0.001185559024778056,0.000704980015230588,-1.0720400764624507,-0.5349886020355731,1.7505063659465148e-08,0.46328706,-0.21869433000000002,9.774968490000001,0.003303,-0.000367,0.004175,0.14492144861496392
1757070416.8407772,1.9062266201309246,1.133517305850233,0.0,0.001181595582913284,0.0007026231968455096,-1.0720400764624507,-0.5349886020355731,1.6443242415119387e-08,0.47391129,-0.21031659,9.77077962,0.004029,-9.5e-05,0.00308,0.14509119294021006
1757070416.8613625,1.9379069868485213,1.152355697650475,0.0,0.0012178219056514586,0.000724164792853762,-1.0720400764624507,-0.5349886020355731,1.5424338032686682e-08,0.46418958,-0.22692492,9.771976440000001,0.002213,-0.00095,0.004421,0.14548751569182797
1757070416.8816285,1.9690501822871687,1.1708746662853575,0.0,0.0012063438847366725,0.0007173395102738097,-1.0720400764624507,-0.5349886020355731,1.4492980465885106e-08,0.47346984000000003,-0.22992678000000003,9.774968490000001,0.004164,-0.001703,0.003866,0.1446890387444021
1757070416.9021816,1.999704639151457,1.1891030117455232,0.0,0.0011786082546572515,0.0007008468139953766,-1.0720400764624507,-0.5349886020355731,1.361390508457373e-08,0.47106639,-0.20716758000000002,9.7781175,0.003373,-0.000655,0.005552,0.14507154094535715
1757070416.9225712,1.999704639151457,1.1891030117455232,0.0,0.0011786082546572515,0.0007008468139953766,-1.0720400764624507,-0.5349886020355731,1.361390508457373e-08,0.47106639,-0.20716758000000002,9.7781175,0.003373,-0.000655,0.005552,0.14507154094535715
1757070416.9435904,2.0596066245886298,1.224723087779904,0.0,0.0012804981520648433,0.0007614345535553651,-1.0720400764624507,-0.5349886020355731,1.194862077040502e-08,0.46718163,-0.22632651000000004,9.77407578,0.003613,0.000254,0.003068,0.14505091244843443
1757070416.964238,2.088824179176846,1.2420969946441844,0.0,0.001234507185628926,0.0007340865164346221,-1.0720400764624507,-0.5349886020355731,1.12287342095741e-08,0.4767561900000001,-0.21644784,9.7579089,0.003301,0.000287,0.004199,0.14446608758500984
1757070416.9842887,2.1176069199648477,1.2592123441249095,0.0,0.001173110449453834,0.0006975776028341983,-1.0720400764624507,-0.5349886020355731,1.0543091424481393e-08,0.46328706,-0.21840003000000002,9.760155390000001,0.002825,-0.001402,0.004529,0.14530798217253113
1757070417.005422,2.145933361550091,1.2760563601568669,0.0,0.0011307111427750131,0.0006723653078379222,-1.0720400764624507,-0.5349886020355731,9.905851083014559e-09,0.46613196000000007,-0.22048956,9.77347737,0.003337,-0.000218,0.004585,0.1451116774761872
1757070417.0262067,2.173827966338684,1.2926435890486505,0.0,0.0011008562725224541,0.0006546124280188035,-1.0720400764624507,-0.5349886020355731,9.30756648693439e-09,0.46313991000000004,-0.22498254,9.780658290000002,0.001407,-0.001239,0.003971,0.14525514629703556
1757070417.0471888,2.2013037935180515,1.308981796306623,0.0,0.001096294680076682,0.0006518999257775099,-1.0720400764624507,-0.5349886020355731,8.740556064671157e-09,0.47810997000000005,-0.21959685,9.76419711,0.001541,0.000271,0.004924,0.1455214256825923
1757070417.0673668,2.2127851811893393,1.3160372570032572,0.0,0.0007891808710268404,0.0004743192975909231,-1.0720400764624507,-0.5349886020355731,8.195844208015242e-09,0.47450970000000003,-0.19054944000000001,9.78634809,0.0073,-0.00519,0.007139,0.14788266301129216
1757070417.088297,2.224074917329661,1.3229752731836684,0.0,0.000656760297256936,0.0003973533017013313,-1.0720400764624507,-0.5349886020355731,7.701292857799108e-09,0.46029501,-0.23800041000000002,9.74952135,0.001874,0.001245,0.004036,0.14926971789340707
1757070417.1116664,2.246143128563045,1.3365371596889586,0.0,0.0005056104990109431,0.00030888512988398725,-1.0720400764624507,-0.5349886020355731,6.796395069694793e-09,0.46778004,-0.24624081,9.75671208,0.002265,-0.001388,0.00355,0.14551088052129899
1757070417.1323695,2.246143128563045,1.3365371596889586,0.0,0.0005056104990109431,0.00030888512988398725,-1.0720400764624507,-0.5349886020355731,6.796395069694793e-09,0.46778004,-0.24624081,9.75671208,0.002265,-0.001388,0.00355,0.14551088052129899
1757070417.1526077,2.2569511486016203,1.3431791032918867,0.0,0.0004966994211405653,0.0003043706722126932,-1.0720400764624507,-0.5349886020355731,6.370597788975348e-09,0.45535077,-0.1850166,9.787544910000001,0.004435,-0.000914,0.004335,0.14625327247278205
1757070417.1768217,2.2780891402329684,1.3561692543694213,0.0,0.0004864263669928858,0.00029867475281108633,-1.0720400764624507,-0.5349886020355731,5.602553590103972e-09,0.47481381,-0.23620518,9.771829290000001,0.001994,-0.001309,0.004773,0.14516869752718645
1757070417.1968946,2.288430794175599,1.362524619397381,0.0,0.00046151982733246173,0.00028348171768311945,-1.0720400764624507,-0.5349886020355731,5.260858026435342e-09,0.43454376000000006,-0.20522520000000002,9.76764042,0.005213,-0.000373,0.002829,0.14558254404905077
1757070417.217245,2.288430794175599,1.362524619397381,0.0,0.00046151982733246173,0.00028348171768311945,-1.0720400764624507,-0.5349886020355731,5.260858026435342e-09,0.43454376000000006,-0.20522520000000002,9.76764042,0.005213,-0.000373,0.002829,0.14558254404905077
1757070417.2400117,2.3086876200692577,1.3749732597221096,0.0,0.0004708503818292489,0.00028931886742469446,-1.0720400764624507,-0.5349886020355731,4.622949724361136e-09,0.46328706,-0.23560677000000002,9.780658290000002,0.00213,-0.000617,0.004422,0.1454400308276827
1757070417.2609036,2.31860184075077,1.381065950737195,0.0,0.0004528190836765241,0.00027825520601263104,-1.0720400764624507,-0.5349886020355731,4.338356316136522e-09,0.44068482,-0.20178189000000002,9.78589683,0.005608,0.000858,0.0022,0.14588349855224242
1757070417.2816067,2.3283715312551396,1.3870698223370577,0.0,0.0004335850520866691,0.0002664434743476844,-1.0720400764624507,-0.5349886020355731,4.078123834537802e-09,0.47046798,-0.22467843,9.76943565,0.002338,-0.001125,0.002896,0.14540123144766914
1757070417.3021169,2.3380100193584403,1.3929930646237358,0.0,0.00041675349948231793,0.00025610531029120296,-1.0720400764624507,-0.5349886020355731,3.832461461387926e-09,0.45984375,-0.22467843,9.76883724,0.002324,-0.001593,0.003486,0.14590318495844717
1757070417.3224819,2.3380100193584403,1.3929930646237358,0.0,0.00041675349948231793,0.00025610531029120296,-1.0720400764624507,-0.5349886020355731,3.832461461387926e-09,0.45984375,-0.22467843,9.76883724,0.002324,-0.001593,0.003486,0.14590318495844717
1757070417.3432953,2.3475423792408137,1.398851086717416,0.0,0.00047861686921968154,0.0002941267399383108,-1.0720400764624507,-0.5349886020355731,3.583409199522314e-09,0.47646189000000005,-0.22857300000000003,9.77273181,0.002532,-0.001099,0.004448,0.14915099636855675
1757070417.3639317,2.366168625874407,1.4102976717602027,0.0,0.0004672726067052365,0.0002871570229333672,-1.0720400764624507,-0.5349886020355731,3.156210878205037e-09,0.4625415,-0.2137599,9.76599234,0.00321,0.000423,0.002975,0.1453883686473365
1757070417.3850443,2.3753000613443302,1.4159093096887148,0.0,0.0004361252817867278,0.0002680161582196679,-1.0720400764624507,-0.5349886020355731,2.9648570390477055e-09,0.46912401000000004,-0.21824307,9.77781339,0.00321,0.000423,0.002975,0.14605951040868223
1757070417.4051902,2.3843058777875563,1.4214437496289423,0.0,0.0004128472747933617,0.00025371110961825403,-1.0720400764624507,-0.5349886020355731,2.787395707513293e-09,0.46957527000000004,-0.21330864,9.77467419,0.003251,0.000476,0.004231,0.1459523440753988
1757070417.4261484,2.3931949508041472,1.4269064459914158,0.0,0.00040056092956504197,0.00024616079422689344,-1.0720400764624507,-0.5349886020355731,2.619408255728102e-09,0.47151765,-0.22168638000000002,9.77317326,0.002633,0.001153,0.003775,0.1463520805882003
1757070417.4471414,2.4019659452863737,1.4322965783006023,0.0,0.00039562063845678436,0.00024312486054404867,-1.0720400764624507,-0.5349886020355731,2.461621464282414e-09,0.48170043,-0.21840003000000002,9.771829290000001,0.004791,0.000294,0.004155,0.14637322375736214
1757070417.467674,2.410632582599697,1.4376225788907822,0.0,0.00040498516988205456,0.00024887978965689394,-1.0720400764624507,-0.5349886020355731,2.3102832725549743e-09,0.4742154,-0.22663062000000003,9.77960862,0.004041,-0.000762,0.00351,0.1495151951973323
1757070417.491248,2.427604049275203,1.4480522343950404,0.0,0.00039390949768641217,0.00024207336980246888,-1.0720400764624507,-0.5349886020355731,2.040411658518553e-09,0.46792719,-0.21180771,9.77018121,0.002765,-0.000617,0.004009,0.1464600968285911
1757070417.5117137,2.427604049275203,1.4480522343950404,0.0,0.00039390949768641217,0.00024207336980246888,-1.0720400764624507,-0.5349886020355731,2.040411658518553e-09,0.46792719,-0.21180771,9.77018121,0.002765,-0.000617,0.004009,0.1464600968285911
1757070417.5320344,2.427604049275203,1.4480522343950404,0.0,0.00039390949768641217,0.00024207336980246888,-1.0720400764624507,-0.5349886020355731,2.040411658518553e-09,0.46792719,-0.21180771,9.77018121,0.002765,-0.000617,0.004009,0.1464600968285911
1757070417.5562184,2.444190992364788,1.458245584538957,0.0,0.0004937336829198159,0.000303419396336553,-1.0720400764624507,-0.5349886020355731,1.7826132466202464e-09,0.47062494000000005,-0.21824307,9.77257485,0.003278,-0.000168,0.004084,0.14660185662588562
1757070417.576598,2.460334781365693,1.4681665984987102,0.0,0.0004387214784186432,0.00026961216438522474,-1.0720400764624507,-0.5349886020355731,1.5718635148605072e-09,0.47226321000000004,-0.22304016000000002,9.77677353,0.003795,8.5e-05,0.003644,0.14606425866543196
1757070417.597544,2.4682547564370827,1.4730337448197854,0.0,0.00040108057334171883,0.00024648030002406027,-1.0720400764624507,-0.5349886020355731,1.4785129103749019e-09,0.47960109000000006,-0.23336028,9.7724277,0.004116,-0.001052,0.003817,0.14630718363397485
1757070417.6175737,2.4760778598660655,1.4778413595825268,0.0,0.0003758891969222077,0.00023099917645823655,-1.0720400764624507,-0.5349886020355731,1.3903801406026128e-09,0.46673037000000006,-0.21061089,9.78170796,0.003687,-0.000672,0.003766,0.14678859427804855
1757070417.6379178,2.4838043331104585,1.482589591172572,0.0,0.0003665970481732318,0.00022528877385495137,-1.0720400764624507,-0.5349886020355731,1.3071517922858773e-09,0.46104057,-0.22512969000000002,9.76539393,0.003121,-0.001059,0.004343,0.14699526415897188
1757070417.6606905,2.4914420912730084,1.4872833037419981,0.0,0.0003808142490028743,0.00023402582124226775,-1.0720400764624507,-0.5349886020355731,1.2266285520309529e-09,0.46807434000000003,-0.21166056000000003,9.77467419,0.003487,-0.000761,0.004514,0.14759325190764758
1757070417.6808426,2.4989783725617256,1.4919146546513586,0.0,0.00037925509134847696,0.00023306765558439013,-1.0720400764624507,-0.5349886020355731,1.1531110482804413e-09,0.47466666,-0.21450546,9.771829290000001,0.002671,0.000102,0.004776,0.14672496865675674
1757070417.7010267,2.5064271388508557,1.496492224039383,0.0,0.000371224535629633,0.0002281325529894977,-1.0720400764624507,-0.5349886020355731,1.0837578533890857e-09,0.46778004,-0.21539817000000003,9.764795520000002,0.002759,0.000205,0.003571,0.14711115521207893
1757070417.7211807,2.5137864066866658,1.501014792993203,0.0,0.00036653349934069433,0.00022524972069508424,-1.0720400764624507,-0.5349886020355731,1.018412515670807e-09,0.47017368,-0.2228832,9.767934720000001,0.003204,0.00196,0.003287,0.14725802256696607
1757070417.741352,2.5210580196371697,1.505483494460232,0.0,0.0003644493166464062,0.00022396890579568863,-1.0720400764624507,-0.5349886020355731,9.568614523094657e-10,0.47481381,-0.21539817000000003,9.767934720000001,0.004178,0.000519,0.002535,0.14735034190595134
1757070417.7618434,2.5282431815857795,1.509899068275718,0.0,0.00036255840704421145,0.00022280686505694666,-1.0720400764624507,-0.5349886020355731,8.990228559632513e-10,0.47376414,-0.21390705000000002,9.76539393,0.005002,-0.000897,0.003128,0.14738220869201965
1757070417.7825887,2.535347983200895,1.5142652574027418,0.0,0.0003699989837127615,0.00022737940159279314,-1.0720400764624507,-0.5349886020355731,8.436328303467148e-10,0.45535077,-0.2140542,9.76688505,0.002919,0.000528,0.00344,0.1478249664232991
1757070417.8030257,2.5423655790955095,1.5185778550729887,0.0,0.0003686905247477021,0.00022657530042170015,-1.0720400764624507,-0.5349886020355731,7.922474281991465e-10,0.47630493,-0.21704625,9.76913154,0.003341,-0.000588,0.004882,0.14742908151190862
1757070417.8234503,2.5423655790955095,1.5185778550729887,0.0,0.0003686905247477021,0.00022657530042170015,-1.0720400764624507,-0.5349886020355731,7.922474281991465e-10,0.47630493,-0.21704625,9.76913154,0.003341,-0.000588,0.004882,0.14742908151190862
1757070417.8439958,2.5561771701025116,1.5270656386521075,0.0,0.00040752445109625473,0.0002504403252562516,-1.0720400764624507,-0.5349886020355731,6.947180891872127e-10,0.4543011,-0.22348161,9.77362452,0.003885,-0.000964,0.003702,0.14735529240400924
1757070417.8647623,2.56295962174042,1.5312337306271173,0.0,0.0003893209235104774,0.00023925351828778485,-1.0720400764624507,-0.5349886020355731,6.518223841581204e-10,0.46613196000000007,-0.23306598000000003,9.77377167,0.003532,-0.000157,0.005391,0.14751524511508105
1757070417.8864594,2.5696669021171505,1.5353556268093387,0.0,0.00036852848017108195,0.00022647571744967274,-1.0720400764624507,-0.5349886020355731,6.126729744430173e-10,0.47091924,-0.2140542,9.77601816,0.003793,0.001535,0.003644,0.1510278483603215
1757070417.90747,2.5762935563106364,1.5394279749276296,0.0,0.0003476292443498059,0.00021363228829445117,-1.0720400764624507,-0.5349886020355731,5.75900395729087e-10,0.46209024000000004,-0.22048956,9.77077962,0.004176,0.000263,0.004428,0.15191579614013362
1757070417.9314198,2.58931587340681,1.5474307176351818,0.0,0.0003361544826397101,0.0002065805812197699,-1.0720400764624507,-0.5349886020355731,5.084856891268862e-10,0.46403262,-0.21180771,9.77302611,0.002613,-0.000317,0.004075,0.14798907178815726
1757070417.9559038,2.5957238669164218,1.551368689883159,0.0,0.00034180138439092656,0.0002100508316733697,-1.0720400764624507,-0.5349886020355731,4.773644318309102e-10,0.46598481,-0.22617936000000002,9.775566900000001,0.001651,0.000403,0.003898,0.1483279426109528
1757070417.9766912,2.6020601767960123,1.5552626096293294,0.0,0.0003457700453360545,0.00021248973499624716,-1.0720400764624507,-0.5349886020355731,4.4808737221807553e-10,0.4564004400000001,-0.21720321,9.77092677,0.002024,-0.000629,0.00378,0.1482828293702102
1757070417.997144,2.6083240060622432,1.5591119870950652,0.0,0.00034175760919162996,0.00021002393003564446,-1.0720400764624507,-0.5349886020355731,4.209603706134375e-10,0.46058931000000003,-0.22318731000000003,9.77362452,0.001967,-0.001517,0.006247,0.14799625140448425
1757070418.017712,2.6145203117481777,1.5629198685784953,0.0,0.0003358546866721305,0.00020639634442263282,-1.0720400764624507,-0.5349886020355731,3.954705648669074e-10,0.4716648,-0.21330864,9.76913154,0.003547,-0.000996,0.002982,0.14820683988204003
1757070418.038485,2.6206495084299606,1.5666865088534971,0.0,0.00033313008351884874,0.0002047219651355321,-1.0720400764624507,-0.5349886020355731,3.714457667315771e-10,0.47226321000000004,-0.21120930000000002,9.77692068,0.002619,0.001026,0.00266,0.1483834522712501
1757070418.0606961,2.6267174723000073,1.5700967595724507,0.0,0.0003449136811494495,0.00020234870822096794,-1.0720400764624507,-0.5349886020355731,3.4828894140015107e-10,0.46687752000000005,-0.2200383,9.78005988,0.00416,0.001683,0.004305,0.14894484278327794
1757070418.0808256,2.632712188491144,1.573465628348044,0.0,0.0003424153184783318,0.00019734915966701264,-1.0720400764624507,-0.5349886020355731,3.2719737753108e-10,0.46433673000000003,-0.22168638000000002,9.77333022,0.003362,0.000383,0.004336,0.14807287246568654
1757070418.1010022,2.638646483995063,1.5768006034315143,0.0,0.00033449202823996726,0.0001906219435625925,-1.0720400764624507,-0.5349886020355731,3.072771621762434e-10,0.46538640000000003,-0.21075804,9.772280550000001,0.002817,-0.000167,0.00178,0.14854307640629325
1757070418.1213698,2.638646483995063,1.5768006034315143,0.0,0.00033449202823996726,0.0001906219435625925,-1.0720400764624507,-0.5349886020355731,3.072771621762434e-10,0.46538640000000003,-0.21075804,9.772280550000001,0.002817,-0.000167,0.00178,0.14854307640629325
1757070418.1438684,2.650341525106129,1.5833730020353864,0.0,0.00037333985036576986,0.00021045704394027077,-1.0720400764624507,-0.5349886020355731,2.694041210620894e-10,0.46867275,-0.21780162,9.78230637,0.001349,-0.00101,0.004026,0.1484204626891274
1757070418.1646504,2.6560877812344357,1.586602268675162,0.0,0.0003591517389198236,0.000202236778270591,-1.0720400764624507,-0.5349886020355731,2.531365038218272e-10,0.47182176000000003,-0.21974400000000002,9.77032836,0.003336,-0.000672,0.003285,0.1479671344746359
1757070418.1855233,2.6617796359443635,1.5898009690641457,0.0,0.0003387555122881059,0.00019058714565598124,-1.0720400764624507,-0.5349886020355731,2.3763972156383687e-10,0.46538640000000003,-0.210915,9.77092677,0.003423,-0.000979,0.005164,0.1489018885418017
1757070418.2057025,2.667412344011717,1.5929664281398654,0.0,0.0003317564456893012,0.00018655019332448205,-1.0720400764624507,-0.5349886020355731,2.2296361251794551e-10,0.47242017000000003,-0.22768029,9.771829290000001,0.002667,-0.00028,0.003241,0.14916096835765466
1757070418.227245,2.6729880458137028,1.5960998505553154,0.0,0.0003231470770163805,0.0001816642539905263,-1.0720400764624507,-0.5349886020355731,2.0946430986536006e-10,0.47376414,-0.22123512,9.771682140000001,0.00342,0.000533,0.003287,0.1524323479447226
1757070418.2479537,2.678495434323994,1.5991948804342802,0.0,0.00031336197655516243,0.00017613725933950163,-1.0720400764624507,-0.5349886020355731,1.9682983065922187e-10,0.47376414,-0.22123512,9.771682140000001,0.00342,0.000533,0.003287,0.14889141262160535
1757070418.271785,2.6893565344965813,1.6052985792846246,0.0,0.00031726994228213894,0.00017830850909101244,-1.0720400764624507,-0.5349886020355731,1.7349011755679838e-10,0.47361699000000007,-0.22632651000000004,9.77273181,0.002583,-0.000671,0.003503,0.14884662682594124
1757070418.2921226,2.6947034923141397,1.60830345157766,0.0,0.0003104755682704759,0.00017448575129482292,-1.0720400764624507,-0.5349886020355731,1.6299685159486356e-10,0.45730296,-0.22453128,9.772133400000001,0.00188,-0.000189,0.004996,0.1492101629478773
1757070418.312362,2.6999961034159297,1.6112777821871815,0.0,0.00030628635199491435,0.0001721290420058909,-1.0720400764624507,-0.5349886020355731,1.5313596043469108e-10,0.46658322,-0.21764466000000002,9.767493270000001,0.002235,-0.000549,0.003887,0.14933714213470875
1757070418.333327,2.705235593164603,1.6142222597572293,0.0,0.00030431195619668025,0.00017101813889589906,-1.0720400764624507,-0.5349886020355731,1.4386117403119412e-10,0.46104057,-0.21285737999999998,9.767787570000001,0.003282,0.000872,0.003975,0.14944563915393683
1757070418.3534348,2.7104229028144617,1.6171374132572385,0.0,0.0003037252139804805,0.0001706876833168698,-1.0720400764624507,-0.5349886020355731,1.351316527388887e-10,0.47256732,-0.2168991,9.775723860000001,0.003842,-0.000659,0.004399,0.14954934573853268
1757070418.3768232,2.715561615190958,1.6200252561616715,0.0,0.0003100063647477028,0.00017421714478114332,-1.0720400764624507,-0.5349886020355731,1.2679663002600503e-10,0.46792719,-0.22722903,9.77646942,0.003823,-0.000356,0.00386,0.14993500402826415
1757070418.3976839,2.7206455265480947,1.6228823020963035,0.0,0.0003080967582065037,0.00017314380490458881,-1.0720400764624507,-0.5349886020355731,1.190991182629466e-10,0.46762308,-0.22558095000000003,9.77392863,0.004426,0.000651,0.004845,0.14947201398224005
1757070418.4180822,2.7206455265480947,1.6228823020963035,0.0,0.0003080967582065037,0.00017314380490458881,-1.0720400764624507,-0.5349886020355731,1.190991182629466e-10,0.46762308,-0.22558095000000003,9.77392863,0.004426,0.000651,0.004845,0.14947201398224005
1757070418.4402688,2.7306796273205935,1.628521245190158,0.0,0.000336610802758942,0.00018916789727801124,-1.0720400764624507,-0.5349886020355731,1.0453167194532915e-10,0.47091924,-0.2168991,9.76164651,0.002331,-0.001363,0.004547,0.1494805418276295
1757070418.4606845,2.7356215209501116,1.6312984802976813,0.0,0.00032369499432291114,0.00018190947164178255,-1.0720400764624507,-0.5349886020355731,9.806259847442268e-11,0.47226321000000004,-0.20597076000000003,9.77077962,0.004088,7.3e-05,0.004514,0.14985584797283943
1757070418.4811182,2.7405109028717645,1.6340462049844675,0.0,0.0003090140214107686,0.00017365907615899556,-1.0720400764624507,-0.5349886020355731,9.215629258387894e-11,0.46522944000000005,-0.21075804,9.7607538,0.003719,-0.001006,0.004284,0.14939845256155304
1757070418.5022967,2.7453556298317845,1.6367688345689337,0.0,0.00029477365681496973,0.00016565629716754096,-1.0720400764624507,-0.5349886020355731,8.659060211999318e-11,0.46223739,-0.22244175000000002,9.76195062,0.000743,-0.000536,0.005374,0.14992029755078268
1757070418.5235207,2.750154064883279,1.6394654491228358,0.0,0.00028943983342677806,0.00016265880132984852,-1.0720400764624507,-0.5349886020355731,8.133642590949608e-11,0.47091924,-0.20851155000000002,9.78470001,0.003147,-0.000415,0.004836,0.15017902901888602
1757070418.544565,2.754905908544324,1.6421358803439592,0.0,0.0002873012648522044,0.00016145697046208415,-1.0720400764624507,-0.5349886020355731,7.640945345466976e-11,0.48199473000000004,-0.22648347000000002,9.78110955,0.002478,0.001982,0.004818,0.15018696659902345
1757070418.5649302,2.7596127310344154,1.644781010661024,0.0,0.00028618857239201946,0.00016083166049137303,-1.0720400764624507,-0.5349886020355731,7.177973405155752e-11,0.47586348000000006,-0.21539817000000003,9.7695828,0.003562,0.000244,0.003155,0.1502792164035921
1757070418.585131,2.7642780672826763,1.647402826626158,0.0,0.000292359196396221,0.000164299414150101,-1.0720400764624507,-0.5349886020355731,6.735592731932676e-11,0.47510811000000003,-0.22572810000000001,9.787692060000001,0.001108,-3.2e-05,0.003241,0.15070601386329685
1757070418.6061635,2.7642780672826763,1.647402826626158,0.0,0.000292359196396221,0.000164299414150101,-1.0720400764624507,-0.5349886020355731,6.735592731932676e-11,0.47510811000000003,-0.22572810000000001,9.787692060000001,0.001108,-3.2e-05,0.003241,0.15070601386329685
1757070418.6263564,2.773487807514102,1.6525784972935005,0.0,0.0003226424439861487,0.0001813179300728098,-1.0720400764624507,-0.5349886020355731,5.909424754156054e-11,0.47974824000000005,-0.22123512,9.774968490000001,0.003133,-0.001152,0.004219,0.15197789684575586
1757070418.646984,2.7780171064576944,1.6551238632969751,0.0,0.0003106824585111898,0.00017459668222417928,-1.0720400764624507,-0.5349886020355731,5.5545412004923637e-11,0.47974824000000005,-0.22123512,9.774968490000001,0.003133,-0.001152,0.004219,0.14973844973878167
1757070418.672392,2.7869651293233964,1.660152454583254,0.0,0.00028980256500372233,0.00016286264299091117,-1.0720400764624507,-0.5349886020355731,4.8960750967366005e-11,0.46957527000000004,-0.22378572,9.775871010000001,0.003597,0.000704,0.006015,0.15039763667782638
1757070418.693372,2.7913763062552137,1.662631438624141,0.0,0.0002805877795853986,0.00015768413702302184,-1.0720400764624507,-0.5349886020355731,4.59988975743327e-11,0.47091924,-0.21809592,9.77347737,0.003947,0.000481,0.003368,0.1507538559950804
1757070418.7136528,2.7913763062552137,1.662631438624141,0.0,0.0002805877795853986,0.00015768413702302184,-1.0720400764624507,-0.5349886020355731,4.59988975743327e-11,0.47091924,-0.21809592,9.77347737,0.003947,0.000481,0.003368,0.1507538559950804
1757070418.7358577,2.795759953999442,1.6650949518694227,0.0,0.00031315817143908294,0.00017598797810842087,-1.0720400764624507,-0.5349886020355731,4.302622757642648e-11,0.46658322,-0.2228832,9.76599234,0.002776,-0.000468,0.004694,0.15210280675590432
1757070418.7561567,2.8043835944267217,1.6699412473873774,0.0,0.0003050532221693268,0.00017143317556315174,-1.0720400764624507,-0.5349886020355731,3.79179785369779e-11,0.46912401000000004,-0.22019526000000003,9.783208890000001,0.002692,-0.002135,0.003788,0.15026128572516276
1757070418.779692,2.808642522323792,1.6723346708322575,0.0,0.0002904824215056528,0.00016324470729878575,-1.0720400764624507,-0.5349886020355731,3.558699273231168e-11,0.46178613,-0.21929274,9.77108373,0.003339,-0.002252,0.005135,0.15136266529989315
1757070418.8002205,2.8128590890648733,1.6747042882427676,0.0,0.00028033118909214427,0.00015753993881171386,-1.0720400764624507,-0.5349886020355731,3.343018017403074e-11,0.45280998,-0.21809592,9.76883724,0.003181,-0.001199,0.00505,0.1510444572079927
1757070418.8208432,2.817037633334034,1.67705253786356,0.0,0.0002705667431781708,0.0001520525357977998,-1.0720400764624507,-0.5349886020355731,3.142213791751108e-11,0.47391129,-0.23605803000000003,9.767189160000001,0.004702,-0.000108,0.004886,0.15106953436823745
1757070418.8409588,2.821180822599993,1.6793809187531594,0.0,0.0002669909501496452,0.0001500430190658065,-1.0720400764624507,-0.5349886020355731,2.9517934178919504e-11,0.47002653,-0.21749751,9.77092677,0.003986,0.000191,0.002988,0.15149114790831514
1757070418.8611717,2.8252900872359143,1.681690234749703,0.0,0.0002745027852537954,0.00015426450453968476,-1.0720400764624507,-0.5349886020355731,2.7692580167176035e-11,0.46897686000000005,-0.22887711000000002,9.77032836,0.003936,0.001044,0.002996,0.15192236115006408
1757070418.8817225,2.829357611588799,1.6839760936287673,0.0,0.00027237272327782923,0.00015306745673897737,-1.0720400764624507,-0.5349886020355731,2.602630280132422e-11,0.45745011,-0.22423698,9.76195062,0.003701,-0.000166,0.002989,0.15114623093592053
1757070418.9020402,2.8333915849548896,1.686243097594029,0.0,0.00026577547601027123,0.00014935994943582494,-1.0720400764624507,-0.5349886020355731,2.445955436709185e-11,0.4713705,-0.2140542,9.76764042,0.00405,-0.001002,0.005352,0.15150820919012722
1757070418.9222105,2.8373920160323656,1.6884912515336723,0.0,0.0002654581106903257,0.00014918159713313454,-1.0720400764624507,-0.5349886020355731,2.296963073562413e-11,0.46822149,-0.21824307,9.771829290000001,0.004004,-0.000973,0.003225,0.1519117291819603
1757070418.942764,2.841356349840494,1.6907191196049374,0.0,0.0002647404677050215,0.00014877829762029128,-1.0720400764624507,-0.5349886020355731,2.1575792249778274e-11,0.46433673000000003,-0.21854718,9.780511140000002,0.001811,-0.002019,0.005274,0.15179711306536908
1757070418.9636176,2.845287366603364,1.6929282642323775,0.0,0.00026432043015398434,0.00014854224579065203,-1.0720400764624507,-0.5349886020355731,2.0261746981927987e-11,0.47496096000000004,-0.22453128,9.76254903,0.003537,-0.001602,0.004313,0.1519679097905418
1757070418.9837487,2.849186449223839,1.6951194625768686,0.0,0.00026784986707228904,0.00015052571141196318,-1.0720400764624507,-0.5349886020355731,1.901256098657422e-11,0.47720745000000003,-0.22273605000000002,9.77392863,0.002052,-0.000646,0.004119,0.1522639020520083
1757070419.004029,2.853048693795248,1.6972899587511356,0.0,0.0002648767843999298,0.00014885490459307083,-1.0720400764624507,-0.5349886020355731,1.7861427928369698e-11,0.47331288,-0.21015963000000001,9.77467419,0.00392,0.001162,0.004452,0.15179405230432186
1757070419.02584,2.853059058605981,1.697295783545922,0.0,0.0002648767843999298,0.00014885490459307083,-1.0720400764624507,-0.5349886020355731,1.7861427928369698e-11,0.45011223,-0.21584943000000004,9.77003406,0.003547,0.000281,0.004273,0.15984190254695843
1757070419.0462627,2.8606876972167568,1.701582910011741,0.0,0.0002861036049415565,0.0001607839090684761,-1.0720400764624507,-0.5349886020355731,1.5686602223579633e-11,0.46373832000000004,-0.2140542,9.784101600000001,0.003463,-0.001059,0.004666,0.15187252609335733
1757070419.0704076,2.868192238813311,1.7058002966955177,0.0,0.0002671015255827284,0.00015010516001753006,-1.0720400764624507,-0.5349886020355731,1.382844579275144e-11,0.48139632,-0.21479976,9.77721498,0.002045,0.000325,0.003861,0.15170797362696742
1757070419.0906546,2.871897246907416,1.7078824294411785,0.0,0.0002544007061542393,0.00014296757992131814,-1.0720400764624507,-0.5349886020355731,1.2996009601211277e-11,0.46897686000000005,-0.21046374,9.77826465,0.00258,-0.001854,0.006678,0.15228807662472538
1757070419.112673,2.875572066146751,1.7099475967170021,0.0,0.00025038439512403823,0.000140710501798858,-1.0720400764624507,-0.5349886020355731,1.2207217663502717e-11,0.46044216,-0.22632651000000004,9.780658290000002,0.001878,-0.000244,0.003411,0.15265254597910444
1757070419.1330657,2.875572066146751,1.7099475967170021,0.0,0.00025038439512403823,0.000140710501798858,-1.0720400764624507,-0.5349886020355731,1.2207217663502717e-11,0.46044216,-0.22632651000000004,9.780658290000002,0.001878,-0.000244,0.003411,0.15265254597910444
1757070419.1541944,2.8792268737711564,1.7120015179070731,0.0,0.00027397568878535333,0.00015396828796210266,-1.0720400764624507,-0.5349886020355731,1.1428266369827006e-11,0.46433673000000003,-0.21479976,9.76164651,0.002808,0.000931,0.003865,0.15539790073557852
1757070419.1754487,2.886423317719095,1.7160457605148447,0.0,0.0002655780637321539,0.00014924900809416608,-1.0720400764624507,-0.5349886020355731,1.007166161471677e-11,0.46223739,-0.21479976,9.771976440000001,0.003846,0.000355,0.003286,0.1525422775914579
1757070419.1962812,2.889978670127019,1.7180437900691343,0.0,0.00025402746948619383,0.00014275782915460438,-1.0720400764624507,-0.5349886020355731,9.463656243056595e-12,0.47646189000000005,-0.22467843,9.771829290000001,0.003061,0.000221,0.003139,0.15262301768748382
1757070419.216886,2.893506904476403,1.7200265798732668,0.0,0.00024873365533746475,0.0001397828224856443,-1.0720400764624507,-0.5349886020355731,8.886783391551839e-12,0.46223739,-0.22048956,9.77347737,0.003684,0.000161,0.004285,0.15309341355318573
1757070419.2369244,2.897004105920067,1.721991929869563,0.0,0.0002441583361266899,0.00013721159410809642,-1.0720400764624507,-0.5349886020355731,8.351330749951337e-12,0.46778004,-0.21465261000000002,9.78305193,0.003792,-0.000379,0.005241,0.1528580844302739
1757070419.2583907,2.900477424972753,1.7239438584894307,0.0,0.00024926080215851546,0.00014007906736015,-1.0720400764624507,-0.5349886020355731,7.835588176247016e-12,0.45370269,-0.21644784,9.77706783,0.002604,-0.000517,0.003637,0.1535682255694165
1757070419.2784164,2.9039176429856495,1.7258771850557781,0.0,0.00024714264924381084,0.00013888871218898556,-1.0720400764624507,-0.5349886020355731,7.363832262780375e-12,0.46508229,-0.21794877000000001,9.77362452,0.0018,0.000257,0.00569,0.15284330394869225
1757070419.2989597,2.9073343662982487,1.7277973081193003,0.0,0.00024626141482375326,0.0001383934779017717,-1.0720400764624507,-0.5349886020355731,6.913246306530384e-12,0.46373832000000004,-0.21360294000000002,9.78201207,0.003253,-0.000182,0.003959,0.15351821367225588
1757070419.3193328,2.9073343662982487,1.7277973081193003,0.0,0.00024626141482375326,0.0001383934779017717,-1.0720400764624507,-0.5349886020355731,6.913246306530384e-12,0.46373832000000004,-0.21360294000000002,9.78201207,0.003253,-0.000182,0.003959,0.15351821367225588
1757070419.344329,2.9140948139376204,1.7315965304280616,0.0,0.00027527824673961144,0.0001547002967730949,-1.0720400764624507,-0.5349886020355731,6.063171462126462e-12,0.46223739,-0.2168991,9.77766624,0.004985,0.000248,0.004238,0.15318761341404522
1757070419.3652267,2.917429035264126,1.7334702891969682,0.0,0.0002648888306854758,0.00014886167433957493,-1.0720400764624507,-0.5349886020355731,5.697188003100745e-12,0.45520362000000003,-0.22318731000000003,9.77317326,0.002726,0.001109,0.003452,0.15280553917079462
1757070419.3854358,2.9207446425620627,1.7353335872928,0.0,0.00025191135544672664,0.00014156861978630681,-1.0720400764624507,-0.5349886020355731,5.347199746566187e-12,0.47077209,-0.21316148999999998,9.76883724,0.001294,-0.000955,0.005386,0.15612690385199926
1757070419.4061146,2.9240236067203313,1.737176292753186,0.0,0.00024178642568014545,0.00013587863280677457,-1.0720400764624507,-0.5349886020355731,5.027021965983839e-12,0.47077209,-0.21316148999999998,9.76883724,0.001294,-0.000955,0.005386,0.15324564248146505
1757070419.430422,2.930515745738959,1.7408247315411003,0.0,0.00023507133446438262,0.00013210489980665287,-1.0720400764624507,-0.5349886020355731,4.435606965540752e-12,0.47017368,-0.21794877000000001,9.77377167,0.003903,0.000376,0.003849,0.15362425851215664
1757070419.4520566,2.9305219149894977,1.7408281985236917,0.0,0.00023507133446438262,0.00013210489980665287,-1.0720400764624507,-0.5349886020355731,4.435606965540752e-12,0.47122335000000004,-0.21300453,9.76972995,0.003034,-0.000248,0.003399,0.15901863280660816
1757070419.4728558,2.936907852242685,1.7444169542642676,0.0,0.00023465503183016265,0.00013187094691780659,-1.0720400764624507,-0.5349886020355731,3.912726575153261e-12,0.46373832000000004,-0.22153923,9.77871591,0.005029,0.000886,0.002929,0.15380415624850566
1757070419.4961247,2.9400689761290075,1.746193436093626,0.0,0.0002361202674783979,0.00013269437700103772,-1.0720400764624507,-0.5349886020355731,3.672642199647968e-12,0.47436255000000005,-0.21764466000000002,9.7695828,0.003746,0.000314,0.003816,0.15445299813634406
1757070419.5165436,2.9432025228507364,1.7479544201653618,0.0,0.00023357431256229415,0.00013126360655056794,-1.0720400764624507,-0.5349886020355731,3.4510245409254637e-12,0.46118772,-0.21255327,9.76584519,0.001913,-0.000102,0.005028,0.15400713822461484
1757070419.5365963,2.946315245820302,1.7497037017481516,0.0,0.0002336088770195545,0.00013128303101239634,-1.0720400764624507,-0.5349886020355731,3.2397752863697997e-12,0.45370269,-0.21166056000000003,9.76224492,0.00325,-0.000592,0.002857,0.1545516732315566
1757070419.5566375,2.9494022944487983,1.7514385549181264,0.0,0.0002317205094321126,0.0001302218101217014,-1.0720400764624507,-0.5349886020355731,3.0432265683898743e-12,0.47615778,-0.21840003000000002,9.76584519,0.00325,-0.000651,0.004645,0.15432336710171973
1757070419.5772839,2.9494090710366203,1.7514423632108613,0.0,0.0002317205094321126,0.0001302218101217014,-1.0720400764624507,-0.5349886020355731,3.0432265683898743e-12,0.47017368,-0.21046374,9.75865446,0.003008,-0.000149,0.003281,0.1603358499159064
1757070419.600019,2.9555125048654833,1.7548723582643866,0.0,0.00023827432452373912,0.00013390490950088938,-1.0720400764624507,-0.5349886020355731,2.6781062710932385e-12,0.46223739,-0.2225889,9.75880161,0.003483,-0.003268,0.003999,0.1545245349507299
1757070419.620849,2.9555125048654833,1.7548723582643866,0.0,0.00023827432452373912,0.00013390490950088938,-1.0720400764624507,-0.5349886020355731,2.6781062710932385e-12,0.46223739,-0.2225889,9.75880161,0.003483,-0.003268,0.003999,0.1545245349507299
1757070419.641019,2.9585418853342693,1.7565748032018653,0.0,0.0002574612767268565,0.00014468755300850057,-1.0720400764624507,-0.5349886020355731,2.504324239584864e-12,0.47780586,-0.21240612000000003,9.77781339,0.003417,0.001117,0.005815,0.15575028442726116
1757070419.6683,2.9645211488789402,1.7599350172972423,0.0,0.0002504252607567273,0.00014073346738215312,-1.0720400764624507,-0.5349886020355731,2.3447660652122243e-12,0.45535077,-0.21271023000000003,9.760155390000001,0.005116,-0.000597,0.004087,0.1546749718326532
1757070419.688763,2.967476165672805,1.7615956714912977,0.0,0.0002378497677138666,0.00013366631794757127,-1.0720400764624507,-0.5349886020355731,2.063370589965508e-12,0.46058931000000003,-0.21914559000000003,9.774968490000001,0.002445,-0.000712,0.0032,0.15457181879004
1757070419.70883,2.9704128955177524,1.7632460488238209,0.0,0.00022597982779851624,0.00012699567379267562,-1.0720400764624507,-0.5349886020355731,1.9376100348635656e-12,0.46986957000000007,-0.22048956,9.75805605,0.002668,-0.001967,0.002992,0.15770114819786935
1757070419.729006,2.9733197780861533,1.7648796526459254,0.0,0.0002164452989996218,0.00012163747912146427,-1.0720400764624507,-0.5349886020355731,1.8215238800009206e-12,0.46986957000000007,-0.22048956,9.75805605,0.002668,-0.001967,0.002992,0.15470354280215723
1757070419.7553475,2.9790784951643414,1.7681159244966058,0.0,0.00021234849782859636,0.00011933516731701041,-1.0720400764624507,-0.5349886020355731,1.6081497737857185e-12,0.45924534000000006,-0.21450546,9.760155390000001,0.002214,-0.002317,0.005352,0.15513697169006296
1757070419.778716,2.9819286673509993,1.769717658336285,0.0,0.00021830792726033915,0.00012268423507884107,-1.0720400764624507,-0.5349886020355731,1.5093844530142998e-12,0.46298295,-0.2080701,9.768690090000002,0.003185,6e-06,0.002806,0.15576058997364067
1757070419.7992215,2.9847544330196087,1.771305676251695,0.0,0.0002177795943199774,0.00012238732363147094,-1.0720400764624507,-0.5349886020355731,1.4185764138191408e-12,0.4773546,-0.22917141000000002,9.76988691,0.003031,0.001094,0.004659,0.15517570696095756
1757070419.8193853,2.98756298145462,1.7728840184619636,0.0,0.0002186555926946981,0.0001228796153768126,-1.0720400764624507,-0.5349886020355731,1.3319308514103808e-12,0.46957527000000004,-0.22244175000000002,9.76464837,0.004297,0.001072,0.003407,0.15577326910612377
1757070419.840118,2.9903480592903584,1.7744491707136505,0.0,0.00021573069865935858,0.00012123588950796512,-1.0720400764624507,-0.5349886020355731,1.2521301808989312e-12,0.4628358,-0.21120930000000002,9.77976558,0.005352,0.000231,0.004373,0.1553085638524967
1757070419.8608236,2.993118022260778,1.7760058287447507,0.0,0.00022034453433021812,0.000123828763285672,-1.0720400764624507,-0.5349886020355731,1.1749263802741743e-12,0.46837845000000006,-0.21959685,9.772133400000001,0.003049,-0.000431,0.004282,0.1561850068488758
1757070419.8811965,2.993118022260778,1.7760058287447507,0.0,0.00022034453433021812,0.000123828763285672,-1.0720400764624507,-0.5349886020355731,1.1749263802741743e-12,0.46837845000000006,-0.21959685,9.772133400000001,0.003049,-0.000431,0.004282,0.1561850068488758
1757070419.9013531,2.995874593903008,1.7775549611450767,0.0,0.00024355922903894392,0.0001368749091525255,-1.0720400764624507,-0.5349886020355731,1.0989217575756629e-12,0.46403262,-0.21840003000000002,9.76539393,0.003049,-0.000431,0.004282,0.15690209996445043
1757070419.9217324,2.995874593903008,1.7775549611450767,0.0,0.00024355922903894392,0.0001368749091525255,-1.0720400764624507,-0.5349886020355731,1.0989217575756629e-12,0.46403262,-0.21840003000000002,9.76539393,0.003049,-0.000431,0.004282,0.15690209996445043
1757070419.9423027,3.001330862274028,1.7806212635001224,0.0,0.00026215034240705177,0.00014732270439044346,-1.0720400764624507,-0.5349886020355731,9.596226980178425e-13,0.47570652,-0.21479976,9.75836016,0.002931,0.000673,0.004809,0.15577495296152255
1757070419.9629695,3.006698934176271,1.7836380013870132,0.0,0.0002328372212412595,0.00013084937750245578,-1.0720400764624507,-0.5349886020355731,8.462072435307475e-13,0.46358136,-0.21749751,9.77407578,0.003727,0.001204,0.005188,0.15518555555637623
1757070419.9834623,3.009356118202871,1.785131280141744,0.0,0.00021386006935458795,0.00012018463714048611,-1.0720400764624507,-0.5349886020355731,7.953332447118941e-13,0.48094506000000004,-0.22273605000000002,9.7692885,0.002725,0.000377,0.005762,0.15603877651978948
1757070420.003448,3.0119920910653772,1.7866126386905774,0.0,0.00020196325772640485,0.00011349889167628153,-1.0720400764624507,-0.5349886020355731,7.483103519038881e-13,0.47122335000000004,-0.22079367,9.76628664,0.003993,0.001224,0.003261,0.15590107319921187
1757070420.0251958,3.0146148185141874,1.7880865536093604,0.0,0.00019960422956937204,0.0001121731699372359,-1.0720400764624507,-0.5349886020355731,7.033413274961987e-13,0.47660904000000004,-0.22588506000000003,9.7664436,0.002692,-6.3e-05,0.003917,0.15948390403766755
1757070420.0458755,3.0172109298243326,1.789545510845874,0.0,0.00019755409102733415,0.00011102103734181424,-1.0720400764624507,-0.5349886020355731,6.617137681461615e-13,0.47660904000000004,-0.22588506000000003,9.7664436,0.002692,-6.3e-05,0.003917,0.15622838810527917
1757070420.06725,3.0158538145466935,1.7888206462679948,0.0,3.169735330504988e-05,1.9527645917873754e-05,-1.0720400764624507,-0.5349886020355731,6.208417075514165e-13,0.47091924,-0.21630069,9.76898439,0.002655,0.000562,0.004372,0.15910596192937526
1757070420.0881875,3.014503592966224,1.7880993239869054,0.0,-2.7903710126545193e-05,-1.3385825229771378e-05,-1.0720400764624507,-0.5349886020355731,5.837608956126655e-13,0.47091924,-0.21630069,9.76898439,0.002655,0.000562,0.004372,0.1562292920990474
1757070420.1112156,3.011830789765614,1.7866715306993783,0.0,-8.417609785072716e-05,-4.452259278063308e-05,-1.0720400764624507,-0.5349886020355731,5.154951585279086e-13,0.46268865000000003,-0.21584943000000004,9.78036399,0.003079,0.001473,0.00255,0.15666873062236275
1757070420.1354332,3.0105071860325796,1.78596446732898,0.0,-9.591960509525517e-05,-5.1010910367481115e-05,-1.0720400764624507,-0.5349886020355731,4.84147484511692e-13,0.47930679000000004,-0.22273605000000002,9.77317326,0.003254,8.7e-05,0.004079,0.15719866358827023
1757070420.155796,3.0091938671946252,1.7852628944042157,0.0,-9.982752592250301e-05,-5.319788952617275e-05,-1.0720400764624507,-0.5349886020355731,4.552152994408801e-13,0.46268865000000003,-0.20926692000000002,9.77077962,0.003388,0.000823,0.003139,0.1567623892510525
1757070420.1768813,3.007887392353516,1.7845649789606042,0.0,-0.00010500899760860833,-5.603078372991131e-05,-1.0720400764624507,-0.5349886020355731,4.273118846971558e-13,0.46163898000000003,-0.21539817000000003,9.76180347,0.00305,0.001253,0.003644,0.15754550814222812
1757070420.1974733,3.006591369324278,1.7838726454279001,0.0,-0.00010588633714684856,-5.652811960059071e-05,-1.0720400764624507,-0.5349886020355731,4.0155597402334335e-13,0.46029501,-0.21899844000000002,9.77092677,0.002953,-0.0007,0.004005,0.15703309002965418
1757070420.2178462,3.006591369324278,1.7838726454279001,0.0,-0.00010588633714684856,-5.652811960059071e-05,-1.0720400764624507,-0.5349886020355731,4.0155597402334335e-13,0.46029501,-0.21899844000000002,9.77092677,0.002953,-0.0007,0.004005,0.15703309002965418
1757070420.238697,3.0052977724261467,1.7831816087515402,0.0,-0.00012136713248918281,-6.481895066611353e-05,-1.0720400764624507,-0.5349886020355731,3.754742570281974e-13,0.46134468,-0.22184334,9.76883724,0.002953,-0.0007,0.004005,0.15861879937329257
1757070420.2591395,3.0027461984435706,1.781818561685705,0.0,-0.00011868940610078713,-6.339843532539438e-05,-1.0720400764624507,-0.5349886020355731,3.30642636769995e-13,0.47226321000000004,-0.2080701,9.76539393,0.002949,-0.001154,0.003991,0.15680990525685165
1757070420.2799637,3.0014834203360294,1.7811439875592763,0.0,-0.00011087916934277952,-5.922831929647291e-05,-1.0720400764624507,-0.5349886020355731,3.109545420203307e-13,0.46089342000000005,-0.21630069,9.76464837,0.001427,0.000995,0.003428,0.15696621404020983
1757070420.3000093,3.000227086965368,1.7804728562321546,0.0,-0.00010702795805992929,-5.7172558314735936e-05,-1.0720400764624507,-0.5349886020355731,2.919685657710704e-13,0.46942812,-0.20956122,9.76508982,0.003703,0.000823,0.003128,0.15798403947151074
1757070420.3205974,2.9989810132039536,1.7798072055349825,0.0,-0.00010420597927063285,-5.566575777118401e-05,-1.0720400764624507,-0.5349886020355731,2.7448806166490787e-13,0.47555937000000004,-0.20207619000000002,9.771378030000001,0.00451,-0.001084,0.003851,0.15746643790540354
1757070420.3406699,2.997741709412122,1.7791451713538073,0.0,-0.00010351669382340909,-5.529798366101006e-05,-1.0720400764624507,-0.5349886020355731,2.5780640839998997e-13,0.47032083,-0.22333446,9.78141366,0.004346,-0.000212,0.003635,0.15806212464183675
1757070420.3610046,2.9965117255930087,1.7784881158804295,0.0,-0.00010222782465225857,-5.460968206814206e-05,-1.0720400764624507,-0.5349886020355731,2.42342150920794e-13,0.46658322,-0.22019526000000003,9.7692885,0.003105,-0.001868,0.003072,0.15774580287942996
1757070420.3821795,2.9952873559180113,1.7778340594769966,0.0,-0.00010584475522439096,-5.654197763809774e-05,-1.0720400764624507,-0.5349886020355731,2.2732805851897403e-13,0.45549792000000006,-0.22677777,9.75356307,0.003868,0.000859,0.003295,0.15860711161288854
1757070420.402963,2.9940734742741726,1.7771856057600117,0.0,-0.00010535429531212738,-5.628002918075255e-05,-1.0720400764624507,-0.5349886020355731,2.136354097373015e-13,0.4625415,-0.21180771,9.775871010000001,0.004303,-0.00095,0.003984,0.15775065594406557
1757070420.423702,2.9928653248805746,1.7765402142034987,0.0,-0.00010520140725704837,-5.6198392985524276e-05,-1.0720400764624507,-0.5349886020355731,2.0050393367670795e-13,0.47346984000000003,-0.22199049,9.760155390000001,0.003033,0.000267,0.004315,0.15852849925918797
1757070420.4446325,2.9916666225447255,1.7758998692500323,0.0,-0.00010349744050747823,-5.528815301388483e-05,-1.0720400764624507,-0.5349886020355731,1.8840608223225705e-13,0.46522944000000005,-0.22543380000000002,9.771976440000001,0.003781,4e-05,0.004037,0.15804958174811087
1757070420.4655998,2.990473978970354,1.7752627608778881,0.0,-0.00010346685161199775,-5.527182291561347e-05,-1.0720400764624507,-0.5349886020355731,1.7683235891349654e-13,0.46702467,-0.22019526000000003,9.76613949,0.002159,2.9e-05,0.004223,0.15869827048049984
1757070420.4864578,2.989289796913201,1.7746301726351243,0.0,-0.00010291333612600501,-5.49761408098343e-05,-1.0720400764624507,-0.5349886020355731,1.6603871249893102e-13,0.47122335000000004,-0.21720321,9.77362452,0.003271,0.000334,0.002622,0.15850031055658215
1757070420.506828,2.989289796913201,1.7746301726351243,0.0,-0.00010291333612600501,-5.49761408098343e-05,-1.0720400764624507,-0.5349886020355731,1.6603871249893102e-13,0.47122335000000004,-0.21720321,9.77362452,0.003271,0.000334,0.002622,0.15850031055658215
1757070420.527482,2.9892838189748714,1.7746269792299572,0.0,-0.00010291333612600501,-5.49761408098343e-05,-1.0720400764624507,-0.5349886020355731,1.6603871249893102e-13,0.45774441000000005,-0.21869433000000002,9.77407578,0.003539,6e-06,0.002819,0.17046058259835112
1757070420.5504253,2.985767745222984,1.7727486980120999,0.0,-0.00012560968761306989,-6.710050215346552e-05,-1.0720400764624507,-0.5349886020355731,1.3566965123707808e-13,0.4801995,-0.21106215,9.779314320000001,0.001849,-0.000661,0.003333,0.1581433579808048
1757070420.5715456,2.984611559862806,1.7721310655619855,0.0,-0.00011709696708861326,-6.255302014880501e-05,-1.0720400764624507,-0.5349886020355731,1.2746037114534956e-13,0.4504163400000001,-0.19923129,9.76090095,0.005044,8.8e-05,0.002739,0.15793770251403255
1757070420.5919375,2.9823204348974963,1.7709071501115978,0.0,-9.944815150445118e-05,-5.312505018588003e-05,-1.0720400764624507,-0.5349886020355731,1.126622899057892e-13,0.46508229,-0.18262296000000003,9.783650340000001,0.004501,0.001563,0.004016,0.15829107825632832
1757070420.6128318,2.9823176075406157,1.7709056397418834,0.0,-9.944815150445118e-05,-5.312505018588003e-05,-1.0720400764624507,-0.5349886020355731,1.126622899057892e-13,0.44712018000000003,-0.2314179,9.767787570000001,0.00323,8.3e-05,0.002967,0.16413353889850057
1757070420.6338048,2.9800573532349732,1.7696982153506433,0.0,-9.56768838919828e-05,-5.111044491499544e-05,-1.0720400764624507,-0.5349886020355731,9.952166953532713e-14,0.47002653,-0.23081949000000002,9.76254903,0.002782,-0.001291,0.003091,0.15894696625709717
1757070420.6571472,2.9789356088788295,1.7690989812321822,0.0,-9.719213924595618e-05,-5.191989202959342e-05,-1.0720400764624507,-0.5349886020355731,9.345612886697997e-14,0.46029501,-0.17633475,9.78934014,0.003692,-0.00076,0.002988,0.15966957438969542
1757070420.6777399,2.9778226966041825,1.7685044651981405,0.0,-9.63963750451954e-05,-5.1494796021383295e-05,-1.0720400764624507,-0.5349886020355731,8.789104316255294e-14,0.46867275,-0.21316148999999998,9.760008240000001,0.004692,-0.000106,0.005861,0.15903088872511711
1757070420.6983802,2.9767147061102657,1.7679125783718337,0.0,-9.760907927430615e-05,-5.214262077156128e-05,-1.0720400764624507,-0.5349886020355731,8.252831116227963e-14,0.47196891,-0.24294465,9.7667379,0.001831,-0.000389,0.005165,0.15985117138488375
1757070420.7190878,2.9756152302781236,1.7673252400648165,0.0,-9.679013030543728e-05,-5.170513948861472e-05,-1.0720400764624507,-0.5349886020355731,7.758808909939093e-14,0.47226321000000004,-0.20791314000000002,9.767787570000001,0.003238,0.00105,0.005204,0.1593104853839998
1757070420.739829,2.974520834721234,1.7667406156330652,0.0,-9.757044395023386e-05,-5.212198184548207e-05,-1.0720400764624507,-0.5349886020355731,7.284763296631637e-14,0.45999090000000004,-0.23172201,9.77886306,0.003341,0.000743,0.002895,0.15999829468660198
1757070420.7598825,2.973434676294936,1.7661603914638706,0.0,-9.650603041951923e-05,-5.1553373767094755e-05,-1.0720400764624507,-0.5349886020355731,6.847808987408547e-14,0.48244599000000005,-0.25356888,9.76568823,0.000713,0.000587,0.002515,0.1594987302571722
1757070420.7806265,2.9723535230633793,1.765582841062047,0.0,-9.707650468363464e-05,-5.1858120246546794e-05,-1.0720400764624507,-0.5349886020355731,6.42883399465019e-14,0.46433673000000003,-0.20911977,9.77661657,0.004845,0.001239,0.003843,0.1601746363944303
1757070420.801527,2.971280249460334,1.7650094999457164,0.0,-9.615404187842686e-05,-5.13653420278898e-05,-1.0720400764624507,-0.5349886020355731,6.041252142096474e-14,0.47974824000000005,-0.21943989,9.76809168,0.004171,0.000304,0.003772,0.15976703635124004
1757070420.8219194,2.971280249460334,1.7650094999457164,0.0,-9.615404187842686e-05,-5.13653420278898e-05,-1.0720400764624507,-0.5349886020355731,6.041252142096474e-14,0.47974824000000005,-0.21943989,9.76809168,0.004171,0.000304,0.003772,0.15976703635124004
1757070420.842435,2.9691478101594266,1.7638703541344154,0.0,-0.0001066695710490929,-5.698272161932328e-05,-1.0720400764624507,-0.5349886020355731,5.3037549229769534e-14,0.45745011,-0.19938825000000002,9.77632227,0.004515,-0.00114,0.004067,0.1598506830611522
1757070420.8628035,2.9680925595883285,1.7633066408941707,0.0,-0.00010238176539886753,-5.469218240257869e-05,-1.0720400764624507,-0.5349886020355731,4.979967746980799e-14,0.47615778,-0.19803447000000002,9.76688505,0.003454,-0.001634,0.002508,0.1599323794698523
1757070420.8833077,2.967044289577651,1.7627466566586205,0.0,-9.70882888732942e-05,-5.186441534317273e-05,-1.0720400764624507,-0.5349886020355731,4.68156256343387e-14,0.45999090000000004,-0.21869433000000002,9.76988691,0.002903,0.001258,0.00581,0.15984034304693034
1757070420.9052954,2.965999310245503,1.7621884302985045,0.0,-9.544829889530996e-05,-5.0988335206601456e-05,-1.0720400764624507,-0.5349886020355731,4.394129639946117e-14,0.48454533,-0.22588506000000003,9.77273181,0.004033,-0.000945,0.004869,0.16340145245144203
1757070420.9258816,2.964964793808878,1.761635793201166,0.0,-9.357459459701345e-05,-4.998740523776192e-05,-1.0720400764624507,-0.5349886020355731,4.1299469903374635e-14,0.48454533,-0.22588506000000003,9.77273181,0.004033,-0.000945,0.004869,0.1601987197947918
1757070420.9490228,2.9629099298954156,1.7605380880431247,0.0,-9.309926736381876e-05,-4.9733486157181616e-05,-1.0720400764624507,-0.5349886020355731,3.643000868523972e-14,0.46627911,-0.21899844000000002,9.78904584,0.003329,0.000283,0.003026,0.16035242603931021
1757070420.9694247,2.9629099298954156,1.7605380880431247,0.0,-9.309926736381876e-05,-4.9733486157181616e-05,-1.0720400764624507,-0.5349886020355731,3.643000868523972e-14,0.46627911,-0.21899844000000002,9.78904584,0.003329,0.000283,0.003026,0.16035242603931021
1757070420.9899642,2.96188986100367,1.7599931688021522,0.0,-9.593931304501277e-05,-5.125063421399248e-05,-1.0720400764624507,-0.5349886020355731,3.416155651365683e-14,0.46642626,-0.20866851000000003,9.76883724,0.003507,-0.000928,0.004183,0.16137902307060792
1757070421.0103502,2.9608758511979656,1.7594514863156705,0.0,-9.87768723556221e-05,-5.276645405544127e-05,-1.0720400764624507,-0.5349886020355731,3.2013066155253756e-14,0.45759726,-0.22348161,9.76659075,0.002896,-0.000851,0.003555,0.16135701864353624
1757070421.031344,2.9588689673890203,1.7583794120560392,0.0,-9.422588865351013e-05,-5.033532552608304e-05,-1.0720400764624507,-0.5349886020355731,2.8241850998595407e-14,0.45819567,-0.20447964000000002,9.77692068,0.00259,-0.000489,0.005362,0.16040534779912535
1757070421.0519483,2.9588689673890203,1.7583794120560392,0.0,-9.422588865351013e-05,-5.033532552608304e-05,-1.0720400764624507,-0.5349886020355731,2.8241850998595407e-14,0.45819567,-0.20447964000000002,9.77692068,0.00259,-0.000489,0.005362,0.16040534779912535
1757070421.0729873,2.95688363425731,1.7573188501352088,0.0,-9.19951568590053e-05,-4.914367201511779e-05,-1.0720400764624507,-0.5349886020355731,2.489829952880836e-14,0.47974824000000005,-0.22737618,9.78814332,0.003735,-0.000138,0.004512,0.16088061406848533
1757070421.0930307,2.95589993163646,1.7567933577004977,0.0,-8.983974096874938e-05,-4.799225214494736e-05,-1.0720400764624507,-0.5349886020355731,2.3394363563711656e-14,0.46448388,-0.22483539,9.77077962,0.00389,0.000474,0.00263,0.16127367373224386
1757070421.113458,2.95589993163646,1.7567933577004977,0.0,-8.983974096874938e-05,-4.799225214494736e-05,-1.0720400764624507,-0.5349886020355731,2.3394363563711656e-14,0.46448388,-0.22483539,9.77077962,0.00389,0.000474,0.00263,0.16127367373224386
1757070421.1349092,2.954918058781414,1.756268842723879,0.0,-9.996457834895162e-05,-5.340092477954768e-05,-1.0720400764624507,-0.5349886020355731,2.1889847709684534e-14,0.47062494000000005,-0.22393287,9.76269618,0.003923,0.001403,0.004743,0.16257347208852077
1757070421.1558945,2.9539452328812965,1.7557491606167388,0.0,-0.00010103471427238227,-5.397258975222961e-05,-1.0720400764624507,-0.5349886020355731,2.0529489944948716e-14,0.4713705,-0.21450546,9.76568823,0.003111,-2e-06,0.004029,0.1613138843542892
1757070421.176635,2.9529746841544755,1.7552306949720888,0.0,-0.00010144430606782221,-5.41913930625608e-05,-1.0720400764624507,-0.5349886020355731,1.9212914594015515e-14,0.45549792000000006,-0.21316148999999998,9.77856876,0.003257,-0.001271,0.002518,0.16232074985234718
1757070421.197224,2.9510563969468677,1.7542059488813142,0.0,-9.461097431450656e-05,-5.0541037696896084e-05,-1.0720400764624507,-0.5349886020355731,1.6945039460785327e-14,0.45849978,-0.2140542,9.77751909,0.002775,-0.000802,0.001444,0.16094428685553205
1757070421.2175987,2.9501045201299623,1.7536974577423676,0.0,-8.921705686531023e-05,-4.7659615249775415e-05,-1.0720400764624507,-0.5349886020355731,1.5921030785748547e-14,0.48005235,-0.21675195,9.77617512,0.00404,-0.00086,0.00415,0.1618382637404464
1757070421.2377336,2.9491591595640614,1.753192447574736,0.0,-8.574277442126101e-05,-4.5803658884812455e-05,-1.0720400764624507,-0.5349886020355731,1.4973019185560444e-14,0.46598481,-0.22108797000000002,9.76164651,0.003334,-0.000222,0.004801,0.16165089229573584
1757070421.2583678,2.9491591595640614,1.753192447574736,0.0,-8.574277442126101e-05,-4.5803658884812455e-05,-1.0720400764624507,-0.5349886020355731,1.4973019185560444e-14,0.46598481,-0.22108797000000002,9.76164651,0.003334,-0.000222,0.004801,0.16165089229573584
1757070421.2791579,2.947281143628693,1.7521892143359654,0.0,-9.254044835900315e-05,-4.943496589996449e-05,-1.0720400764624507,-0.5349886020355731,1.3181889590505613e-14,0.46268865000000003,-0.22632651000000004,9.76030254,0.004232,-9.9e-05,0.003808,0.16179038184681344
1757070421.3001971,2.9463510323355835,1.7516923503065236,0.0,-8.960298112215917e-05,-4.7865775397209436e-05,-1.0720400764624507,-0.5349886020355731,1.238925923288523e-14,0.46268865000000003,-0.22752333,9.76120506,0.003596,9.6e-05,0.002813,0.16198500538943264
1757070421.321093,2.94542622866916,1.751198321603135,0.0,-8.658435823857164e-05,-4.625323167215542e-05,-1.0720400764624507,-0.5349886020355731,1.1647728803226802e-14,0.47974824000000005,-0.21435831,9.77437008,0.005744,0.000316,0.003775,0.1621654643937928
1757070421.3421834,2.9445050291793486,1.7507062182453774,0.0,-8.84381381380668e-05,-4.724351805765116e-05,-1.0720400764624507,-0.5349886020355731,1.0930013667571068e-14,0.47630493,-0.20791314000000002,9.76284333,0.003048,-0.001852,0.004957,0.1629583452679626
1757070421.3626761,2.943591047144082,1.7502179704407923,0.0,-8.771027465175944e-05,-4.685469449710559e-05,-1.0720400764624507,-0.5349886020355731,1.0275424543681366e-14,0.46822149,-0.21151341,9.76135221,0.002037,-0.001652,0.005764,0.162123971878464
1757070421.3840487,2.942679336299434,1.7497309359027602,0.0,-9.042161638733114e-05,-4.8303089103117884e-05,-1.0720400764624507,-0.5349886020355731,9.635591676643823e-15,0.47481381,-0.21225897000000002,9.767493270000001,0.00272,-0.001194,0.003624,0.16327352140827345
1757070421.4042964,2.941775237720333,1.749247967825334,0.0,-8.974319503253992e-05,-4.794067745356756e-05,-1.0720400764624507,-0.5349886020355731,9.054938778371279e-15,0.47450970000000003,-0.21840003000000002,9.75805605,0.004038,-0.00023,0.006053,0.1622813589703443
1757070421.425956,2.941771676389038,1.749246065367606,0.0,-8.974319503253992e-05,-4.794067745356756e-05,-1.0720400764624507,-0.5349886020355731,9.054938778371279e-15,0.46089342000000005,-0.21794877000000001,9.764795520000002,0.00414,0.000438,0.001473,0.1704426154213014
1757070421.4467545,2.939976745514046,1.7482872160409444,0.0,-9.496316640673588e-05,-5.0729178173610355e-05,-1.0720400764624507,-0.5349886020355731,7.95466744263932e-15,0.47990520000000003,-0.20402838,9.76599234,0.004677,-0.001004,0.005055,0.16259659115074665
1757070421.4680421,2.939083931353059,1.7478102760824064,0.0,-9.230313006089105e-05,-4.9308190828278184e-05,-1.0720400764624507,-0.5349886020355731,7.459206520127155e-15,0.46313991000000004,-0.20776599,9.78005988,0.005104,-0.000585,0.000328,0.1651031967702745
1757070421.4905694,2.937318707587139,1.7468672962479503,0.0,-8.466431460530065e-05,-4.522754730147924e-05,-1.0720400764624507,-0.5349886020355731,6.589411242870637e-15,0.46882971,-0.21644784,9.77333022,0.002971,-0.001765,0.005631,0.16292590484847425
1757070421.5108786,2.936442742870193,1.746399357236635,0.0,-8.184885923414089e-05,-4.372353535065951e-05,-1.0720400764624507,-0.5349886020355731,6.195036284202862e-15,0.45594918,-0.22168638000000002,9.78215922,0.002511,-0.000797,0.003483,0.16314390351680866
1757070421.5312898,2.936442742870193,1.746399357236635,0.0,-8.184885923414089e-05,-4.372353535065951e-05,-1.0720400764624507,-0.5349886020355731,6.195036284202862e-15,0.45594918,-0.22168638000000002,9.78215922,0.002511,-0.000797,0.003483,0.16314390351680866
1757070421.552139,2.9347033947005072,1.74547020010609,0.0,-8.661745245934653e-05,-4.627091055424974e-05,-1.0720400764624507,-0.5349886020355731,5.458786876150148e-15,0.45999090000000004,-0.21780162,9.775419750000001,0.000936,-0.000613,0.002459,0.1630379215906814
1757070421.5725994,2.9347033947005072,1.74547020010609,0.0,-8.661745245934653e-05,-4.627091055424974e-05,-1.0720400764624507,-0.5349886020355731,5.458786876150148e-15,0.45999090000000004,-0.21780162,9.775419750000001,0.000936,-0.000613,0.002459,0.1630379215906814
1757070421.5927699,2.9329819655645264,1.744550615295929,0.0,-8.791919270837211e-05,-4.696629820324334e-05,-1.0720400764624507,-0.5349886020355731,4.807097196293402e-15,0.45310428,-0.21450546,9.7692885,0.004029,-0.00052,0.002521,0.1632234178478712
1757070421.6135976,2.9321289965760418,1.7440949605675675,0.0,-8.449541903216855e-05,-4.513732354477064e-05,-1.0720400764624507,-0.5349886020355731,4.518473255452809e-15,0.48438837,-0.21764466000000002,9.77333022,0.003012,-0.000769,0.004039,0.16344768932080683
1757070421.634266,2.931280282355396,1.7436415787296746,0.0,-8.212043845314988e-05,-4.386861255386e-05,-1.0720400764624507,-0.5349886020355731,4.2460577794814e-15,0.45326124000000007,-0.20447964000000002,9.760155390000001,0.003479,-0.001699,0.002839,0.1638352601418317
1757070421.6546369,2.931280282355396,1.7436415787296746,0.0,-8.212043845314988e-05,-4.386861255386e-05,-1.0720400764624507,-0.5349886020355731,4.2460577794814e-15,0.45326124000000007,-0.20447964000000002,9.760155390000001,0.003479,-0.001699,0.002839,0.1638352601418317
1757070421.6754386,2.9295949157204118,1.74274125845236,0.0,-8.679470269391508e-05,-4.636559735831245e-05,-1.0720400764624507,-0.5349886020355731,3.738276707537643e-15,0.46403262,-0.20432268,9.77362452,0.001555,-0.001202,0.003964,0.16360817321030488
1757070421.6957262,2.928759643970123,1.7422950575615608,0.0,-8.38198914809387e-05,-4.477645776065442e-05,-1.0720400764624507,-0.5349886020355731,3.513225179157157e-15,0.45280998,-0.22708187999999999,9.76434426,0.002434,-0.000242,0.004406,0.163867309089604
1757070421.716103,2.928759643970123,1.7422950575615608,0.0,-8.38198914809387e-05,-4.477645776065442e-05,-1.0720400764624507,-0.5349886020355731,3.513225179157157e-15,0.45280998,-0.22708187999999999,9.76434426,0.002434,-0.000242,0.004406,0.163867309089604
1757070421.7396424,2.927098396639759,1.7414076217798646,0.0,-9.092857476367929e-05,-4.857390549197108e-05,-1.0720400764624507,-0.5349886020355731,3.0852541978981486e-15,0.46493514,-0.22931856000000003,9.78470001,0.00312,0.001578,0.004624,0.16401694704738803
1757070421.760405,2.9262763906413767,1.7409685074334336,0.0,-8.757466347027012e-05,-4.678225121147762e-05,-1.0720400764624507,-0.5349886020355731,2.9007020068375584e-15,0.4773546,-0.21465261000000002,9.775566900000001,0.002911,-0.00136,0.002768,0.16363727745775755
1757070421.7828627,2.9254557742207647,1.7405301353973208,0.0,-8.671987830737634e-05,-4.6325626285526025e-05,-1.0720400764624507,-0.5349886020355731,2.7195357157554428e-15,0.47496096000000004,-0.22139208000000002,9.771378030000001,0.00281,-0.001826,0.006144,0.16513984549274952
1757070421.8083887,2.924640686333216,1.7400947166951104,0.0,-8.48897808198142e-05,-4.5347991008244086e-05,-1.0720400764624507,-0.5349886020355731,2.555264972065764e-15,0.50265459,-0.22079367,9.77422293,0.005623,0.001192,0.012632,0.1675394931490145
1757070421.828037,2.92302644980465,1.739232394011795,0.0,-7.87244166684569e-05,-4.2054462913363546e-05,-1.0720400764624507,-0.5349886020355731,2.2581822897764975e-15,0.36523611,-0.18456534000000002,9.708358590000001,0.007381,-0.001942,-0.004388,0.16470049011199342
1757070421.8484466,2.92302644980465,1.739232394011795,0.0,-7.87244166684569e-05,-4.2054462913363546e-05,-1.0720400764624507,-0.5349886020355731,2.2581822897764975e-15,0.36523611,-0.18456534000000002,9.708358590000001,0.007381,-0.001942,-0.004388,0.16470049011199342
1757070421.8711214,2.921425648053334,1.738377248165927,0.0,-8.381999870729355e-05,-4.47765150408087e-05,-1.0720400764624507,-0.5349886020355731,1.9886161353316946e-15,0.43260138,-0.13666311,9.77766624,0.006603,0.002803,-0.001226,0.16455788856805287
1757070421.891168,2.920631766161117,1.7379531576739715,0.0,-8.150362489148568e-05,-4.353911169312008e-05,-1.0720400764624507,-0.5349886020355731,1.8680972173820785e-15,0.51373008,-0.23920704,9.74234043,0.006603,0.002803,-0.001226,0.16499558421462565
1757070421.9117978,2.9198422911328064,1.737531421321971,0.0,-7.93475768697573e-05,-4.2387354139284296e-05,-1.0720400764624507,-0.5349886020355731,1.7555193502547063e-15,0.40789980000000003,-0.24519114,9.73111779,0.000933,0.000281,0.003987,0.16503685752407665
1757070421.9335244,2.9198422911328064,1.737531421321971,0.0,-7.93475768697573e-05,-4.2387354139284296e-05,-1.0720400764624507,-0.5349886020355731,1.7555193502547063e-15,0.40789980000000003,-0.24519114,9.73111779,0.000933,0.000281,0.003987,0.16503685752407665
1757070421.9526038,2.9182739306378687,1.7366936055456166,0.0,-8.214689899987612e-05,-4.3882747737428335e-05,-1.0720400764624507,-0.5349886020355731,1.546388052417332e-15,0.49411989,-0.22034241,9.77092677,0.002531,-0.001112,0.00291,0.16488234334876337
1757070421.973388,2.9182739306378687,1.7366936055456166,0.0,-8.214689899987612e-05,-4.3882747737428335e-05,-1.0720400764624507,-0.5349886020355731,1.546388052417332e-15,0.49411989,-0.22034241,9.77092677,0.002531,-0.001112,0.00291,0.16488234334876337
1757070421.9933407,2.9174942111242883,1.7362770805746566,0.0,-8.351437413646196e-05,-4.461325086276352e-05,-1.0720400764624507,-0.5349886020355731,1.4494960176894366e-15,0.44338257000000003,-0.2282787,9.75446559,0.000823,-7e-06,0.006864,0.1660705545260579
1757070422.013691,2.9174942111242883,1.7362770805746566,0.0,-8.351437413646196e-05,-4.461325086276352e-05,-1.0720400764624507,-0.5349886020355731,1.4494960176894366e-15,0.44338257000000003,-0.2282787,9.75446559,0.000823,-7e-06,0.006864,0.1660705545260579
1757070422.0354517,2.916713044754437,1.7358597826952906,0.0,-0.00010058266008550356,-5.373110309737096e-05,-1.0720400764624507,-0.5349886020355731,1.35051204377168e-15,0.48094506000000004,-0.18636057,9.78261048,0.00456,0.000871,0.003369,0.16731260976393558
1757070422.0560904,2.915171595403698,1.7350363428109847,0.0,-9.800810828969161e-05,-5.235578146785047e-05,-1.0720400764624507,-0.5349886020355731,1.182453724771726e-15,0.4564004400000001,-0.21255327,9.771976440000001,0.004128,0.003156,0.006756,0.16511838227080974
1757070422.0771427,2.912655476099128,1.7334090644277758,0.0,-0.0001744182245086155,-0.00010686018683538518,-1.0720400764624507,-0.5349886020355731,1.107555034623298e-15,0.44862111000000005,-0.45879408,9.768690090000002,-0.006282,-0.001232,-0.000676,0.1659695515263946
1757070422.098063,2.907671141498247,1.7301853029192096,0.0,-0.00021118599981301576,-0.0001342938064767127,-1.0720400764624507,-0.5349886020355731,9.782400680507226e-16,0.4564004400000001,-1.41949719,9.867035340000001,-0.022302,0.011237,0.001283,0.16509924610273125
1757070422.1187456,2.9051984097084955,1.7285860178186727,0.0,-0.00021190669916705367,-0.00013570833602995203,-1.0720400764624507,-0.5349886020355731,9.206792430420355e-16,0.55893456,-1.95254316,9.915379020000001,-0.023672,0.015087,0.020851,0.16564946766208857
1757070422.1394937,2.902738838897989,1.7269952399181348,0.0,-0.00021374065369021415,-0.00013747976449011106,-1.0720400764624507,-0.5349886020355731,8.666812867234205e-16,0.5364892800000001,-2.7993325500000004,9.65432511,-0.009877,0.038402,0.001132,0.16593712205669742
1757070422.1596086,2.9002911919313727,1.7254121722850995,0.0,-0.00022000285316879943,-0.0001418805978668257,-1.0720400764624507,-0.5349886020355731,8.15525916344484e-16,0.4972689,-3.45092256,9.664056630000001,-0.020934,-0.022876,-0.01535,0.1662845522243335
1757070422.1801238,2.8978530714546604,1.7238352651652025,0.0,-0.0002358813052421474,-0.00015235676724697887,-1.0720400764624507,-0.5349886020355731,7.662124116603778e-16,0.28515708,-3.8375739,9.36003492,-0.01416,0.032514,0.059432,0.1668218395413015
1757070422.2005723,2.8954308360460748,1.7222686278019954,0.0,-0.0002402531756123874,-0.00015527427300184428,-1.0720400764624507,-0.5349886020355731,7.206697889142377e-16,-0.09909081000000002,-4.41686421,9.54519867,-0.033818,-0.01712,-0.032165,0.16626588931050415
1757070422.2211986,2.893019084334138,1.720708771744517,0.0,-0.00024080423251055658,-0.00015568352484031207,-1.0720400764624507,-0.5349886020355731,6.776752174405762e-16,0.4340925,-4.34786067,10.48179861,0.098749,-0.084173,-0.095704,0.16656212438303453
1757070422.247495,2.8906142237349615,1.719153373015999,0.0,-0.00024290707463262465,-0.00015707305683241633,-1.0720400764624507,-0.5349886020355731,6.369395879508415e-16,1.3686029100000001,-1.42548129,12.68297622,0.011625,0.082791,0.006292,0.17047031837826448
1757070422.2634299,2.8882309460647204,1.7176119321031162,0.0,-0.00024284193074639257,-0.00015704587110006448,-1.0720400764624507,-0.5349886020355731,5.988088836139808e-16,1.3686029100000001,-1.42548129,12.68297622,0.011625,0.082791,0.006292,0.16671961064389704
1757070422.2838154,2.8858534457531,1.7160742284320085,0.0,-0.00024453367350885016,-0.00015814855534267434,-1.0720400764624507,-0.5349886020355731,5.626110305024048e-16,0.44846415,-3.09990114,13.00091832,-0.053778,0.196187,-0.010503,0.16703709327030014
1757070422.3039978,2.8834858700853876,1.7145429437071396,0.0,-0.00025026612622059915,-0.00016186076017129454,-1.0720400764624507,-0.5349886020355731,5.280938401442135e-16,0.26389881000000004,-1.78338933,8.90633223,-0.033806,0.118719,0.145507,0.16732797511193226
1757070422.3248005,2.8834858700853876,1.7145429437071396,0.0,-0.00025026612622059915,-0.00016186076017129454,-1.0720400764624507,-0.5349886020355731,5.280938401442135e-16,0.26389881000000004,-1.78338933,8.90633223,-0.033806,0.118719,0.145507,0.16732797511193226
1757070422.3462567,2.8787745488429337,1.7114957868541982,0.0,-0.0002783075892203842,-0.00018000074564781274,-1.0720400764624507,-0.5349886020355731,4.632699038916602e-16,0.8041257,0.0142245,11.336975550000002,0.054924,-0.034037,-0.014905,0.16872075286938404
1757070422.3668146,2.876445838183954,1.7099896388940097,0.0,-0.0002682561394935996,-0.0001735001829487494,-1.0720400764624507,-0.5349886020355731,4.35406084250469e-16,0.8041257,0.0142245,11.336975550000002,0.054924,-0.034037,-0.014905,0.1664559203026066
1757070422.3885612,2.871811083706933,1.7069920033196118,0.0,-0.00024737177830003155,-0.00015999324611596098,-1.0720400764624507,-0.5349886020355731,3.8409542874144446e-16,2.0730393900000004,2.83929849,5.03582616,0.5015,-0.130217,0.035359,0.16691552312562238
1757070422.408685,2.869511688788196,1.7055048160146793,0.0,-0.00023728606771500625,-0.00015347017625845087,-1.0720400764624507,-0.5349886020355731,3.6110975878573743e-16,-3.65060511,0.22692492,17.97342093,0.078547,0.613242,-0.064855,0.1673616413729947
1757070422.4291427,2.867222728485533,1.7040243775407253,0.0,-0.0002341104769322342,-0.00015141634688918134,-1.0720400764624507,-0.5349886020355731,3.393431579551308e-16,4.72208274,1.10724489,8.19426357,0.056604,-0.505569,0.322343,0.16771296442563888
1757070422.4504514,2.867216694186717,1.7040204747188836,0.0,-0.0002341104769322342,-0.00015141634688918134,-1.0720400764624507,-0.5349886020355731,3.393431579551308e-16,-0.9756731700000001,3.4184416500000006,12.38853888,-0.021795,-0.2705,0.05165,0.17301159938960167
1757070422.4712956,2.862676715974273,1.7010841378959425,0.0,-0.00023984285841236133,-0.00015512394562911964,-1.0720400764624507,-0.5349886020355731,2.99270158102369e-16,0.29907747,1.6628931,9.59489613,-0.115779,0.03175,-0.011412,0.1676353279294204
1757070422.4931936,2.8604185508608135,1.6996236169283354,0.0,-0.00024049991186408858,-0.00015554891913499173,-1.0720400764624507,-0.5349886020355731,2.8095337649439004e-16,0.85757058,1.8363829500000002,10.76950629,-0.007758,-0.029095,0.018835,0.1681556596362062
1757070422.5137582,2.858174241141695,1.6981720572601047,0.0,-0.00023732816837263192,-0.00015349752417422708,-1.0720400764624507,-0.5349886020355731,2.64041639983612e-16,0.56402595,1.17041148,10.44857214,0.00169,-0.013384,0.109601,0.16776456061221445
1757070422.534131,2.858174241141695,1.6981720572601047,0.0,-0.00023732816837263192,-0.00015349752417422708,-1.0720400764624507,-0.5349886020355731,2.64041639983612e-16,0.56402595,1.17041148,10.44857214,0.00169,-0.013384,0.109601,0.16776456061221445
1757070422.5557022,2.855925835833441,1.6967178486741783,0.0,-0.0002723299282246489,-0.00017613573203970328,-1.0720400764624507,-0.5349886020355731,2.468301088477227e-16,-0.43080615000000005,1.23493185,10.6949601,0.024535,0.099913,-0.043931,0.16946917824188934
1757070422.5757554,2.8514828293110397,1.6938442305551098,0.0,-0.00026570623159105443,-0.00017185170318256843,-1.0720400764624507,-0.5349886020355731,2.171926862300186e-16,-0.23665644,-0.8451413100000001,9.30091005,-0.075472,-0.020306,-0.020543,0.1677554824237855
1757070422.5959754,2.8492784047393465,1.6924184675364524,0.0,-0.0002491986938387605,-0.0001611750683303228,-1.0720400764624507,-0.5349886020355731,2.0422811403907848e-16,0.56282913,-0.35176698,9.62079453,-0.042032,0.076891,0.015796,0.16771255612467736
1757070422.6163125,2.8492784047393465,1.6924184675364524,0.0,-0.0002491986938387605,-0.0001611750683303228,-1.0720400764624507,-0.5349886020355731,2.0422811403907848e-16,0.56282913,-0.35176698,9.62079453,-0.042032,0.076891,0.015796,0.16771255612467736
1757070422.6404462,2.844885470119958,1.6895772345888127,0.0,-0.00026212485024535814,-0.0001695353618808306,-1.0720400764624507,-0.5349886020355731,1.7930674197403098e-16,0.13936086,-1.53895356,9.87242103,-0.0652,0.040078,-0.010636,0.16830119714839809
1757070422.661455,2.8427110383104326,1.6881708700887872,0.0,-0.0002519544330478036,-0.00016295740733605543,-1.0720400764624507,-0.5349886020355731,1.68583474389651e-16,1.25454204,-1.0353964500000001,9.31213269,0.021939,-0.016919,0.00625,0.1678828319932931
1757070422.6815188,2.8405441725263625,1.6867693990922334,0.0,-0.00023669849396420627,-0.00015309027285985752,-1.0720400764624507,-0.5349886020355731,1.584629828746995e-16,0.5150740500000001,-2.37465765,10.65349323,-0.037578,-0.074822,0.057062,0.16860642024693706
1757070422.7027228,2.838383438648619,1.685371894049147,0.0,-0.00022999614538383843,-0.00014875537257515737,-1.0720400764624507,-0.5349886020355731,1.4888238059155812e-16,0.05852646,-1.99729638,10.23182019,0.036308,-0.010682,-0.078244,0.1722327068573982
1757070422.723673,2.836237304410479,1.6839838316635678,0.0,-0.00022531834091276,-0.00014572989341442565,-1.0720400764624507,-0.5349886020355731,1.3997519768539477e-16,0.87013719,-1.5669414900000003,9.20705778,0.068921,-0.093296,0.042929,0.17307062179443744
1757070422.744768,2.8341009746223396,1.6826021105347542,0.0,-0.00022348253366311736,-0.00014454254225365374,-1.0720400764624507,-0.5349886020355731,1.3155572308637473e-16,0.16525926000000002,-1.51485039,9.72213183,-0.023265,0.09569,0.028124,0.17345630780192162
1757070422.7654502,2.8319789732649756,1.6812296566528115,0.0,-0.00022478704047139322,-0.0001453862624676162,-1.0720400764624507,-0.5349886020355731,1.235977876614534e-16,0.16525926000000002,-1.51485039,9.72213183,-0.023265,0.09569,0.028124,0.169284956594337
1757070422.7884562,2.8277528968116123,1.6784963431166655,0.0,-0.0002353774599468641,-0.00015223586332910864,-1.0720400764624507,-0.5349886020355731,1.0891692073909104e-16,0.51164055,-0.8069706000000001,6.54184755,0.039256,0.00381,0.01107,0.16894723076566348
1757070422.8093698,2.8256553700738154,1.6771397187658954,0.0,-0.0002288940666279017,-0.00014804257744970782,-1.0720400764624507,-0.5349886020355731,1.0235638682857715e-16,0.31838355,-0.8960355900000001,9.69070059,0.023384,-0.142051,-0.084059,0.16929317080641412
1757070422.8302226,2.8235659802294033,1.675788357140747,0.0,-0.00022708713407659624,-0.00014687390166855137,-1.0720400764624507,-0.5349886020355731,9.612169132546574e-17,0.7746368400000001,-0.46732878,8.67491433,0.0488,0.157839,0.030987,0.1697303337336916
1757070422.8512244,2.8214879782373465,1.6744443608747763,0.0,-0.00022463609203914254,-0.0001452886330507058,-1.0720400764624507,-0.5349886020355731,9.03187603276659e-17,0.7665534,-0.21584943000000004,10.581350490000002,-0.020818,0.183314,-0.014386,0.16953197116766222
1757070422.8713043,2.8194178478537175,1.6731054557551925,0.0,-0.00022422669885016096,-0.00014502384845508674,-1.0720400764624507,-0.5349886020355731,8.482266333933737e-17,-0.37931346,0.44023356,9.28070145,0.067282,0.0056,-0.006546,0.1698729806301504
1757070422.8916953,2.8194178478537175,1.6731054557551925,0.0,-0.00022422669885016096,-0.00014502384845508674,-1.0720400764624507,-0.5349886020355731,8.482266333933737e-17,-0.37931346,0.44023356,9.28070145,0.067282,0.0056,-0.006546,0.1698729806301504
1757070422.9120457,2.8194178478537175,1.6731054557551925,0.0,-0.00022422669885016096,-0.00014502384845508674,-1.0720400764624507,-0.5349886020355731,8.482266333933737e-17,-0.37931346,0.44023356,9.28070145,0.067282,0.0056,-0.006546,0.1698729806301504
1757070422.9328535,2.819402606140861,1.6730955978218292,0.0,-0.00022422669885016096,-0.00014502384845508674,-1.0720400764624507,-0.5349886020355731,8.482266333933737e-17,-0.00628821,-0.3153915,9.261993780000001,-0.211573,-0.183543,-0.05007,0.18387872405857747
1757070422.955118,2.813218542558525,1.6690959104322327,0.0,-0.00030179733986710996,-0.000195194470174601,-1.0720400764624507,-0.5349886020355731,6.90009567793006e-17,0.5081972400000001,3.87768699,13.508056080000001,0.36934,0.086197,-0.162932,0.16947503928593532
1757070422.9752507,2.8091484203900703,1.6664634639681009,0.0,-0.0002554455043432745,-0.00016521533920983472,-1.0720400764624507,-0.5349886020355731,6.089545882014677e-17,-0.14160735,2.23784739,9.828707670000002,0.090486,0.133364,0.117038,0.1691939673799619
1757070422.9956315,2.8091484203900703,1.6664634639681009,0.0,-0.0002554455043432745,-0.00016521533920983472,-1.0720400764624507,-0.5349886020355731,6.089545882014677e-17,-0.14160735,2.23784739,9.828707670000002,0.090486,0.133364,0.117038,0.1691939673799619
1757070423.015878,2.8051097892566834,1.6638513850655523,0.0,-0.00022631386021854767,-0.00014637376876145227,-1.0720400764624507,-0.5349886020355731,5.371163775189188e-17,0.6245046,1.0976703300000001,11.33503317,-0.009988,-0.041933,-0.050584,0.1699228729560196
1757070423.0369012,2.8031057751464794,1.66255524218823,0.0,-0.00021622260522776647,-0.000139847014177765,-1.0720400764624507,-0.5349886020355731,5.0498707274554905e-17,-0.03891627,-0.14025357000000002,9.98124336,-0.008345,0.067452,0.021175,0.17035431009706523
1757070423.0578258,2.8011126748781057,1.6612661580927193,0.0,-0.00020875041790691012,-0.00013501420270970455,-1.0720400764624507,-0.5349886020355731,4.751827567595177e-17,0.50355711,-0.1591182,9.11948391,-0.00729,-0.048472,0.050644,0.17025077299738045
1757070423.078846,2.799127290965032,1.6599820647300134,0.0,-0.00020612243907077858,-0.00013331449608944537,-1.0720400764624507,-0.5349886020355731,4.4692907806244535e-17,0.20133063,0.5032530000000001,9.01350648,0.012298,-0.059688,0.031415,0.17069999191027052
1757070423.0990674,2.7971493341539015,1.658702775018756,0.0,-0.00021157013360718636,-0.00013683791961986976,-1.0720400764624507,-0.5349886020355731,4.199023189932546e-17,-0.15762708,0.00928026,9.15780177,0.02604,0.005265,0.031001,0.17111059904336168
1757070423.1194072,2.7971493341539015,1.658702775018756,0.0,-0.00021157013360718636,-0.00013683791961986976,-1.0720400764624507,-0.5349886020355731,4.199023189932546e-17,-0.15762708,0.00928026,9.15780177,0.02604,0.005265,0.031001,0.17111059904336168
1757070423.140086,2.793214207620773,1.6561576401310782,0.0,-0.00023837624761683673,-0.00015417539921414942,-1.0720400764624507,-0.5349886020355731,3.691572273816224e-17,0.9737209800000001,-0.60982884,11.100015,0.00574,-0.011168,-0.004001,0.17067327982835157
1757070423.1621816,2.7912588877093567,1.6548929913628063,0.0,-0.00023308172513262295,-0.00015075104328182498,-1.0720400764624507,-0.5349886020355731,3.462776126016197e-17,-0.12453795000000001,-1.05500664,9.23654664,-0.049204,-0.054591,0.051922,0.17133221631175996
1757070423.182292,2.789317181973264,1.653637147880029,0.0,-0.00022552430849087746,-0.0001458631077621685,-1.0720400764624507,-0.5349886020355731,3.2552328662534696e-17,0.08876088000000001,-0.37137717000000003,9.57798369,0.021691,-0.005679,-0.001152,0.17058139722607615
1757070423.2027726,2.787382133826695,1.6523856103485912,0.0,-0.0002148574066816566,-0.00013896404016941813,-1.0720400764624507,-0.5349886020355731,3.0602235257466615e-17,0.59920461,-0.82239192,10.90751337,0.036589,0.014685,-0.039055,0.1710838404689528
1757070423.2240393,2.787382133826695,1.6523856103485912,0.0,-0.0002148574066816566,-0.00013896404016941813,-1.0720400764624507,-0.5349886020355731,3.0602235257466615e-17,0.13741848,-1.05799869,11.15061498,-0.039803,-0.024142,-0.011366,0.1710838404689528
1757070423.247683,2.7816206565164476,1.6486592404889628,0.0,-0.0002263044370941773,-0.00014636767413593526,-1.0720400764624507,-0.5349886020355731,2.5299934128426362e-17,0.42227145000000005,-0.44083197,8.403971940000002,0.038138,0.077443,0.021098,0.1707369176564857
1757070423.2678618,2.779718724523713,1.6474291216025823,0.0,-0.0002132614881099631,-0.00013793184260206824,-1.0720400764624507,-0.5349886020355731,2.379630378145527e-17,-0.11241279000000001,-0.8157996000000001,9.397460070000001,-0.000654,-0.118895,-0.057142,0.17139653042444247
1757070423.2886758,2.77971312073936,1.6474254972243214,0.0,-0.0002132614881099631,-0.00013793184260206824,-1.0720400764624507,-0.5349886020355731,2.379630378145527e-17,0.32662395,-0.26121087000000004,10.51473078,-0.004708,0.048513,0.015475,0.17679724313785788
1757070423.308852,2.775938704973424,1.6449843057745388,0.0,-0.00020885378229169637,-0.0001350810560369482,-1.0720400764624507,-0.5349886020355731,2.101653498552603e-17,0.43229727000000007,-0.60130395,9.990523620000001,-0.020272,0.031998,0.040151,0.17159886315139145
1757070423.3293536,2.774061234941392,1.6437700082319144,0.0,-0.00020638591630006516,-0.00013348490613413416,-1.0720400764624507,-0.5349886020355731,1.9755846412006554e-17,-0.01062423,0.04491018,9.536820930000001,-0.0948,-0.308988,0.026641,0.17195723919452868
1757070423.3500533,2.772192188029699,1.642561158538872,0.0,-0.00020550663235178326,-0.00013291620872781011,-1.0720400764624507,-0.5349886020355731,1.8569566184674114e-17,0.18427104,0.09834525,8.84360709,-0.049498,-0.163089,-0.007384,0.17205855726687957
1757070423.371112,2.770331067170699,1.641357435205315,0.0,-0.00020553851903054148,-0.00013293683218117976,-1.0720400764624507,-0.5349886020355731,1.7451961154059372e-17,1.21682259,0.25536411,9.93513636,0.034339,0.127798,0.031084,0.17218406154280985
1757070423.3912115,2.7684774622603947,1.6401585729869164,0.0,-0.0002067518782768708,-0.00013372160058014242,-1.0720400764624507,-0.5349886020355731,1.6396000715922698e-17,1.23163569,0.5348412,10.811414610000002,-0.022864,0.004805,0.106583,0.17235857056998627
1757070423.4120238,2.766631941455953,1.6389649393525785,0.0,-0.00020745338864344487,-0.0001341753187752256,-1.0720400764624507,-0.5349886020355731,1.5402899125905808e-17,0.20207619000000002,-0.48723327000000005,9.75716334,-0.046856,0.069196,0.003996,0.17240421439206804
1757070423.432039,2.764793423726599,1.6377758351204277,0.0,-0.00020897614821830467,-0.0001351601990546508,-1.0720400764624507,-0.5349886020355731,1.4463330364798285e-17,-0.06167547,0.81999828,10.947489120000002,0.005602,0.087162,-0.032382,0.17261516752806133
1757070423.452875,2.7629637436117327,1.6365924468216186,0.0,-0.00020811175710207756,-0.0001346011339348924,-1.0720400764624507,-0.5349886020355731,1.3586095201962753e-17,0.96025185,1.86407658,6.836883300000001,0.239984,-0.205584,-0.01109,0.17249662408694286
1757070423.4733882,2.7611416036682717,1.6354139353045707,0.0,-0.00020615778407426428,-0.0001333373562950118,-1.0720400764624507,-0.5349886020355731,1.2762832155200736e-17,-2.28469995,0.03622833,10.12165389,0.154443,0.285388,-0.089836,0.17261249498919473
1757070423.4942808,2.759324120478155,1.6342384356513855,0.0,-0.00021146404180486368,-0.00013676930227170714,-1.0720400764624507,-0.5349886020355731,1.197127364212726e-17,0.39787398,0.15507648,7.50599397,-0.07221,0.077865,0.074783,0.17320260785925917
1757070423.514775,2.759324120478155,1.6342384356513855,0.0,-0.00021146404180486368,-0.00013676930227170714,-1.0720400764624507,-0.5349886020355731,1.197127364212726e-17,0.39787398,0.15507648,7.50599397,-0.07221,0.077865,0.074783,0.17320260785925917
1757070423.5408714,2.75570692029869,1.6318989270498285,0.0,-0.0002343134615376221,-0.00015154769753687744,-1.0720400764624507,-0.5349886020355731,1.0492745939922736e-17,-3.05335269,1.20454047,11.6174925,0.07956,0.256437,0.020143,0.17263743388345107
1757070423.566855,2.7521290212408,1.629584837365504,0.0,-0.00021056883959674763,-0.00013619030935947915,-1.0720400764624507,-0.5349886020355731,9.266194548572432e-18,0.37661571000000005,2.0275308,8.2828773,-0.024861,0.187457,0.860913,0.17271803071434108
1757070423.5868838,2.7503504583447507,1.6284345103204765,0.0,-0.00020081587688257775,-0.00012988235319769402,-1.0720400764624507,-0.5349886020355731,8.708417179683304e-18,0.96908085,0.8746301700000001,9.98798283,0.027969,0.10669,0.845186,0.17313135771506863
1757070423.607755,2.7485795864433133,1.6272891576056372,0.0,-0.00019709557935831975,-0.00012747616398323905,-1.0720400764624507,-0.5349886020355731,8.183399099051999e-18,-0.12873663,1.21023027,9.0665001,-0.027853,-0.014046,0.679537,0.17330911770260446
1757070423.628467,2.748574417218071,1.627285814288619,0.0,-0.00019709557935831975,-0.00012747616398323905,-1.0720400764624507,-0.5349886020355731,8.183399099051999e-18,0.41404086,1.7392345200000001,7.735165380000001,0.064754,0.030868,0.690005,0.17870046435050121
1757070423.648815,2.7450586721078363,1.6250119241199263,0.0,-0.00020147606994989429,-0.00013030934846559324,-1.0720400764624507,-0.5349886020355731,7.216326848947997e-18,-1.3132156500000003,2.3384391300000003,11.74458105,-0.062403,-0.012724,0.569731,0.17327688978467945
1757070423.6691058,2.743309474779242,1.6238805899407183,0.0,-0.00019923404656937337,-0.00012885926754018618,-1.0720400764624507,-0.5349886020355731,6.7795234014676115e-18,-0.09325386000000001,3.9463962300000004,10.38705363,-0.010223,0.017744,0.608133,0.17358306404745197
1757070423.6927009,2.7415655525117892,1.6227526675303652,0.0,-0.00020266833878569395,-0.00013108047614952866,-1.0720400764624507,-0.5349886020355731,6.361888066998886e-18,0.15103476000000002,3.31395534,9.00422622,-0.039171,-0.024845,0.728806,0.17405826376061745
1757070423.7131405,2.739831670498768,1.6216312388887941,0.0,-0.00020145668219194416,-0.0001302968089808429,-1.0720400764624507,-0.5349886020355731,5.976533268147487e-18,0.25776756,3.5354945700000004,10.587334590000001,-0.028658,-0.086612,0.70608,0.17359196170216076
1757070423.7336912,2.7381012862329186,1.6205120724968054,0.0,-0.00020412403928567275,-0.00013202198440785662,-1.0720400764624507,-0.5349886020355731,5.606595322068705e-18,0.97342668,3.44927448,10.439586180000001,0.093861,0.067977,0.615182,0.17428727211572248
1757070423.7542975,2.736380870237912,1.6193993533165332,0.0,-0.0002027237953467432,-0.00013111634397413083,-1.0720400764624507,-0.5349886020355731,5.264753593867651e-18,0.67569318,1.54688004,9.08805267,-0.070179,-0.062324,0.802043,0.17385441335937324
1757070423.7749093,2.734667435996019,1.6182911497479637,0.0,-0.00019840472930058803,-0.0001283228872494969,-1.0720400764624507,-0.5349886020355731,4.9460170887721954e-18,-0.052542359999999996,2.45115603,10.233772380000001,0.002464,0.003915,0.716306,0.17391739677194437
1757070423.7949853,2.7329601673546766,1.6171869339253877,0.0,-0.00019607187418964133,-0.00012681405878342794,-1.0720400764624507,-0.5349886020355731,4.645092719811928e-18,0.06975891000000001,1.64761893,7.17637797,0.010795,-0.037746,0.549219,0.17424209377435512
1757070423.8154092,2.7329601673546766,1.6171869339253877,0.0,-0.00019607187418964133,-0.00012681405878342794,-1.0720400764624507,-0.5349886020355731,4.645092719811928e-18,0.06975891000000001,1.64761893,7.17637797,0.010795,-0.037746,0.549219,0.17424209377435512
1757070423.8363035,2.731248953179133,1.616080166236522,0.0,-0.0002280942071170288,-0.00014752524965167303,-1.0720400764624507,-0.5349886020355731,4.340198370438476e-18,0.6902119800000001,0.10747836000000001,8.45636715,0.012216,-0.037887,0.651821,0.17566728032454795
1757070423.8566473,2.727866513625345,1.6138924945463407,0.0,-0.00022434157690534058,-0.00014509814851733474,-1.0720400764624507,-0.5349886020355731,3.817909235121003e-18,0.73452375,-0.82358874,10.73657412,-0.023565,-0.133226,0.723988,0.17371712268656292
1757070423.8769445,2.726186054941267,1.6128056186890734,0.0,-0.00020893031317935319,-0.00013513055417392568,-1.0720400764624507,-0.5349886020355731,3.5890745805022375e-18,-0.8812126800000001,-1.08958689,7.2994248,-0.005497,0.169315,0.781421,0.1739545182488374
1757070423.8970351,2.7245084648059703,1.6117205981326514,0.0,-0.00020181608041715233,-0.00013052925816737994,-1.0720400764624507,-0.5349886020355731,3.367846930621871e-18,0.6222581100000001,-1.90658331,10.17194976,-0.0149,-0.035721,0.672396,0.1750530528845454
1757070423.9173527,2.7228403274493966,1.6106416913813917,0.0,-0.00019821746687942324,-0.00012820177090997238,-1.0720400764624507,-0.5349886020355731,3.162109754453315e-18,-1.41815322,-2.48572647,11.113641090000002,-0.094825,0.20063,0.590825,0.17476088851476906
1757070423.937737,2.7211796830490083,1.6095676308743476,0.0,-0.00019345346744080767,-0.00012512054313393507,-1.0720400764624507,-0.5349886020355731,2.971101394930018e-18,0.06436341000000001,-2.09803527,10.582694459999999,-0.081445,0.172408,0.69915,0.1746551940481722
1757070423.9587066,2.7195254204641155,1.6084976979553562,0.0,-0.00018944965451289016,-0.00012253098371804613,-1.0720400764624507,-0.5349886020355731,2.7918615524477763e-18,1.16172963,-1.46560419,8.65934586,0.074986,-0.110773,0.875548,0.17487331264081862
1757070423.9801493,2.7195254204641155,1.6084976979553562,0.0,-0.00018944965451289016,-0.00012253098371804613,-1.0720400764624507,-0.5349886020355731,2.7918615524477763e-18,1.16172963,-1.46560419,8.65934586,0.074986,-0.110773,0.875548,0.17487331264081862
1757070424.0022957,2.7162263440354626,1.6063639433111305,0.0,-0.000212930615363199,-0.0001377178429341843,-1.0720400764624507,-0.5349886020355731,2.451483216805455e-18,-0.01826622,-2.05747092,9.01590012,0.010604,-0.027073,0.63366,0.1768720523949424
1757070424.02356,2.714594579324284,1.6053085614168154,0.0,-0.00020570987584254876,-0.00013304766119692047,-1.0720400764624507,-0.5349886020355731,2.304587704722601e-18,-0.01826622,-2.05747092,9.01590012,0.010604,-0.027073,0.63366,0.17450024073319548
1757070424.0470715,2.710425381437704,1.6027791524891597,0.0,-0.0005915937284308101,0.005418218738596234,-1.0720400764624507,-0.5349886020355731,2.0342959975568393e-18,0.87268779,-0.06331374,9.998312760000001,0.075059,-0.000856,0.867233,0.17529957056201073
1757070424.0676563,2.70789401092592,1.6013429969207962,0.0,-0.0008155499965244504,0.008560897241682141,-1.0720400764624507,-0.5349886020355731,1.911706200145071e-18,1.5625956600000002,-0.42705873000000005,10.62730053,0.064644,-0.009001,0.924063,0.1755053421747568
1757070424.0890603,2.705368487503494,1.5999566586705034,0.0,-0.0009459210638407678,0.01033168798846664,-1.0720400764624507,-0.5349886020355731,1.795481958183526e-18,-0.43604469000000007,0.30072555,9.3992553,-0.026905,0.158122,0.86642,0.17580607097122286
1757070424.10944,2.705368487503494,1.5999566586705034,0.0,-0.0009459210638407678,0.01033168798846664,-1.0720400764624507,-0.5349886020355731,1.795481958183526e-18,-0.43604469000000007,0.30072555,9.3992553,-0.026905,0.158122,0.86642,0.17580607097122286
1757070424.1342864,2.7028211636709276,1.5988334213699955,0.0,-0.0010746831681510405,0.011428976497801868,-1.0720400764624507,-0.5349886020355731,1.6783173152099944e-18,-0.37676286000000003,1.80194985,9.994565340000001,-0.024056,0.046545,0.753395,0.17707108181449727
1757070424.1542814,2.69783272547051,1.5958297155552352,0.0,-0.0011068555146011854,0.011961077379847487,-1.0720400764624507,-0.5349886020355731,1.4769457949601376e-18,0.20178189000000002,0.90741519,9.37650591,0.030812,-0.108606,0.706875,0.1752777850732048
1757070424.1743522,2.695352459933246,1.5943717463662745,0.0,-0.0010934326679913834,0.01208404664646255,-1.0720400764624507,-0.5349886020355731,1.3887732315399864e-18,-0.5752584000000001,0.45939249000000004,10.60305021,-0.031929,0.008039,0.630598,0.17536633133766721
1757070424.1944036,2.692874650204581,1.5930072545707026,0.0,-0.0010799818493491622,0.01217079066213574,-1.0720400764624507,-0.5349886020355731,1.3056241312841455e-18,1.15035984,0.9924384600000001,10.996882470000001,-0.028889,-0.16513,0.710491,0.17595731316880917
1757070424.2148478,2.6904063799700944,1.5916546158285818,0.0,-0.0010753215000854585,0.01221874935297347,-1.0720400764624507,-0.5349886020355731,1.2271511929830907e-18,0.60788646,1.48206537,8.518189770000001,-0.026738,-0.168504,0.830218,0.17623001279974848
1757070424.2354484,2.6879448241423156,1.5903356051770188,0.0,-0.0010785724025415395,0.012241617949137596,-1.0720400764624507,-0.5349886020355731,1.1526463606754606e-18,-0.48170043,0.14610033,11.368563750000002,-0.108351,-0.113451,0.834962,0.17651795211969956
1757070424.256039,2.6854905126153157,1.5890357057217503,0.0,-0.0010862822163655236,0.012249778554080054,-1.0720400764624507,-0.5349886020355731,1.0818100344538146e-18,0.10373094000000001,1.7022606300000003,7.241791050000001,0.061136,0.193536,0.806953,0.17674352931465076
1757070424.27608,2.6830576317077344,1.5876188899097845,0.0,-0.001085026454261227,0.012256523478233847,-1.0720400764624507,-0.5349886020355731,1.0165411486369951e-18,2.37885633,0.85681521,14.189144760000001,0.051955,0.022739,0.639973,0.1762612520497275
1757070424.297094,2.6806220670832226,1.5863350069284197,0.0,-0.0010851983345658226,0.012260052310534201,-1.0720400764624507,-0.5349886020355731,9.54342269170267e-19,1.26307674,0.5786919,8.45261973,-0.059661,-0.12351,0.695891,0.17683178388456217
1757070424.317983,2.67820608189701,1.5849508042552427,0.0,-0.001082040361612285,0.012263832364651204,-1.0720400764624507,-0.5349886020355731,8.96692547461629e-19,-0.28889469,0.70218999,9.916879950000002,-0.059661,-0.12351,0.695891,0.17653512081727823
1757070424.3394132,2.6757778724401535,1.5837799719886392,0.0,-0.0010952538696543579,0.0122562063737788,-1.0720400764624507,-0.5349886020355731,8.404317632775737e-19,0.07768539,0.09415638000000001,9.82032993,-0.013088,-0.065385,0.879532,0.17750566156597863
1757070424.3598278,2.673386338216303,1.5823272855286754,0.0,-0.0010944287753415216,0.012257125233506841,-1.0720400764624507,-0.5349886020355731,7.894591433171099e-19,0.6857288100000001,0.054484740000000004,7.11949959,0.0221,-0.009251,0.984143,0.17646565452702884
1757070424.3822246,2.6709708850118363,1.5812413466756996,0.0,-0.0010898272130626014,0.012260351489840386,-1.0720400764624507,-0.5349886020355731,7.408605364196567e-19,-0.52226478,-1.55182428,11.676764519999999,-0.03007,-0.04731,0.643089,0.18007061655574683
1757070424.4031162,2.6686078378862166,1.5796876981240744,0.0,-0.001082991938403144,0.012264914331423255,-1.0720400764624507,-0.5349886020355731,6.960722304851162e-19,-0.52226478,-1.55182428,11.676764519999999,-0.03007,-0.04731,0.643089,0.1768193095746358
1757070424.4235075,2.6686078378862166,1.5796876981240744,0.0,-0.001082991938403144,0.012264914331423255,-1.0720400764624507,-0.5349886020355731,6.960722304851162e-19,-0.52226478,-1.55182428,11.676764519999999,-0.03007,-0.04731,0.643089,0.1768193095746358
1757070424.443944,2.6638346309428464,1.5772757423375179,0.0,-0.0011249335142041019,0.01223720740133087,-1.0720400764624507,-0.5349886020355731,6.096673957895625e-19,0.10762551000000001,-1.0240168500000002,7.667201700000001,0.055363,-0.058254,0.780436,0.1771147849197155
1757070424.464209,2.659118797590558,1.5747113747760768,0.0,-0.0017398673659771336,0.01950166090866302,-1.0720400764624507,-0.5349886020355731,5.721328393739158e-19,-0.33650262000000003,-1.3239968400000002,11.00735955,-0.013199,0.068539,0.765344,0.17889111675992309
1757070424.4842968,2.65913905932349,1.574484266978788,0.0,-0.0010935925819756912,0.012257757184808009,-1.0720400764624507,-0.5349886020355731,5.379658684116493e-19,-0.33650262000000003,-1.3239968400000002,11.00735955,-0.013199,0.068539,0.765344,0.1766919201699074
1757070424.5064461,2.6544614630352226,1.5719207799129304,0.0,-0.001078141549986107,0.012267780332386681,-1.0720400764624507,-0.5349886020355731,4.74498003080515e-19,-0.5496543,-0.61417467,8.77056183,-0.006171,-0.00972,0.725488,0.17715692152059884
1757070424.5267832,2.6544614630352226,1.5719207799129304,0.0,-0.001078141549986107,0.012267780332386681,-1.0720400764624507,-0.5349886020355731,4.74498003080515e-19,-0.5496543,-0.61417467,8.77056183,-0.006171,-0.00972,0.725488,0.17715692152059884
1757070424.5478392,2.64981895863303,1.5693829699591468,0.0,-0.0010763643428780632,0.012268785133379912,-1.0720400764624507,-0.5349886020355731,4.184499159382037e-19,-0.063765,-0.8930435400000001,10.532997000000002,0.082997,0.051467,0.77737,0.1774480561049303
1757070424.5686743,2.64981895863303,1.5693829699591468,0.0,-0.0010763643428780632,0.012268785133379912,-1.0720400764624507,-0.5349886020355731,4.184499159382037e-19,-0.063765,-0.8930435400000001,10.532997000000002,0.082997,0.051467,0.77737,0.1774480561049303
1757070424.5886266,2.6452116472772,1.566856288375937,0.0,-0.001077402026174752,0.012267932218878366,-1.0720400764624507,-0.5349886020355731,3.689488641565804e-19,-0.14818986,-0.66251835,8.574921,-0.058903,-0.054272,0.871719,0.17759921314914925
