timestamp,time_rel,x,y,theta,vx,vy,accel_x,accel_y,accel_z,gyro_x,gyro_y,gyro_z
0.0,0.0,0.0,0.0,2.8032671712827524,0.0,0.0,-9.43487541,0.1959449399999999,-2.7333112500000003,0.001521,-0.000315,0.005935
0.1798830000916496,0.1798830000916496,0.0,0.0,2.7163961333468105,0.0,0.0,-9.42439833,0.22048956,-2.7476829,0.000763,0.000941,0.004461
0.219857000047341,0.219857000047341,0.0,0.0,2.64351066294713,0.0,0.0,-9.44835435,0.21420135,-2.7384026400000003,0.001839,0.002896,0.003953
0.23984400008339435,0.23984400008339435,0.0,0.0,2.5828186631275907,0.0,0.0,-9.44311581,0.23351724,-2.7854121600000004,0.004841,0.000424,0.005242
0.23984400008339435,0.23984400008339435,0.0,0.0,2.5322602694012737,0.0,0.0,-9.44311581,0.23351724,-2.7854121600000004,0.004841,0.000424,0.005242
0.2598310000030324,0.2598310000030324,0.0,0.0,2.4896406737190517,0.0,0.0,-9.40389543,0.25791471,-2.78989533,0.004841,0.000424,0.005242
0.27981800003908575,0.27981800003908575,0.0,0.0,2.453457941478395,0.0,0.0,-9.44476389,0.23845167,-2.75397111,0.000313,0.001754,0.002063
0.2998040000675246,0.2998040000675246,0.0,0.0,2.453549563212092,0.0,0.0,-9.42125913,0.25356888,-2.7813704400000003,0.006277,-0.001274,0.004508
0.339778000023216,0.339778000023216,0.0,0.0,2.4537010590928983,0.0,0.0,-9.45464256,0.25117524,-2.75801283,0.00283,0.000313,0.003699
0.35976500005926937,0.35976500005926937,0.0,0.0,2.4537959167332843,0.0,0.0,-9.42395688,0.23411565,-2.78615772,0.00437,-0.002894,0.004637
0.35976500005926937,0.35976500005926937,0.0,0.0,2.453808407892323,0.0,0.0,-9.42395688,0.23411565,-2.78615772,0.00437,-0.002894,0.004637
0.39973900001496077,0.39973900001496077,0.0,0.0,2.4539476151101933,0.0,0.0,-9.43817157,0.24009975,-2.77088355,0.004761,-0.000578,0.002956
0.4197260000510141,0.4197260000510141,0.0,0.0,2.4540418775969464,0.0,0.0,-9.42410403,0.23456691,-2.7834599700000004,0.003105,8.8e-05,0.004682
0.4397130000870675,0.4397130000870675,0.0,0.0,2.4540960283359663,0.0,0.0,-9.41587344,0.2459367,-2.8108593,0.001877,-0.000173,0.002737
0.4397130000870675,0.4397130000870675,0.0,0.0,2.4540761669803253,0.0,0.0,-9.41587344,0.2459367,-2.8108593,0.001877,-0.000173,0.002737
0.4796870000427589,0.4796870000427589,0.0,0.0,2.454251508136572,0.0,0.0,-9.4194639,0.2456424,-2.79244593,0.002646,0.0002,0.005088
0.49967400007881224,0.49967400007881224,0.0,0.0,2.4543322629414055,0.0,0.0,-9.42709608,0.23576373,-2.773728450000001,0.004397,-0.002212,0.004045
0.5196609999984503,0.5196609999984503,0.0,0.0,2.45443293236991,0.0,0.0,-9.44835435,0.24160068,-2.76699879,0.004813,-0.000387,0.00509
0.5396480000345036,0.5396480000345036,0.0,0.0,2.454525700723603,0.0,0.0,-9.41272443,0.24624081,-2.78481375,0.002286,0.000935,0.004675
0.559635000070557,0.559635000070557,0.0,0.0,2.4546167820500937,0.0,0.0,-9.43907409,0.25342173,-2.77657335,0.006693,-0.001211,0.004585
0.5996090000262484,0.5996090000262484,0.0,0.0,2.4547851539605716,0.0,0.0,-9.4226031,0.25177365,-2.78929692,0.000808,-7e-06,0.004204
0.5996090000262484,0.5996090000262484,0.0,0.0,2.4547849041450363,0.0,0.0,-9.4226031,0.25177365,-2.78929692,0.000808,-7e-06,0.004204
0.6395829999819398,0.6395829999819398,0.0,0.0,2.454936312833322,0.0,0.0,-9.44161488,0.24653511,-2.7764262,-0.001116,0.002206,0.003345
0.6595700000179932,0.6595700000179932,0.0,0.0,2.4550166847235664,0.0,0.0,-9.41751171,0.2456424,-2.79184752,0.001735,-0.001197,0.004019
0.6795570000540465,0.6795570000540465,0.0,0.0,2.4550908942343312,0.0,0.0,-9.44012376,0.24743763,-2.78166474,0.005594,-0.000279,0.003696
0.6995440000900999,0.6995440000900999,0.0,0.0,2.455151761134461,0.0,0.0,-9.42784164,0.23770611,-2.77193322,0.001627,0.000435,0.002988
0.7195310000097379,0.7195310000097379,0.0,0.0,2.4552101789802867,0.0,0.0,-9.41991516,0.25252902,-2.78795295,0.006347,-0.001574,0.002856
0.7395180000457913,0.7395180000457913,0.0,0.0,2.455287177478673,0.0,0.0,-9.43158906,0.26001405,-2.77313004,0.001837,0.001074,0.003861
0.7595050000818446,0.7595050000818446,0.0,0.0,2.455418170309775,0.0,0.0,-9.42379992,0.22063671,-2.7973803600000005,0.007029,0.003382,0.0068
0.7794920000014827,0.7794920000014827,0.0,0.0,2.4555701991042316,0.0,0.0,-9.42095502,0.23516532,-2.82477969,0.014703,-6.2e-05,0.007936
0.799479000037536,0.799479000037536,0.0,0.0,2.455747186601439,0.0,0.0,-9.40987953,0.23411565,-2.78420553,0.013358,0.003257,0.009285
0.8194660000735894,0.8194660000735894,0.0,0.0,2.4558449939335727,0.0,0.0,-9.42559515,0.25746345,-2.7644481900000004,0.009834,0.007044,0.004851
0.8394529999932274,0.8394529999932274,0.0,0.0,2.455842926469442,0.0,0.0,-9.36692154,0.27917298,-2.78061507,-0.008719,-0.009942,-0.000712
0.8594400000292808,0.8594400000292808,0.0,0.0,2.455717917045984,0.0,0.0,-9.51451299,0.210915,-2.72103894,-0.018669,-0.004863,-0.007526
0.8794270000653341,0.8794270000653341,0.0,0.0,2.45540652761951,0.0,0.0,-9.56990025,-0.14893542,-2.7508319100000005,-0.024274,0.012138,-0.017848
0.8794270000653341,0.8794270000653341,0.0,0.0,2.4551240624583963,0.0,0.0,-9.56990025,-0.14893542,-2.7508319100000005,-0.024274,0.012138,-0.017848
0.9194010000210255,0.9194010000210255,0.0,0.0,2.455010707728005,0.0,0.0,-9.51152094,-0.18650772,-2.8104080400000004,-0.014759,0.01899,-0.003925
0.9393880000570789,0.9393880000570789,0.0,0.0,2.454901180598437,0.0,0.0,-9.56331774,-0.02709522,-2.7969291,-0.010803,0.043932,-0.00592
0.9393880000570789,0.9393880000570789,0.0,0.0,2.4548517936386514,0.0,0.0,-9.56331774,-0.02709522,-2.7969291,-0.010803,0.043932,-0.00592
0.9393880000570789,0.9393880000570789,0.0,0.0,2.4548128784304204,0.0,0.0,-9.56331774,-0.02709522,-2.7969291,-0.010803,0.043932,-0.00592
0.9993490000488237,0.9993490000488237,0.0,0.0,2.4548279428130257,0.0,0.0,-8.94974148,0.68033331,-2.99676861,0.03456,-0.02914,0.00925
1.019336000084877,1.019336000084877,0.0,0.0,2.455331186682681,0.0,0.0,-9.35389386,0.997677,-3.09317148,0.066609,-0.027653,0.029216
1.019336000084877,1.019336000084877,0.0,0.0,2.4557353571406892,0.0,0.0,-9.35389386,0.997677,-3.09317148,0.066609,-0.027653,0.029216
1.0593100000405684,1.0593100000405684,0.0,0.0,2.4565299605989344,0.0,0.0,-9.19252917,0.6212084400000001,-3.31395534,0.092828,-0.052081,0.038093
1.0792970000766218,1.0792970000766218,0.0,0.0,2.4570110842419366,0.0,0.0,-9.33085017,0.65189412,-3.1681591200000003,0.108258,-0.198255,0.026147
1.0792970000766218,1.0792970000766218,0.0,0.0,2.457217549412702,0.0,0.0,-9.33085017,0.65189412,-3.1681591200000003,0.108258,-0.198255,0.026147
1.1192710000323132,1.1192710000323132,0.0,0.0,2.457815320503352,0.0,0.0,-9.26513298,-0.33110712,-2.4146334,-0.053077,-0.390384,0.015884
1.1392580000683665,1.1392580000683665,0.0,0.0,2.457763877298074,0.0,0.0,-9.11050776,-0.6423097500000001,-2.44351404,-0.115437,-0.412704,-0.005195
1.1592449999880046,1.1592449999880046,0.0,0.0,2.457590719251952,0.0,0.0,-9.35539479,-0.22872015,-2.50339428,-0.130132,-0.472417,-0.011785
1.179232000024058,1.179232000024058,0.0,0.0,2.457326634528288,0.0,0.0,-9.28220238,0.02379906,-2.6912557800000005,-0.152811,-0.567805,-0.016525
1.1992190000601113,1.1992190000601113,0.0,0.0,2.4569934887880844,0.0,0.0,-9.223823070000002,0.29114118,-2.58781914,-0.175342,-0.680002,-0.019981
1.2192060000961646,1.2192060000961646,0.0,0.0,2.4566136798039295,0.0,0.0,-9.20031831,0.28575549,-2.58707358,-0.192028,-0.771715,-0.022152
1.2192060000961646,1.2192060000961646,0.0,0.0,2.456295362594008,0.0,0.0,-9.20031831,0.28575549,-2.58707358,-0.192028,-0.771715,-0.022152
1.2791670000879094,1.2791670000879094,0.0,0.0,2.456337171028073,0.0,0.0,-9.30299958,0.3543175799999999,-2.39082453,-0.066986,-0.995393,0.010431
1.2791670000879094,1.2791670000879094,0.0,0.0,2.456536927299636,0.0,0.0,-9.30299958,0.3543175799999999,-2.39082453,-0.066986,-0.995393,0.010431
1.2791670000879094,1.2791670000879094,0.0,0.0,2.456690382640975,0.0,0.0,-9.30299958,0.3543175799999999,-2.39082453,-0.066986,-0.995393,0.010431
1.3191410000436008,1.3191410000436008,0.0,0.0,2.4573545745919185,0.0,0.0,-8.89330455,0.35102142,-2.3683792500000003,-0.032617,-1.353242,0.038331
1.3591149999992922,1.3591149999992922,0.0,0.0,2.458711356839137,0.0,0.0,-9.0263772,0.3445860599999999,-1.59298704,0.009372,-1.713789,0.065402
1.3591149999992922,1.3591149999992922,0.0,0.0,2.459534438422934,0.0,0.0,-9.0263772,0.3445860599999999,-1.59298704,0.009372,-1.713789,0.065402
1.3791020000353456,1.3791020000353456,0.0,0.0,2.4608534807932383,0.0,0.0,-8.80244433,0.1921975199999999,-1.35004239,0.026093,-1.903599,0.075563
1.419075999991037,1.419075999991037,0.0,0.0,2.452213045856066,0.0,0.0,-20.115915120000004,-1.18613691,0.58962024,0.191778,-1.392837,-0.500091
1.4390630000270903,1.4390630000270903,0.0,0.0,2.4518721001353,0.0,0.0,-5.11501248,1.31950386,0.8066763,0.265948,-1.242517,-0.01431
1.4390630000270903,1.4390630000270903,0.0,0.0,2.452341260550284,0.0,0.0,-5.11501248,1.31950386,0.8066763,0.265948,-1.242517,-0.01431
1.4790369999827817,1.4790369999827817,0.0,0.0,2.450769971862961,0.0,0.0,-9.56316078,0.7220944800000001,2.17063908,0.173636,-1.270481,-0.038653
1.499024000018835,1.499024000018835,0.0,0.0,2.4506452886392784,0.0,0.0,-8.73793377,0.50370426,2.28544551,0.119955,-1.221384,-0.002556
1.5190110000548884,1.5190110000548884,0.0,0.0,2.4510700138725703,0.0,0.0,-8.84570643,0.58633389,2.6487392400000003,0.067959,-1.26009,0.027645
1.5190110000548884,1.5190110000548884,0.0,0.0,2.451916311094081,0.0,0.0,-8.84570643,0.58633389,2.6487392400000003,0.067959,-1.26009,0.027645
1.5589850000105798,1.5589850000105798,0.0,0.0,2.4523547357293047,0.0,0.0,-9.5874111,0.4192794,2.15402094,-0.021556,-1.247407,0.049217
1.5789720000466332,1.5789720000466332,0.0,0.0,2.4535529548400703,0.0,0.0,-9.3935655,0.34383069,2.1468400200000004,-0.082748,-1.30127,0.068983
1.5789720000466332,1.5789720000466332,0.0,0.0,2.4546156181048424,0.0,0.0,-9.3935655,0.34383069,2.1468400200000004,-0.082748,-1.30127,0.068983
1.6189460000023246,1.6189460000023246,0.0,0.0,2.456297864883142,0.0,0.0,-12.08212353,0.14639463,3.26037312,-0.115042,-1.166949,0.084346
1.638933000038378,1.638933000038378,0.0,0.0,2.4575390949179,0.0,0.0,-7.58338506,-0.182466,3.50375922,-0.162853,-1.305193,0.068033
1.6589200000744313,1.6589200000744313,0.0,0.0,2.459246636398415,0.0,0.0,-9.40569066,0.54636795,3.2030434800000003,-0.122909,-1.194435,0.093741
1.6789069999940693,1.6789069999940693,0.0,0.0,2.460318635776358,0.0,0.0,-9.07368102,0.16750575,3.69551529,-0.10703,-1.134708,0.056236
1.6988940000301227,1.6988940000301227,0.0,0.0,2.4613551489571703,0.0,0.0,-8.538839820000002,0.22902426,4.8398812200000005,0.019472,-1.341499,0.053826
1.6988940000301227,1.6988940000301227,0.0,0.0,2.4615667880536343,0.0,0.0,-8.538839820000002,0.22902426,4.8398812200000005,0.019472,-1.341499,0.053826
1.738867999985814,1.738867999985814,0.0,0.0,2.46287258031864,0.0,0.0,-8.05010562,0.18456534,5.40555525,-0.035176,-1.087359,0.020907
1.7588550000218675,1.7588550000218675,0.0,0.0,2.463899020950949,0.0,0.0,-8.82594909,0.24997842,4.95469746,-0.100256,-0.996603,0.053201
1.7788420000579208,1.7788420000579208,0.0,0.0,2.4651958814870927,0.0,0.0,-8.38885473,0.13412232,4.63570569,-0.09679,-1.051452,0.068447
1.7988290000939742,1.7988290000939742,0.0,0.0,2.466419290266189,0.0,0.0,-8.502170040000001,0.04699971,4.58721486,-0.100257,-1.052834,0.06368
1.8188160000136122,1.8188160000136122,0.0,0.0,2.467649255372457,0.0,0.0,-8.8988472,0.17917965,4.7023254,-0.100257,-1.052834,0.06368
1.8388030000496656,1.8388030000496656,0.0,0.0,2.4682821072018886,0.0,0.0,-8.15638716,0.22348161,4.7105559900000005,-0.05774,-1.048745,0.029042
1.858790000085719,1.858790000085719,0.0,0.0,2.4693642265776026,0.0,0.0,-8.63973567,0.7596667800000001,4.7999152800000005,0.023357,-1.049524,0.055261
1.858790000085719,1.858790000085719,0.0,0.0,2.469479427107114,0.0,0.0,-8.63973567,0.7596667800000001,4.7999152800000005,0.023357,-1.049524,0.055261
1.8987640000414103,1.8987640000414103,0.0,0.0,2.4708488378112907,0.0,0.0,-7.98648777,1.3614219900000002,5.17458861,0.118386,-1.202853,0.015448
1.9187510000774637,1.9187510000774637,0.0,0.0,2.470361439425214,0.0,0.0,-8.46429363,1.31157738,5.02041465,0.175875,-1.173836,-0.034871
1.9387379999971017,1.9387379999971017,0.0,0.0,2.469722070156683,0.0,0.0,-7.42021533,1.29091752,5.1187599,0.219196,-1.247933,-0.041968
1.958725000033155,1.958725000033155,0.0,0.0,2.4689574547299857,0.0,0.0,-7.53952455,1.28298123,5.35855554,0.280426,-1.259772,-0.047622
1.9986989999888465,1.9986989999888465,0.0,0.0,2.4682319635883827,0.0,0.0,-7.26409899,0.51822306,6.342763410000001,0.302067,-1.339195,-0.052377
1.9986989999888465,1.9986989999888465,0.0,0.0,2.4672805437847263,0.0,0.0,-7.26409899,0.51822306,6.342763410000001,0.302067,-1.339195,-0.052377
1.9986989999888465,1.9986989999888465,0.0,0.0,2.466546171912702,0.0,0.0,-7.26409899,0.51822306,6.342763410000001,0.302067,-1.339195,-0.052377
2.038673000060953,2.038673000060953,0.0,0.0,2.4654410587257907,0.0,0.0,-6.7599434700000005,0.90366777,6.702908130000001,0.284276,-1.444065,-0.05346
2.0786470000166446,2.0786470000166446,0.0,0.0,2.465476640298493,0.0,0.0,-5.8308285600000005,0.44068482,7.270975799999999,0.290226,-1.522088,0.018261
2.098634000052698,2.098634000052698,0.0,0.0,2.4672884977924605,0.0,0.0,-5.652100170000001,0.51118929,7.38579204,0.278088,-1.529678,0.097328
2.1186210000887513,2.1186210000887513,0.0,0.0,2.4696546406438085,0.0,0.0,-5.74700211,0.5719622400000001,7.76644947,0.285163,-1.499693,0.126969
2.1386080000083894,2.1386080000083894,0.0,0.0,2.4715991238321964,0.0,0.0,-5.767652160000001,0.85456872,7.762407749999999,0.307843,-1.456015,0.103616
2.1585950000444427,2.1585950000444427,0.0,0.0,2.473091764152276,0.0,0.0,-5.379813810000001,0.78841008,8.18572887,0.298952,-1.480399,0.078461
2.178582000080496,2.178582000080496,0.0,0.0,2.4755267276544224,0.0,0.0,-4.74423372,0.95651424,8.24036076,0.304334,-1.431662,0.129977
2.198569000000134,2.198569000000134,0.0,0.0,2.4783918079885705,0.0,0.0,-4.56475977,0.96489198,8.96560425,0.260065,-1.368868,0.152992
2.2185560000361875,2.2185560000361875,0.0,0.0,2.4816274727096106,0.0,0.0,-4.513865490000001,0.90950472,9.23908743,0.19845,-1.284692,0.172592
2.2185560000361875,2.2185560000361875,0.0,0.0,2.4830960085118594,0.0,0.0,-4.513865490000001,0.90950472,9.23908743,0.19845,-1.284692,0.172592
2.258529999991879,2.258529999991879,0.0,0.0,2.4890530149463785,0.0,0.0,-4.60592253,0.8491830300000001,9.38323557,-0.069283,-1.238128,0.221575
2.2785170000279322,2.2785170000279322,0.0,0.0,2.493527432004088,0.0,0.0,-4.20654762,1.20454047,9.29342502,-0.113985,-1.174112,0.238541
2.2985040000639856,2.2985040000639856,0.0,0.0,2.498865666814994,0.0,0.0,-3.65165478,1.4310239400000002,8.82549783,-0.092694,-1.08918,0.285409
2.3184909999836236,2.3184909999836236,0.0,0.0,2.503923381969275,0.0,0.0,-3.1793915700000004,1.35932265,9.21902598,-0.106217,-1.131489,0.267021
2.338478000019677,2.338478000019677,0.0,0.0,2.509062754987678,0.0,0.0,-3.25437921,1.5663430800000002,8.84195901,-0.080409,-1.135308,0.269739
2.3584650000557303,2.3584650000557303,0.0,0.0,2.5143857599771477,0.0,0.0,-3.18058839,1.32624333,8.83807425,-0.068339,-1.169158,0.278436
2.3784520000917837,2.3784520000917837,0.0,0.0,2.519719253923208,0.0,0.0,-2.9671326,1.03824135,9.07937082,-0.060181,-1.195238,0.277338
2.3784520000917837,2.3784520000917837,0.0,0.0,2.520877694396681,0.0,0.0,-2.9671326,1.03824135,9.07937082,-0.060181,-1.195238,0.277338
2.3784520000917837,2.3784520000917837,0.0,0.0,2.52179332582722,0.0,0.0,-2.9671326,1.03824135,9.07937082,-0.060181,-1.195238,0.277338
2.3784520000917837,2.3784520000917837,0.0,0.0,2.5225352459159875,0.0,0.0,-2.9671326,1.03824135,9.07937082,-0.060181,-1.195238,0.277338
2.4384130000835285,2.4384130000835285,0.0,0.0,2.535970075545543,0.0,0.0,-2.2492269900000004,1.3937557500000002,9.14822721,-0.007247,-1.189081,0.224604
2.47838700003922,2.47838700003922,0.0,0.0,2.5444315660593926,0.0,0.0,-1.96421706,1.93262886,9.311387130000002,0.066098,-1.189524,0.196707
2.498374000075273,2.498374000075273,0.0,0.0,2.5481854935731754,0.0,0.0,-1.4718924000000002,1.67846157,9.6309675,0.077786,-1.140418,0.184202
2.5183609999949113,2.5183609999949113,0.0,0.0,2.5472473339001978,0.0,0.0,-2.7285239700000004,0.88825626,11.88169542,-0.158219,-0.958031,-0.077365
2.5383480000309646,2.5383480000309646,0.0,0.0,2.542184542951148,0.0,0.0,-4.23289728,-0.22617936,20.57231556,-1.275834,-1.157321,-0.304423
2.558335000067018,2.558335000067018,0.0,0.0,2.4473239464598837,0.0,0.0,1.83548043,2.53707201,-7.776926550000001,0.214325,0.093578,-0.010499
2.578321999986656,2.578321999986656,0.0,0.0,2.4423859250719993,0.0,0.0,-2.4608777400000004,-0.27901602,20.20498011,-0.769513,-0.735223,-0.296313
2.5983090000227094,2.5983090000227094,0.0,0.0,2.4413516519913614,0.0,0.0,1.15409745,1.71333612,1.87305273,-0.105182,-0.253986,-0.064921
2.6182960000587627,2.6182960000587627,0.0,0.0,2.4403573787762713,0.0,0.0,-1.25918217,0.51358293,12.21399936,-0.250946,-0.344953,-0.060621
2.6382839999860153,2.6382839999860153,0.0,0.0,2.340161608566551,0.0,0.0,-0.84559257,1.37548953,9.09434088,-0.144195,-0.284107,-0.066769
2.6582710000220686,2.6582710000220686,0.0,0.0,2.337922423291401,0.0,0.0,-0.81699642,0.8587674000000001,9.80162226,-0.147952,-0.298764,-0.131101
2.678258000058122,2.678258000058122,0.0,0.0,2.3347551837148526,0.0,0.0,-0.6885639,0.6538365,10.58284161,-0.215415,-0.390695,-0.182001
2.678258000058122,2.678258000058122,0.0,0.0,2.3325652858879504,0.0,0.0,-0.6885639,0.6538365,10.58284161,-0.215415,-0.390695,-0.182001
2.7182320000138134,2.7182320000138134,0.0,0.0,2.3299430595335897,0.0,0.0,-0.20627487,0.54321894,9.66659742,-0.242565,-0.431207,-0.080497
2.75820600008592,2.75820600008592,0.0,0.0,2.3279322627695596,0.0,0.0,-0.17573634,0.6045903,9.81254079,-0.305261,-0.58389,-0.042021
2.778193000005558,2.778193000005558,0.0,0.0,2.326651279102702,0.0,0.0,-0.13651596,0.55100808,9.73934838,-0.339544,-0.654025,-0.064548
2.7981800000416115,2.7981800000416115,0.0,0.0,2.3247631693711623,0.0,0.0,0.03862197,0.66715848,9.40329702,-0.346369,-0.70505,-0.096904
2.7981800000416115,2.7981800000416115,0.0,0.0,2.3241981207797995,0.0,0.0,0.03862197,0.66715848,9.40329702,-0.346369,-0.70505,-0.096904
2.818167000077665,2.818167000077665,0.0,0.0,2.322254859678014,0.0,0.0,0.20747169,0.39876669,10.06342173,-0.382821,-0.759401,-0.103568
2.8581410000333562,2.8581410000333562,0.0,0.0,2.317796761560258,0.0,0.0,0.93540312,-0.2544714,4.98418632,-0.030344,-0.037686,-0.158056
2.8781280000694096,2.8781280000694096,0.0,0.0,2.3178235379185397,0.0,0.0,1.92200463,0.292338,6.17884812,0.046491,0.097885,0.00885
2.8781280000694096,2.8781280000694096,0.0,0.0,2.3191076018484242,0.0,0.0,1.92200463,0.292338,6.17884812,0.046491,0.097885,0.00885
2.8781280000694096,2.8781280000694096,0.0,0.0,2.3201114221487504,0.0,0.0,1.92200463,0.292338,6.17884812,0.046491,0.097885,0.00885
2.918102000025101,2.918102000025101,0.0,0.0,2.3186408365680657,0.0,0.0,-0.265851,0.39712842,9.51436584,0.024639,0.026812,-0.012587
2.9580760000972077,2.9580760000972077,0.0,0.0,2.3174968751599767,0.0,0.0,0.03098979,0.11121597,9.828707670000002,-0.006657,-0.021595,-0.005643
2.9580760000972077,2.9580760000972077,0.0,0.0,2.3180793642317035,0.0,0.0,0.03098979,0.11121597,9.828707670000002,-0.006657,-0.021595,-0.005643
2.998050000052899,2.998050000052899,0.0,0.0,2.317314274052138,0.0,0.0,0.2228832,0.1531341,9.96328125,-0.005665,-0.010652,0.002921
3.0180370000889525,3.0180370000889525,0.0,0.0,2.3171829624590057,0.0,0.0,0.19175607,0.27063828,9.69115185,0.004423,0.002711,-0.003818
3.0380240000085905,3.0380240000085905,0.0,0.0,2.3170043047640148,0.0,0.0,-0.06331374,0.17094906,9.83185668,0.003494,0.008296,-0.006792
3.0380240000085905,3.0380240000085905,0.0,0.0,2.317288646454559,0.0,0.0,-0.06331374,0.17094906,9.83185668,0.003494,0.008296,-0.006792
3.0779980000806972,3.0779980000806972,0.0,0.0,2.3169833769319537,0.0,0.0,0.2200383,0.18800865,9.70207038,0.004161,-0.002639,0.011159
3.0779980000806972,3.0779980000806972,0.0,0.0,2.3174370336730545,0.0,0.0,0.2200383,0.18800865,9.70207038,0.004161,-0.002639,0.011159
3.0779980000806972,3.0779980000806972,0.0,0.0,2.317792103440885,0.0,0.0,0.2200383,0.18800865,9.70207038,0.004161,-0.002639,0.011159
3.0779980000806972,3.0779980000806972,0.0,0.0,2.3180775733720322,0.0,0.0,0.2200383,0.18800865,9.70207038,0.004161,-0.002639,0.011159
3.0979850000003353,3.0979850000003353,0.0,0.0,2.3180839780818925,0.0,0.0,-0.1070271,0.14055768,9.75551526,0.002586,0.012064,0.005588
3.0979850000003353,3.0979850000003353,0.0,0.0,2.3182410422740958,0.0,0.0,-0.1070271,0.14055768,9.75551526,0.002586,0.012064,0.005588
3.0979850000003353,3.0979850000003353,0.0,0.0,2.3183707311734665,0.0,0.0,-0.1070271,0.14055768,9.75551526,0.002586,0.012064,0.005588
3.137959000072442,3.137959000072442,0.0,0.0,2.318380768029619,0.0,0.0,0.09939492,0.25416729,9.59534739,0.004048,0.001022,0.012716
3.1979200000641868,3.1979200000641868,0.0,0.0,2.3183849841116526,0.0,0.0,0.05883057,0.24923286,9.61945056,0.001591,0.003436,0.009277
3.217906999983825,3.217906999983825,0.0,0.0,2.3184583366863105,0.0,0.0,0.02649681,0.17214588,9.79802199,7.9e-05,-0.003345,0.004715
3.2578810000559315,3.2578810000559315,0.0,0.0,2.318563379006285,0.0,0.0,0.08322804,0.2427975,9.68171463,0.001501,0.000495,0.006282
3.277868000091985,3.277868000091985,0.0,0.0,2.3186504824776604,0.0,0.0,0.04775508,0.21255327,9.74607804,0.003623,-0.001267,0.004621
3.3178420000476763,3.3178420000476763,0.0,0.0,2.3187730304846212,0.0,0.0,0.0782838,0.22393287,9.70162893,0.002845,-0.001419,0.004935
3.3578160000033677,3.3578160000033677,0.0,0.0,2.318876212639089,0.0,0.0,0.06675705,0.25432425,9.75970413,0.00127,0.000644,0.003286
3.3578160000033677,3.3578160000033677,0.0,0.0,2.3189024807788776,0.0,0.0,0.06675705,0.25432425,9.75970413,0.00127,0.000644,0.003286
3.3977900000754744,3.3977900000754744,0.0,0.0,2.319025698808696,0.0,0.0,0.0953532,0.27677934,9.74099646,0.002347,0.001676,0.003929
3.3977900000754744,3.3977900000754744,0.0,0.0,2.319053760867517,0.0,0.0,0.0953532,0.27677934,9.74099646,0.002347,0.001676,0.003929
3.3977900000754744,3.3977900000754744,0.0,0.0,2.319075210613744,0.0,0.0,0.0953532,0.27677934,9.74099646,0.002347,0.001676,0.003929
3.457751000067219,3.457751000067219,0.0,0.0,2.3192512165564674,0.0,0.0,0.08292393,0.29668383,9.73291302,0.002629,0.00399,0.003287
3.477737999986857,3.477737999986857,0.0,0.0,2.3192935799300542,0.0,0.0,0.07619427,0.2920437,9.76314744,0.005523,0.002291,0.0021
3.477737999986857,3.477737999986857,0.0,0.0,2.3192828256277487,0.0,0.0,0.07619427,0.2920437,9.76314744,0.005523,0.002291,0.0021
3.477737999986857,3.477737999986857,0.0,0.0,2.3192745015783327,0.0,0.0,0.07619427,0.2920437,9.76314744,0.005523,0.002291,0.0021
3.517712000058964,3.517712000058964,0.0,0.0,2.3193906220009612,0.0,0.0,0.0868185,0.32527017,9.72437832,0.002939,0.002652,0.003331
3.5576860000146553,3.5576860000146553,0.0,0.0,2.3194994123186383,0.0,0.0,0.06077295,0.33006726,9.73006812,0.002167,0.002744,0.002758
3.5776730000507087,3.5776730000507087,0.0,0.0,2.3195634350936682,0.0,0.0,0.07963758,0.32946885,9.75042387,0.002466,0.002766,0.003235
3.597660000086762,3.597660000086762,0.0,0.0,2.319622811088051,0.0,0.0,0.0694548,0.31898196,9.76613949,0.003759,0.002949,0.002985
3.597660000086762,3.597660000086762,0.0,0.0,2.319625752174396,0.0,0.0,0.0694548,0.31898196,9.76613949,0.003759,0.002949,0.002985
3.6376340000424534,3.6376340000424534,0.0,0.0,2.3197188244033047,0.0,0.0,0.06780672,0.31045707,9.75850731,0.003623,0.001231,0.001736
3.6376340000424534,3.6376340000424534,0.0,0.0,2.319703789119484,0.0,0.0,0.06780672,0.31045707,9.75850731,0.003623,0.001231,0.001736
3.6576210000785068,3.6576210000785068,0.0,0.0,2.3197745037583246,0.0,0.0,0.09430353,0.31943322,9.74563659,0.003244,0.002697,0.003769
3.697595000034198,3.697595000034198,0.0,0.0,2.319905479417783,0.0,0.0,0.08023599,0.3153915,9.75850731,0.005049,0.002762,0.003956
3.7175820000702515,3.7175820000702515,0.0,0.0,2.319975874124964,0.0,0.0,0.06780672,0.31180104,9.74473407,0.001144,0.002814,0.003589
3.7175820000702515,3.7175820000702515,0.0,0.0,2.319985471209197,0.0,0.0,0.06780672,0.31180104,9.74473407,0.001144,0.002814,0.003589
3.7575570000335574,3.7575570000335574,0.0,0.0,2.3201095592147354,0.0,0.0,0.08277678,0.30641535,9.74398851,0.006262,0.002822,0.003161
3.7775440000696108,3.7775440000696108,0.0,0.0,2.3201786891671734,0.0,0.0,0.0691605,0.3065625,9.76434426,0.001802,0.002534,0.003506
3.797530999989249,3.797530999989249,0.0,0.0,2.3202527969799966,0.0,0.0,0.07753824,0.32527017,9.74398851,0.005757,0.003602,0.00378
3.817518000025302,3.817518000025302,0.0,0.0,2.320317935363006,0.0,0.0,0.09445068,0.29309337,9.77692068,0.001061,0.002759,0.003264
3.8375050000613555,3.8375050000613555,0.0,0.0,2.3203875570476127,0.0,0.0,0.07858791,0.30746502,9.76913154,0.001638,0.001757,0.003517
3.8375050000613555,3.8375050000613555,0.0,0.0,2.3203914797394667,0.0,0.0,0.07858791,0.30746502,9.76913154,0.001638,0.001757,0.003517
3.8375050000613555,3.8375050000613555,0.0,0.0,2.3203945723683725,0.0,0.0,0.07858791,0.30746502,9.76913154,0.001638,0.001757,0.003517
3.8375050000613555,3.8375050000613555,0.0,0.0,2.3203970731945116,0.0,0.0,0.07858791,0.30746502,9.76913154,0.001638,0.001757,0.003517
3.8974660000531003,3.8974660000531003,0.0,0.0,2.3206049455262345,0.0,0.0,0.07184844,0.29084688,9.75940983,0.000978,0.002096,0.003826
3.9374400000087917,3.9374400000087917,0.0,0.0,2.32075547542099,0.0,0.0,0.07948062,0.28096821,9.764942670000002,0.001548,0.001626,0.004204
3.957427000044845,3.957427000044845,0.0,0.0,2.3208471381617226,0.0,0.0,0.06930765,0.27812331,9.7519248,0.002747,-0.000838,0.004702
3.9774140000808984,3.9774140000808984,0.0,0.0,2.3209232838544382,0.0,0.0,0.08143281,0.30237363,9.74832453,0.002042,0.002544,0.003823
3.9974010000005364,3.9974010000005364,0.0,0.0,2.3209837300929355,0.0,0.0,0.07663572,0.30237363,9.76329459,0.002305,0.002169,0.002944
4.01738800003659,4.01738800003659,0.0,0.0,2.3210638446367735,0.0,0.0,0.08188407,0.28590264,9.77452704,0.004355,-0.000904,0.004057
4.037375000072643,4.037375000072643,0.0,0.0,2.32113365046441,0.0,0.0,0.07155414,0.30880899,9.74188917,0.003365,0.004504,0.003471
4.057361999992281,4.057361999992281,0.0,0.0,2.32120340607418,0.0,0.0,0.07963758,0.29847906,9.74428281,0.003365,0.004504,0.003471
4.077349000028335,4.077349000028335,0.0,0.0,2.3212742136667064,0.0,0.0,0.07978473,0.29713509,9.7724277,0.004209,0.001385,0.003533
4.077349000028335,4.077349000028335,0.0,0.0,2.3212730752443616,0.0,0.0,0.07978473,0.29713509,9.7724277,0.004209,0.001385,0.003533
4.117322999984026,4.117322999984026,0.0,0.0,2.3214171328578104,0.0,0.0,0.07005321,0.31419468,9.74143791,0.004264,-0.000202,0.003612
4.117322999984026,4.117322999984026,0.0,0.0,2.3214173281387405,0.0,0.0,0.07005321,0.31419468,9.74143791,0.004264,-0.000202,0.003612
4.157297000056133,4.157297000056133,0.0,0.0,2.3215696818854994,0.0,0.0,0.0778423499999999,0.30775932,9.76300029,0.003826,0.00076,0.004083
4.197271000011824,4.197271000011824,0.0,0.0,2.321728615553292,0.0,0.0,0.06436341,0.27872172,9.75671208,0.000876,0.002447,0.0043
4.217258000047877,4.217258000047877,0.0,0.0,2.321798251031259,0.0,0.0,0.07648857,0.31374342,9.74832453,0.006376,0.00337,0.003473
4.237245000083931,4.237245000083931,0.0,0.0,2.321872432364022,0.0,0.0,0.07244685,0.3070137599999999,9.73964268,0.003378,0.004764,0.003711
4.257232000003569,4.257232000003569,0.0,0.0,2.321978289420869,0.0,0.0,0.08712261,0.27872172,9.77617512,0.001913,0.002025,0.005397
4.257232000003569,4.257232000003569,0.0,0.0,2.3220020817257563,0.0,0.0,0.08712261,0.27872172,9.77617512,0.001913,0.002025,0.005397
4.2972060000756755,4.2972060000756755,0.0,0.0,2.322124953858154,0.0,0.0,0.07888221,0.29833191,9.74952135,0.00443,0.002115,0.001834
4.317192999995314,4.317192999995314,0.0,0.0,2.3221906898708298,0.0,0.0,0.07858791,0.28245933,9.79129233,0.002586,0.000748,0.00324
4.317192999995314,4.317192999995314,0.0,0.0,2.322182806111323,0.0,0.0,0.07858791,0.28245933,9.79129233,0.002586,0.000748,0.00324
4.317192999995314,4.317192999995314,0.0,0.0,2.3221766256377734,0.0,0.0,0.07858791,0.28245933,9.79129233,0.002586,0.000748,0.00324
4.377153999987058,4.377153999987058,0.0,0.0,2.322401121631991,0.0,0.0,0.07334937,0.30266793,9.75700638,0.004014,0.002803,0.004026
4.397141000023112,4.397141000023112,0.0,0.0,2.3224509368380204,0.0,0.0,0.07050447,0.30565998,9.75955698,0.002048,0.00457,0.002344
4.397141000023112,4.397141000023112,0.0,0.0,2.322433018435028,0.0,0.0,0.07050447,0.30565998,9.75955698,0.002048,0.00457,0.002344
4.437115000095218,4.437115000095218,0.0,0.0,2.322549545109319,0.0,0.0,0.08248248,0.30042144,9.75580956,0.005476,0.002089,0.002361
4.4571020000148565,4.4571020000148565,0.0,0.0,2.322623467863238,0.0,0.0,0.0694548,0.31419468,9.75207195,0.003076,0.004934,0.003764
4.4571020000148565,4.4571020000148565,0.0,0.0,2.322630814147109,0.0,0.0,0.0694548,0.31419468,9.75207195,0.003076,0.004934,0.003764
4.497076000086963,4.497076000086963,0.0,0.0,2.322768017639202,0.0,0.0,0.07304526,0.29938158,9.76000824,0.004638,0.002229,0.003542
4.517063000006601,4.517063000006601,0.0,0.0,2.322868684000726,0.0,0.0,0.0805302899999999,0.30716091,9.75700638,0.001399,0.003073,0.005273
4.517063000006601,4.517063000006601,0.0,0.0,2.3228938975760327,0.0,0.0,0.0805302899999999,0.30716091,9.75700638,0.001399,0.003073,0.005273
4.517063000006601,4.517063000006601,0.0,0.0,2.3229136832705652,0.0,0.0,0.0805302899999999,0.30716091,9.75700638,0.001399,0.003073,0.005273
4.577023999998346,4.577023999998346,0.0,0.0,2.3231698897870663,0.0,0.0,0.08277678,0.29728224,9.75850731,0.003056,0.002131,0.004978
4.597011000034399,4.597011000034399,0.0,0.0,2.323241832150625,0.0,0.0,0.07574301,0.29189655,9.75536811,0.004695,0.001216,0.003518
4.616998000070453,4.616998000070453,0.0,0.0,2.3233293373845667,0.0,0.0,0.06271533,0.29922462,9.73874997,0.001424,0.003327,0.004429
4.636984999990091,4.636984999990091,0.0,0.0,2.3234079592132115,0.0,0.0,0.0779895,0.29414304,9.768690090000002,0.004762,0.001711,0.003909
4.656972000026144,4.656972000026144,0.0,0.0,2.323465159460005,0.0,0.0,0.0722997,0.28889469,9.75731049,0.001755,0.002901,0.00268
4.6769590000621974,4.6769590000621974,0.0,0.0,2.3235465223109717,0.0,0.0,0.08726976,0.30221667,9.746235,0.003201,0.003028,0.004099
4.6769590000621974,4.6769590000621974,0.0,0.0,2.3235493896558523,0.0,0.0,0.08726976,0.30221667,9.746235,0.003201,0.003028,0.004099
4.716933000017889,4.716933000017889,0.0,0.0,2.323691809877701,0.0,0.0,0.0868185,0.30716091,9.75372003,0.001196,0.003846,0.003077
4.736920000053942,4.736920000053942,0.0,0.0,2.3237707858417025,0.0,0.0,0.06601149,0.30462012,9.76464837,0.005963,0.00145,0.003972
4.736920000053942,4.736920000053942,0.0,0.0,2.3237728341884853,0.0,0.0,0.06601149,0.30462012,9.76464837,0.005963,0.00145,0.003972
4.756907000089996,4.756907000089996,0.0,0.0,2.3238332433334286,0.0,0.0,0.08517042,0.30761217,9.76778757,0.002621,0.001957,0.002781
4.756907000089996,4.756907000089996,0.0,0.0,2.323820248643349,0.0,0.0,0.08517042,0.30761217,9.76778757,0.002621,0.001957,0.002781
4.756907000089996,4.756907000089996,0.0,0.0,2.3238098082118217,0.0,0.0,0.08517042,0.30761217,9.76778757,0.002621,0.001957,0.002781
4.756907000089996,4.756907000089996,0.0,0.0,2.323801236327034,0.0,0.0,0.08517042,0.30761217,9.76778757,0.002621,0.001957,0.002781
4.856842000037432,4.856842000037432,0.0,0.0,2.3241386878599117,0.0,0.0,0.07289811,0.29683098,9.74997261,0.003719,0.000228,0.002924
4.876829000073485,4.876829000073485,0.0,0.0,2.3242243318573905,0.0,0.0,0.07424208,0.29429019,9.77797035,0.000805,0.003146,0.004434
4.876829000073485,4.876829000073485,0.0,0.0,2.324237604261678,0.0,0.0,0.07424208,0.29429019,9.77797035,0.000805,0.003146,0.004434
4.876829000073485,4.876829000073485,0.0,0.0,2.324247782524263,0.0,0.0,0.07424208,0.29429019,9.77797035,0.000805,0.003146,0.004434
4.876829000073485,4.876829000073485,0.0,0.0,2.324255835678743,0.0,0.0,0.07424208,0.29429019,9.77797035,0.000805,0.003146,0.004434
4.896815999993123,4.896815999993123,0.0,0.0,2.3243199894294353,0.0,0.0,0.0865242,0.30386475,9.75521115,0.004752,-0.001532,0.00283
4.996751000056975,4.996751000056975,0.0,0.0,2.324727761232623,0.0,0.0,0.07484049,0.30252078,9.77152518,0.002854,0.002223,0.005617
4.996751000056975,4.996751000056975,0.0,0.0,2.324753659309902,0.0,0.0,0.07484049,0.30252078,9.77152518,0.002854,0.002223,0.005617
5.036725000012666,5.036725000012666,0.0,0.0,2.324913787754915,0.0,0.0,0.07394778,0.30402171,9.74578374,0.00134,0.001425,0.003702
5.036725000012666,5.036725000012666,0.0,0.0,2.3249059237815572,0.0,0.0,0.07394778,0.30402171,9.74578374,0.00134,0.001425,0.003702
5.056712000048719,5.056712000048719,0.0,0.0,2.324964687702403,0.0,0.0,0.07844076,0.3070137599999999,9.76030254,0.003532,0.002122,0.002684
5.056712000048719,5.056712000048719,0.0,0.0,2.3249467399689694,0.0,0.0,0.07844076,0.3070137599999999,9.76030254,0.003532,0.002122,0.002684
5.116674000048079,5.116674000048079,0.0,0.0,2.32517198708568,0.0,0.0,0.07454619,0.30402171,9.76568823,0.005724,-9.3e-05,0.00371
5.136661000084132,5.136661000084132,0.0,0.0,2.3252277876471776,0.0,0.0,0.06586434,0.30132396,9.75716334,0.002706,0.003553,0.002698
5.136661000084132,5.136661000084132,0.0,0.0,2.3252132889444557,0.0,0.0,0.06586434,0.30132396,9.75716334,0.002706,0.003553,0.002698
5.136661000084132,5.136661000084132,0.0,0.0,2.325202080185128,0.0,0.0,0.06586434,0.30132396,9.75716334,0.002706,0.003553,0.002698
5.15664800000377,5.15664800000377,0.0,0.0,2.325284272350806,0.0,0.0,0.08772102,0.29114118,9.78156081,0.00332,0.000817,0.004385
5.196622000075877,5.196622000075877,0.0,0.0,2.3254255271806334,0.0,0.0,0.07663572,0.30297204,9.746235,0.002655,0.002889,0.003555
5.236596000031568,5.236596000031568,0.0,0.0,2.3255423730424933,0.0,0.0,0.0634707,0.29982303,9.74174202,0.002698,0.00126,0.002239
5.236596000031568,5.236596000031568,0.0,0.0,2.3255246226621855,0.0,0.0,0.0634707,0.29982303,9.74174202,0.002698,0.00126,0.002239
5.2565830000676215,5.2565830000676215,0.0,0.0,2.3256108359632712,0.0,0.0,0.06047865,0.3153915,9.75865446,0.002828,0.000954,0.00456
5.296557000023313,5.296557000023313,0.0,0.0,2.3257942529151006,0.0,0.0,0.08502327,0.30536568,9.77392863,0.000536,0.003798,0.00601
5.316544000059366,5.316544000059366,0.0,0.0,2.325873738883592,0.0,0.0,0.08801532,0.31658832,9.75685923,0.003935,0.0007,0.003997
5.33653100009542,5.33653100009542,0.0,0.0,2.3259602930848775,0.0,0.0,0.07469334,0.29548701,9.77437008,0.002058,0.002408,0.004383
5.356518000015058,5.356518000015058,0.0,0.0,2.3260241970250206,0.0,0.0,0.06780672,0.3129978599999999,9.75596652,0.00042,0.001732,0.003128
5.356518000015058,5.356518000015058,0.0,0.0,2.3260139914407105,0.0,0.0,0.06780672,0.3129978599999999,9.75596652,0.00042,0.001732,0.003128
5.396492000087164,5.396492000087164,0.0,0.0,2.326157889353752,0.0,0.0,0.07424208,0.30866184,9.7841016,0.001966,0.002789,0.003487
5.396492000087164,5.396492000087164,0.0,0.0,2.326155126995669,0.0,0.0,0.07424208,0.30866184,9.7841016,0.001966,0.002789,0.003487
5.436466000042856,5.436466000042856,0.0,0.0,2.326295864313182,0.0,0.0,0.07679268,0.3107513699999999,9.74533248,0.003732,0.003324,0.003369
5.436466000042856,5.436466000042856,0.0,0.0,2.3262922182466585,0.0,0.0,0.07679268,0.3107513699999999,9.74533248,0.003732,0.003324,0.003369
5.476439999998547,5.476439999998547,0.0,0.0,2.3264418907445688,0.0,0.0,0.08471916,0.29383893,9.78574968,0.003295,0.002532,0.00396
5.4964270000346005,5.4964270000346005,0.0,0.0,2.326515160427147,0.0,0.0,0.06571719,0.30462012,9.763893,0.001832,0.001968,0.003671
5.4964270000346005,5.4964270000346005,0.0,0.0,2.3265157251731834,0.0,0.0,0.06571719,0.30462012,9.763893,0.001832,0.001968,0.003671
5.536400999990292,5.536400999990292,0.0,0.0,2.326646445340238,0.0,0.0,0.09040896,0.29878317,9.77512545,0.004946,0.002027,0.002795
5.556388000026345,5.556388000026345,0.0,0.0,2.326750096265452,0.0,0.0,0.08696565,0.3034233,9.77692068,0.001351,0.002749,0.005426
5.556388000026345,5.556388000026345,0.0,0.0,2.326775346179513,0.0,0.0,0.08696565,0.3034233,9.77692068,0.001351,0.002749,0.005426
5.596361999982037,5.596361999982037,0.0,0.0,2.326901605796153,0.0,0.0,0.07139718,0.29293641,9.8185347,0.003863,-0.000406,0.002091
5.61634900001809,5.61634900001809,0.0,0.0,2.326976268726117,0.0,0.0,0.07035732,0.28396026,9.7784118,-0.000577,0.00185,0.003738
5.636336000054143,5.636336000054143,0.0,0.0,2.327051443055195,0.0,0.0,0.07409493,0.32347494,9.75446559,0.005966,-0.000163,0.003767
5.656323000090197,5.656323000090197,0.0,0.0,2.3271392170513483,0.0,0.0,0.07813665,0.25866027,9.83934171,0.000834,-0.002271,0.00449
5.676310000009835,5.676310000009835,0.0,0.0,2.3272187097003414,0.0,0.0,0.05927202,0.30117681,9.755064,0.000451,-0.000369,0.003999
5.676310000009835,5.676310000009835,0.0,0.0,2.327220951220186,0.0,0.0,0.05927202,0.30117681,9.755064,0.000451,-0.000369,0.003999
5.7162840000819415,5.7162840000819415,0.0,0.0,2.3273648934357514,0.0,0.0,0.06811083,0.25851312,9.84338343,-0.000399,-0.001802,0.003249
5.756258000037633,5.756258000037633,0.0,0.0,2.3275173858913227,0.0,0.0,0.07903917,0.31614687,9.69503661,0.004077,0.000622,0.003846
5.756258000037633,5.756258000037633,0.0,0.0,2.3275182526060822,0.0,0.0,0.07903917,0.31614687,9.69503661,0.004077,0.000622,0.003846
5.776245000073686,5.776245000073686,0.0,0.0,2.327598416553206,0.0,0.0,0.07739109,0.26315325,9.7986204,0.000702,-0.00351,0.004049
5.776245000073686,5.776245000073686,0.0,0.0,2.327601636496805,0.0,0.0,0.07739109,0.26315325,9.7986204,0.000702,-0.00351,0.004049
5.836206000065431,5.836206000065431,0.0,0.0,2.3278374557312214,0.0,0.0,0.06751242,0.26929431,9.77976558,0.002246,-0.001416,0.004098
5.836206000065431,5.836206000065431,0.0,0.0,2.3278407549061573,0.0,0.0,0.06751242,0.26929431,9.77976558,0.002246,-0.001416,0.004098
5.876180000021122,5.876180000021122,0.0,0.0,2.3279982010013347,0.0,0.0,0.0517968,0.3122523,9.69593913,0.002157,0.002356,0.00396
5.876180000021122,5.876180000021122,0.0,0.0,2.3279987363680013,0.0,0.0,0.0517968,0.3122523,9.69593913,0.002157,0.002356,0.00396
5.896167000057176,5.896167000057176,0.0,0.0,2.3280765782621238,0.0,0.0,0.08981055,0.27168795,9.7721334,0.004566,-0.004451,0.003886
5.936141000012867,5.936141000012867,0.0,0.0,2.328193816162246,0.0,0.0,0.06421626,0.31943322,9.71913978,0.004778,-0.001449,0.001745
5.9561280000489205,5.9561280000489205,0.0,0.0,2.3282708232933675,0.0,0.0,0.07380063,0.29668383,9.77347737,0.003924,-0.00168,0.003878
5.9561280000489205,5.9561280000489205,0.0,0.0,2.328274457605346,0.0,0.0,0.07380063,0.29668383,9.77347737,0.003924,-0.00168,0.003878
5.9561280000489205,5.9561280000489205,0.0,0.0,2.3282772935625706,0.0,0.0,0.07380063,0.29668383,9.77347737,0.003924,-0.00168,0.003878
5.976115000084974,5.976115000084974,0.0,0.0,2.3283715083936602,0.0,0.0,0.063765,0.28680516,9.78440571,0.000649,-0.001522,0.005103
6.016089000040665,6.016089000040665,0.0,0.0,2.3285138696843504,0.0,0.0,0.06452037,0.29893032,9.74219328,0.00382,-0.001649,0.003135
6.056062999996357,6.056062999996357,0.0,0.0,2.328681434757245,0.0,0.0,0.06122421,0.30386475,9.76240188,0.003882,-0.000675,0.004684
6.056062999996357,6.056062999996357,0.0,0.0,2.3286941424547383,0.0,0.0,0.06122421,0.30386475,9.76240188,0.003882,-0.000675,0.004684
6.056062999996357,6.056062999996357,0.0,0.0,2.328703943673915,0.0,0.0,0.06122421,0.30386475,9.76240188,0.003882,-0.000675,0.004684
6.056062999996357,6.056062999996357,0.0,0.0,2.3287117332301834,0.0,0.0,0.06122421,0.30386475,9.76240188,0.003882,-0.000675,0.004684
6.136011000024155,6.136011000024155,0.0,0.0,2.3290489089892166,0.0,0.0,0.06975891,0.28965006,9.74728467,0.002744,-0.000826,0.004483
6.155998000060208,6.155998000060208,0.0,0.0,2.329108942253117,0.0,0.0,0.06825798,0.27437589,9.78844743,0.003518,-0.000663,0.002858
6.155998000060208,6.155998000060208,0.0,0.0,2.3290913021475266,0.0,0.0,0.06825798,0.27437589,9.78844743,0.003518,-0.000663,0.002858
6.1959720000158995,6.1959720000158995,0.0,0.0,2.3292591379024064,0.0,0.0,0.06421626,0.30147111,9.73425699,0.001553,0.000824,0.00464
6.215959000051953,6.215959000051953,0.0,0.0,2.3293207703963574,0.0,0.0,0.08277678,0.28381311,9.77048532,0.004868,-0.001558,0.002968
6.235946000088006,6.235946000088006,0.0,0.0,2.3294011313243823,0.0,0.0,0.06122421,0.29818476,9.76972995,-7.5e-05,0.000723,0.004047
6.255933000007644,6.255933000007644,0.0,0.0,2.3294916220734674,0.0,0.0,0.0666099,0.29862621,9.75162069,0.002911,-0.00141,0.004618
6.275920000043698,6.275920000043698,0.0,0.0,2.32953823107702,0.0,0.0,0.07184844,0.27482715,9.76688505,0.003314,0.000721,0.002111
6.295907000079751,6.295907000079751,0.0,0.0,2.329632111413659,0.0,0.0,0.05897772,0.29563416,9.77797035,0.000497,-0.00056,0.004833
6.315893999999389,6.315893999999389,0.0,0.0,2.329666084739193,0.0,0.0,0.06466752,0.2977335,9.73920123,0.004033,0.000229,0.0014
6.335881000035442,6.335881000035442,0.0,0.0,2.3297393549903003,0.0,0.0,0.07364367,0.30206952,9.76628664,0.002254,-0.002406,0.003685
6.355868000071496,6.355868000071496,0.0,0.0,2.3298268043790227,0.0,0.0,0.05912487,0.27946728,9.75925287,0.002255,-0.00084,0.004492
6.375854999991134,6.375854999991134,0.0,0.0,2.3299037041904818,0.0,0.0,0.06795387,0.28965006,9.75716334,0.002546,-0.00153,0.003872
6.395842000027187,6.395842000027187,0.0,0.0,2.329967803633882,0.0,0.0,0.06047865,0.29069973,9.74099646,0.00104,-0.001682,0.003136
6.4158290000632405,6.4158290000632405,0.0,0.0,2.330066523637865,0.0,0.0,0.06900354,0.28485297,9.7635987,0.003589,-0.001963,0.005129
6.435815999982879,6.435815999982879,0.0,0.0,2.3301027204711584,0.0,0.0,0.07858791,0.29398608,9.75132639,0.000808,-0.00065,0.001518
6.475790000054985,6.475790000054985,0.0,0.0,2.3302710951952132,0.0,0.0,0.06751242,0.28650105,9.75491685,0.005431,-0.001814,0.004946
6.475790000054985,6.475790000054985,0.0,0.0,2.3302916602009844,0.0,0.0,0.06751242,0.28650105,9.75491685,0.005431,-0.001814,0.004946
6.515764000010677,6.515764000010677,0.0,0.0,2.330462946059675,0.0,0.0,0.06541308,0.29114118,9.74009394,0.00103,-0.000454,0.004732
6.515764000010677,6.515764000010677,0.0,0.0,2.3304748941490114,0.0,0.0,0.06541308,0.29114118,9.74009394,0.00103,-0.000454,0.004732
6.555738000082783,6.555738000082783,0.0,0.0,2.3306313723422036,0.0,0.0,0.06316659,0.29503575,9.7522191,-0.000423,-0.001165,0.0037
6.555738000082783,6.555738000082783,0.0,0.0,2.3306258487156732,0.0,0.0,0.06316659,0.29503575,9.7522191,-0.000423,-0.001165,0.0037
6.575725000002421,6.575725000002421,0.0,0.0,2.330708384668365,0.0,0.0,0.06706116,0.29653668,9.74607804,0.006516,-0.000847,0.004159
6.595712000038475,6.595712000038475,0.0,0.0,2.3307742352331964,0.0,0.0,0.06795387,0.28665801,9.75401433,0.001981,-0.002427,0.003137
6.635685999994166,6.635685999994166,0.0,0.0,2.330937431905701,0.0,0.0,0.07364367,0.3005784,9.75207195,0.004835,-0.003571,0.004288
6.635685999994166,6.635685999994166,0.0,0.0,2.330942692489824,0.0,0.0,0.07364367,0.3005784,9.75207195,0.004835,-0.003571,0.004288
6.675660000066273,6.675660000066273,0.0,0.0,2.3311181098392506,0.0,0.0,0.06706116,0.28665801,9.75431844,0.003277,-0.002253,0.004853
6.675660000066273,6.675660000066273,0.0,0.0,2.331129695970107,0.0,0.0,0.06706116,0.28665801,9.75431844,0.003277,-0.002253,0.004853
6.715634000021964,6.715634000021964,0.0,0.0,2.3313016914657947,0.0,0.0,0.06780672,0.29922462,9.74009394,0.000677,0.000397,0.004412
6.735621000058018,6.735621000058018,0.0,0.0,2.33139570462151,0.0,0.0,0.07095573,0.29039562,9.75312162,0.003214,-0.001189,0.004759
6.755608000094071,6.755608000094071,0.0,0.0,2.331478225848036,0.0,0.0,0.04879494,0.30147111,9.75656493,0.001397,-0.000603,0.004106
6.775595000013709,6.775595000013709,0.0,0.0,2.3315586699850908,0.0,0.0,0.07125003,0.29054277,9.73231461,0.001897,-0.000182,0.003992
6.795582000049762,6.795582000049762,0.0,0.0,2.331624092997446,0.0,0.0,0.08188407,0.29683098,9.75611367,0.00517,-0.002669,0.003148
6.815569000085816,6.815569000085816,0.0,0.0,2.3316819743406185,0.0,0.0,0.06765957,0.28755072,9.76913154,0.002227,0.000438,0.002738
6.835556000005454,6.835556000005454,0.0,0.0,2.331755306185231,0.0,0.0,0.07289811,0.29173959,9.76269618,0.002335,-0.002373,0.003636
6.855543000041507,6.855543000041507,0.0,0.0,2.331837866278997,0.0,0.0,0.06421626,0.29353482,9.75236625,0.004908,-0.001226,0.004165
6.8755300000775605,6.8755300000775605,0.0,0.0,2.33191155127437,0.0,0.0,0.06601149,0.2778192,9.75940983,0.000682,5.4e-05,0.003655
6.895516999997199,6.895516999997199,0.0,0.0,2.332008048896494,0.0,0.0,0.07648857,0.28965006,9.75656493,0.003616,-0.00204,0.00496
6.915504000033252,6.915504000033252,0.0,0.0,2.3320981475489244,0.0,0.0,0.06646275,0.30850488,9.76030254,0.002903,-0.000448,0.004576
6.935491000069305,6.935491000069305,0.0,0.0,2.332204356601528,0.0,0.0,0.07035732,0.27991854,9.75027672,0.001422,-0.002075,0.005487
6.955477999988943,6.955477999988943,0.0,0.0,2.332285481353823,0.0,0.0,0.07454619,0.30072555,9.75850731,0.004792,-0.000532,0.004027
6.955477999988943,6.955477999988943,0.0,0.0,2.332282076535364,0.0,0.0,0.07454619,0.30072555,9.75850731,0.004792,-0.000532,0.004027
6.99545200006105,6.99545200006105,0.0,0.0,2.3324569949175835,0.0,0.0,0.07125003,0.29219085,9.74877579,0.003029,-0.002494,0.004576
7.015439000097103,7.015439000097103,0.0,0.0,2.3325412260818696,0.0,0.0,0.0805302899999999,0.29084688,9.7522191,0.003998,-0.000762,0.004206
7.0354260000167415,7.0354260000167415,0.0,0.0,2.332642283573522,0.0,0.0,0.08457201,0.27542556,9.76149936,0.000771,-0.000804,0.005175
7.055413000052795,7.055413000052795,0.0,0.0,2.3326977547517664,0.0,0.0,0.06421626,0.29293641,9.7522191,0.002962,-0.001422,0.002535
7.075400000088848,7.075400000088848,0.0,0.0,2.3327477013169844,0.0,0.0,0.07184844,0.29833191,9.76135221,0.000963,-0.001358,0.002254
7.095387000008486,7.095387000008486,0.0,0.0,2.3328237212333107,0.0,0.0,0.06825798,0.29967588,9.74967831,0.003087,-0.003279,0.003791
7.11537400004454,7.11537400004454,0.0,0.0,2.332890512548051,0.0,0.0,0.08248248,0.29264211,9.74803023,0.004764,-0.001109,0.003262
7.135361000080593,7.135361000080593,0.0,0.0,2.332970668571,0.0,0.0,0.07753824,0.29338767,9.75596652,0.001645,0.00101,0.004043
7.155348000000231,7.155348000000231,0.0,0.0,2.3330583655872124,0.0,0.0,0.07199559,0.28994436,9.75566241,0.004214,-0.001521,0.004472
7.195322000072338,7.195322000072338,0.0,0.0,2.3332164333470127,0.0,0.0,0.07020036,0.2832147,9.74353725,0.002421,-0.000557,0.004
7.195322000072338,7.195322000072338,0.0,0.0,2.3332177072379414,0.0,0.0,0.07020036,0.2832147,9.74353725,0.002421,-0.000557,0.004
7.235296000028029,7.235296000028029,0.0,0.0,2.3333285895380307,0.0,0.0,0.07035732,0.30252078,9.74772612,0.00236,-0.000174,0.001469
7.235296000028029,7.235296000028029,0.0,0.0,2.3332938741293985,0.0,0.0,0.07035732,0.30252078,9.74772612,0.00236,-0.000174,0.001469
7.2752699999837205,7.2752699999837205,0.0,0.0,2.33344796038197,0.0,0.0,0.08412075,0.29398608,9.764942670000002,0.003932,-0.001627,0.004487
7.2752699999837205,7.2752699999837205,0.0,0.0,2.3334641883860954,0.0,0.0,0.08412075,0.29398608,9.764942670000002,0.003932,-0.001627,0.004487
7.315244000055827,7.315244000055827,0.0,0.0,2.333626986983642,0.0,0.0,0.08935929,0.27991854,9.75372003,0.005129,-0.001976,0.004635
7.315244000055827,7.315244000055827,0.0,0.0,2.333641019807539,0.0,0.0,0.08935929,0.27991854,9.75372003,0.005129,-0.001976,0.004635
7.315244000055827,7.315244000055827,0.0,0.0,2.3336519621034686,0.0,0.0,0.08935929,0.27991854,9.75372003,0.005129,-0.001976,0.004635
7.355218000011519,7.355218000011519,0.0,0.0,2.333846459672097,0.0,0.0,0.06825798,0.30237363,9.75341592,0.002514,0.000106,0.006227
7.395192000083625,7.395192000083625,0.0,0.0,2.33400358160333,0.0,0.0,0.0577809,0.292338,9.76809168,-0.000502,-0.00026,0.003557
7.395192000083625,7.395192000083625,0.0,0.0,2.3339942485814635,0.0,0.0,0.0577809,0.292338,9.76809168,-0.000502,-0.00026,0.003557
7.435166000039317,7.435166000039317,0.0,0.0,2.3341560054455277,0.0,0.0,0.06720831,0.28979721,9.76613949,0.003916,0.000322,0.004019
7.45515300007537,7.45515300007537,0.0,0.0,2.3342653127034385,0.0,0.0,0.05478885,0.28994436,9.752817510000002,0.002048,0.000513,0.005631
7.475139999995008,7.475139999995008,0.0,0.0,2.334343555281068,0.0,0.0,0.07095573,0.30581694,9.76300029,0.004353,-0.001038,0.003871
7.475139999995008,7.475139999995008,0.0,0.0,2.3343379952229,0.0,0.0,0.07095573,0.30581694,9.76300029,0.004353,-0.001038,0.003871
7.515114000067115,7.515114000067115,0.0,0.0,2.3345065875866045,0.0,0.0,0.05972328,0.29503575,9.76539393,0.001146,-0.001893,0.004262
7.535100999986753,7.535100999986753,0.0,0.0,2.334565596077958,0.0,0.0,0.07663572,0.29578131,9.75836016,0.003836,-0.000985,0.002789
7.555088000022806,7.555088000022806,0.0,0.0,2.334632162716181,0.0,0.0,0.08352234,0.3008727,9.76044969,0.001862,-0.000105,0.003241
7.57507500005886,7.57507500005886,0.0,0.0,2.3346816401708095,0.0,0.0,0.06556023,0.30476727,9.74188917,0.004837,-0.001179,0.002283
7.57507500005886,7.57507500005886,0.0,0.0,2.334659967644618,0.0,0.0,0.06556023,0.30476727,9.74188917,0.004837,-0.001179,0.002283
7.615049000014551,7.615049000014551,0.0,0.0,2.3348265091267066,0.0,0.0,0.07320222,0.29697813,9.75895857,0.000654,0.000775,0.005005
7.635036000050604,7.635036000050604,0.0,0.0,2.3349051915260173,0.0,0.0,0.06691401,0.30132396,9.752817510000002,0.00485,-0.000896,0.003968
7.655023000086658,7.655023000086658,0.0,0.0,2.3349982140120353,0.0,0.0,0.07439904,0.29039562,9.74803023,0.000809,-0.000367,0.004784
7.675010000006296,7.675010000006296,0.0,0.0,2.3350523394965492,0.0,0.0,0.07320222,0.29010132,9.76345155,0.002877,0.000276,0.002537
7.675010000006296,7.675010000006296,0.0,0.0,2.3350342791118255,0.0,0.0,0.07320222,0.29010132,9.76345155,0.002877,0.000276,0.002537
7.675010000006296,7.675010000006296,0.0,0.0,2.3350200350974406,0.0,0.0,0.07320222,0.29010132,9.76345155,0.002877,0.000276,0.002537
7.675010000006296,7.675010000006296,0.0,0.0,2.3350085133828644,0.0,0.0,0.07320222,0.29010132,9.76345155,0.002877,0.000276,0.002537
7.675010000006296,7.675010000006296,0.0,0.0,2.3349990016158166,0.0,0.0,0.07320222,0.29010132,9.76345155,0.002877,0.000276,0.002537
7.675010000006296,7.675010000006296,0.0,0.0,2.334991016042456,0.0,0.0,0.07320222,0.29010132,9.76345155,0.002877,0.000276,0.002537
7.675010000006296,7.675010000006296,0.0,0.0,2.334984216619274,0.0,0.0,0.07320222,0.29010132,9.76345155,0.002877,0.000276,0.002537
7.7149840000784025,7.7149840000784025,0.0,0.0,2.3351150020045974,0.0,0.0,0.08067744,0.27677934,9.7635987,0.001579,0.0007,0.003485
7.834906000061892,7.834906000061892,0.0,0.0,2.3354448276603383,0.0,0.0,0.08007903,0.29309337,9.77856876,0.003355,-6.8e-05,0.003666
7.85489299998153,7.85489299998153,0.0,0.0,2.3355195490308915,0.0,0.0,0.05897772,0.28725642,9.76135221,0.002618,3.7e-05,0.003789
7.874880000017583,7.874880000017583,0.0,0.0,2.3355944176726684,0.0,0.0,0.06706116,0.30221667,9.75132639,0.002618,3.7e-05,0.003789
7.874880000017583,7.874880000017583,0.0,0.0,2.3355999268399037,0.0,0.0,0.06706116,0.30221667,9.75132639,0.002618,3.7e-05,0.003789
7.91485400008969,7.91485400008969,0.0,0.0,2.335730273678897,0.0,0.0,0.0751446,0.29129814,9.7547697,0.001721,0.000217,0.002985
7.934841000009328,7.934841000009328,0.0,0.0,2.3358138840221425,0.0,0.0,0.07963758,0.28979721,9.76628664,0.003977,0.001274,0.004281
7.954829000052996,7.954829000052996,0.0,0.0,2.3359150631560244,0.0,0.0,0.09176274,0.29563416,9.77632227,0.003484,-0.001042,0.005258
7.974815000081435,7.974815000081435,0.0,0.0,2.336015091338269,0.0,0.0,0.05912487,0.2951829,9.74039805,0.001167,0.001769,0.005165
7.994802000001073,7.994802000001073,0.0,0.0,2.33609930335341,0.0,0.0,0.07858791,0.29907747,9.75521115,0.004038,-0.000659,0.004246
8.01479000004474,8.01479000004474,0.0,0.0,2.33617165223464,0.0,0.0,0.07364367,0.28365615,9.78365034,0.003182,0.00267,0.003568
8.034777000080794,8.034777000080794,0.0,0.0,2.3362555869145964,0.0,0.0,0.07529175,0.30266793,9.75925287,0.000929,-0.001929,0.004234
8.054764000000432,8.054764000000432,0.0,0.0,2.3363407672787186,0.0,0.0,0.06167547,0.30730806,9.74997261,0.004965,0.000606,0.0043
8.074751000036485,8.074751000036485,0.0,0.0,2.3363769001885135,0.0,0.0,0.06182262,0.28709946,9.7667379,0.001942,-9.4e-05,0.001499
8.114724999992177,8.114724999992177,0.0,0.0,2.3365512217945223,0.0,0.0,0.07125003,0.29293641,9.74683341,0.003016,0.000593,0.005066
8.13471200002823,8.13471200002823,0.0,0.0,2.3366466963097903,0.0,0.0,0.05373918,0.3034233,9.75611367,0.000824,0.002513,0.004812
8.154699000064284,8.154699000064284,0.0,0.0,2.3367253211061225,0.0,0.0,0.0754389,0.27617112,9.76164651,0.005162,-0.002624,0.003929
8.154699000064284,8.154699000064284,0.0,0.0,2.336723950305049,0.0,0.0,0.0754389,0.27617112,9.76164651,0.005162,-0.002624,0.003929
8.194673000019975,8.194673000019975,0.0,0.0,2.336915029108625,0.0,0.0,0.0808344,0.29952873,9.74668626,0.002843,-0.000275,0.00568
8.214660000056028,8.214660000056028,0.0,0.0,2.3369619370057393,0.0,0.0,0.06211692,0.29369178,9.75910572,0.004507,-0.00206,0.002184
8.234647000092082,8.234647000092082,0.0,0.0,2.337068007242081,0.0,0.0,0.07260381,0.28515708,9.75970413,0.001581,2.2e-05,0.005434
8.25463400001172,8.25463400001172,0.0,0.0,2.337141502244167,0.0,0.0,0.07454619,0.30311919,9.75011976,0.003755,-1.4e-05,0.003629
8.274621000047773,8.274621000047773,0.0,0.0,2.3371849526558064,0.0,0.0,0.07020036,0.29398608,9.75087513,0.003956,0.000199,0.00197
8.274621000047773,8.274621000047773,0.0,0.0,2.3371558231806002,0.0,0.0,0.07020036,0.29398608,9.75087513,0.003956,0.000199,0.00197
8.314595000003465,8.314595000003465,0.0,0.0,2.3373034188341686,0.0,0.0,0.08203122,0.29862621,9.75970413,0.004059,-0.00076,0.003828
8.334582000039518,8.334582000039518,0.0,0.0,2.337367675432362,0.0,0.0,0.07873506,0.28365615,9.748922940000002,0.00043,-0.001572,0.003165
8.354569000075571,8.354569000075571,0.0,0.0,2.337436850689741,0.0,0.0,0.06481467,0.29578131,9.7465293,0.003443,-0.001323,0.003449
8.354569000075571,8.354569000075571,0.0,0.0,2.3374354128039885,0.0,0.0,0.06481467,0.29578131,9.7465293,0.003443,-0.001323,0.003449
8.394543000031263,8.394543000031263,0.0,0.0,2.337599078115317,0.0,0.0,0.08442486,0.3065625,9.74743182,0.000578,2.9e-05,0.004813
8.414530000067316,8.414530000067316,0.0,0.0,2.337699350036667,0.0,0.0,0.07499745,0.30491442,9.74757897,0.003101,-0.001492,0.005198
8.434516999986954,8.434516999986954,0.0,0.0,2.337804982532127,0.0,0.0,0.07380063,0.2920437,9.77287896,0.00235,-0.001525,0.005477
8.454504000023007,8.454504000023007,0.0,0.0,2.33786934840375,0.0,0.0,0.06481467,0.29637972,9.7582032,0.000315,-7e-06,0.003094
8.454504000023007,8.454504000023007,0.0,0.0,2.3378556253457212,0.0,0.0,0.06481467,0.29637972,9.7582032,0.000315,-7e-06,0.003094
8.454504000023007,8.454504000023007,0.0,0.0,2.33784480139742,0.0,0.0,0.06481467,0.29637972,9.7582032,0.000315,-7e-06,0.003094
8.494478000095114,8.494478000095114,0.0,0.0,2.338003135146174,0.0,0.0,0.07349652,0.28515708,9.78754491,0.002086,0.000509,0.004217
8.534452000050806,8.534452000050806,0.0,0.0,2.338107962288346,0.0,0.0,0.05823216,0.28860039,9.76628664,0.004939,-0.000778,0.001103
8.554439000086859,8.554439000086859,0.0,0.0,2.3381713199555794,0.0,0.0,0.06990606,0.29024847,9.77392863,0.000972,0.001404,0.003135
8.574426000006497,8.574426000006497,0.0,0.0,2.338256385984419,0.0,0.0,0.07349652,0.28650105,9.75162069,0.005327,-0.000669,0.004362
8.59441300004255,8.59441300004255,0.0,0.0,2.3383151288476824,0.0,0.0,0.07619427,0.30625839,9.74234043,0.003916,0.001846,0.002862
8.614400000078604,8.614400000078604,0.0,0.0,2.3383808809595283,0.0,0.0,0.08517042,0.3097017,9.76688505,0.001145,0.001546,0.003269
8.614400000078604,8.614400000078604,0.0,0.0,2.3383784581985854,0.0,0.0,0.08517042,0.3097017,9.76688505,0.001145,0.001546,0.003269
8.654374000034295,8.654374000034295,0.0,0.0,2.338498572439655,0.0,0.0,0.06316659,0.28740357,9.73036242,0.001643,0.000329,0.002492
8.654374000034295,8.654374000034295,0.0,0.0,2.3384864072592144,0.0,0.0,0.06316659,0.28740357,9.73036242,0.001643,0.000329,0.002492
8.694347999989986,8.694347999989986,0.0,0.0,2.3386325773657948,0.0,0.0,0.07708698,0.29159244,9.71899263,0.003308,0.000942,0.004265
8.694347999989986,8.694347999989986,0.0,0.0,2.33864683521875,0.0,0.0,0.07708698,0.29159244,9.71899263,0.003308,0.000942,0.004265
8.734322000062093,8.734322000062093,0.0,0.0,2.338782300200764,0.0,0.0,0.07739109,0.30761217,9.7203366,0.006214,-0.000425,0.003312
8.734322000062093,8.734322000062093,0.0,0.0,2.338780514697378,0.0,0.0,0.07739109,0.30761217,9.7203366,0.006214,-0.000425,0.003312
8.774296000017785,8.774296000017785,0.0,0.0,2.3389426517777565,0.0,0.0,0.07648857,0.2977335,9.75566241,0.003596,0.000699,0.004894
8.794283000053838,8.794283000053838,0.0,0.0,2.339020438539288,0.0,0.0,0.05583852,0.30027429,9.73021527,0.004973,0.001329,0.003933
8.814270000089891,8.814270000089891,0.0,0.0,2.3391081706157646,0.0,0.0,0.07244685,0.30101985,9.76000824,0.002059,0.002356,0.004499
8.854244000045583,8.854244000045583,0.0,0.0,2.33926734797374,0.0,0.0,0.06900354,0.28965006,9.75656493,0.001592,0.000584,0.004199
8.854244000045583,8.854244000045583,0.0,0.0,2.339273391173407,0.0,0.0,0.06900354,0.28965006,9.75656493,0.001592,0.000584,0.004199
8.874231000081636,8.874231000081636,0.0,0.0,2.339345969974496,0.0,0.0,0.08217837,0.30670965,9.77646942,0.003045,0.000289,0.003585
8.914205000037327,8.914205000037327,0.0,0.0,2.339501168260493,0.0,0.0,0.07394778,0.30132396,9.76539393,0.000837,0.000426,0.003921
8.93419200007338,8.93419200007338,0.0,0.0,2.3395887854410944,0.0,0.0,0.08547453,0.28874754,9.76718916,0.004705,0.00114,0.004419
8.954178999993019,8.954178999993019,0.0,0.0,2.3396396169405813,0.0,0.0,0.08457201,0.29578131,9.77302611,0.004509,-0.000162,0.002436
8.954178999993019,8.954178999993019,0.0,0.0,2.3396185628023822,0.0,0.0,0.08457201,0.29578131,9.77302611,0.004509,-0.000162,0.002436
8.994153000065126,8.994153000065126,0.0,0.0,2.3397710634138367,0.0,0.0,0.0754389,0.2803698,9.75970413,0.004495,-0.000925,0.004107
9.014139999984764,9.014139999984764,0.0,0.0,2.339863378698576,0.0,0.0,0.06571719,0.29338767,9.76419711,0.00274,5.1e-05,0.004719
9.034127000020817,9.034127000020817,0.0,0.0,2.3399155161399428,0.0,0.0,0.07724394,0.30357045,9.73860282,0.002402,-0.001457,0.00248
9.05411400005687,9.05411400005687,0.0,0.0,2.3399719367014082,0.0,0.0,0.07634142,0.29967588,9.77347737,0.00443,-0.001161,0.002733
9.074101000092924,9.074101000092924,0.0,0.0,2.340042471113069,0.0,0.0,0.06646275,0.28740357,9.77302611,0.000559,0.000484,0.003533
9.094088000012562,9.094088000012562,0.0,0.0,2.3401300965230227,0.0,0.0,0.06900354,0.3122523,9.75671208,0.006038,-0.000636,0.004492
9.114075000048615,9.114075000048615,0.0,0.0,2.340200152085367,0.0,0.0,0.06990606,0.30431601,9.7610481,0.00316,0.001802,0.003489
9.134062000084668,9.134062000084668,0.0,0.0,2.340258166585947,0.0,0.0,0.07574301,0.30357045,9.77587101,0.001477,0.000697,0.002811
9.154049000004306,9.154049000004306,0.0,0.0,2.340314043523902,0.0,0.0,0.07035732,0.29398608,9.77257485,0.004987,-0.001377,0.002702
9.17403600004036,9.17403600004036,0.0,0.0,2.3403766781066224,0.0,0.0,0.06496182,0.30416886,9.77496849,0.003211,0.003374,0.003098
9.194023000076413,9.194023000076413,0.0,0.0,2.3404458931495826,0.0,0.0,0.07739109,0.29668383,9.76943565,0.003643,0.000299,0.003477
9.214009999996051,9.214009999996051,0.0,0.0,2.3405388464514303,0.0,0.0,0.06107706,0.30506157,9.79607961,0.005151,-9.7e-05,0.004827
9.233997000032105,9.233997000032105,0.0,0.0,2.3406127886052293,0.0,0.0,0.08756406,0.29383893,9.77856876,0.000541,0.000736,0.003718
9.253984000068158,9.253984000068158,0.0,0.0,2.340696897063337,0.0,0.0,0.08592579,0.29878317,9.76224492,0.004327,-0.000851,0.004296
9.273970999987796,9.273970999987796,0.0,0.0,2.3407813122584313,0.0,0.0,0.08157996,0.29353482,9.77976558,0.002473,0.000227,0.004301
9.29395800002385,9.29395800002385,0.0,0.0,2.340903067722099,0.0,0.0,0.08308089,0.2980278,9.764491410000002,0.002079,-0.000758,0.006427
9.313945000059903,9.313945000059903,0.0,0.0,2.3409805806926958,0.0,0.0,0.0722997,0.29563416,9.7667379,0.004401,-0.00156,0.003844
9.333932000095956,9.333932000095956,0.0,0.0,2.34108234023509,0.0,0.0,0.07139718,0.29967588,9.76913154,0.001199,0.001659,0.005239
9.353919000015594,9.353919000015594,0.0,0.0,2.34115168810672,0.0,0.0,0.08038314,0.31165389,9.75566241,0.002797,-0.001346,0.003358
9.373906000051647,9.373906000051647,0.0,0.0,2.3411926137097634,0.0,0.0,0.07110288,0.28680516,9.77257485,0.002715,-0.002085,0.001743
9.3938930000877,9.3938930000877,0.0,0.0,2.3412861602047474,0.0,0.0,0.06840513,0.29982303,9.77976558,0.000564,0.000209,0.00481
9.413880000007339,9.413880000007339,0.0,0.0,2.34135405557633,0.0,0.0,0.07648857,0.30072555,9.76030254,0.004016,-0.001201,0.003317
9.453854000079446,9.453854000079446,0.0,0.0,2.3414873069457816,0.0,0.0,0.07559586,0.28560834,9.77347737,0.00182,-0.000671,0.002778
9.453854000079446,9.453854000079446,0.0,0.0,2.341471802118207,0.0,0.0,0.07559586,0.28560834,9.77347737,0.00182,-0.000671,0.002778
9.473840999999084,9.473840999999084,0.0,0.0,2.341555440365754,0.0,0.0,0.06526593,0.29668383,9.75910572,0.004677,-0.001488,0.004294
9.51381500007119,9.51381500007119,0.0,0.0,2.341732716501836,0.0,0.0,0.08007903,0.30117681,9.77931432,0.003728,-0.002318,0.005287
9.533801999990828,9.533801999990828,0.0,0.0,2.3418277267297096,0.0,0.0,0.07559586,0.29369178,9.77856876,0.002739,-0.000817,0.004812
9.553789000026882,9.553789000026882,0.0,0.0,2.3419070179089996,0.0,0.0,0.06990606,0.29129814,9.7607538,0.002578,-5.6e-05,0.003962
9.553789000026882,9.553789000026882,0.0,0.0,2.3419060265322678,0.0,0.0,0.06990606,0.29129814,9.7607538,0.002578,-5.6e-05,0.003962
9.593762999982573,9.593762999982573,0.0,0.0,2.342059179121174,0.0,0.0,0.0666099,0.292338,9.76838598,0.001028,-0.000179,0.003611
9.613750000018626,9.613750000018626,0.0,0.0,2.342123391311411,0.0,0.0,0.08007903,0.29414304,9.77333022,0.004092,-0.000545,0.003135
9.63373700005468,9.63373700005468,0.0,0.0,2.3422026749632794,0.0,0.0,0.0782838,0.30730806,9.77287896,0.0039,-0.000313,0.00398
9.653724000090733,9.653724000090733,0.0,0.0,2.342281501176906,0.0,0.0,0.08592579,0.29578131,9.7926363,0.002001,0.000692,0.003953
9.673711000010371,9.673711000010371,0.0,0.0,2.342404845449553,0.0,0.0,0.08517042,0.29683098,9.77392863,0.004215,-0.000806,0.006444
9.673711000010371,9.673711000010371,0.0,0.0,2.342439866853921,0.0,0.0,0.08517042,0.29683098,9.77392863,0.004215,-0.000806,0.006444
9.713685000082478,9.713685000082478,0.0,0.0,2.3426126641287226,0.0,0.0,0.07005321,0.283509,9.76793472,0.001341,-0.00024,0.00412
9.733672000002116,9.733672000002116,0.0,0.0,2.3426646140589726,0.0,0.0,0.07020036,0.29443734,9.77976558,0.003351,-0.002345,0.002356
9.75365900003817,9.75365900003817,0.0,0.0,2.3427421577566907,0.0,0.0,0.07394778,0.32407335,9.752670360000002,0.003178,0.00076,0.003843
9.773646000074223,9.773646000074223,0.0,0.0,2.342821914513129,0.0,0.0,0.08067744,0.2894931,9.79937577,0.004024,-0.002351,0.003974
9.79363299999386,9.79363299999386,0.0,0.0,2.3429125009479836,0.0,0.0,0.07079877,0.30416886,9.77407578,0.001308,0.000448,0.004593
9.813620000029914,9.813620000029914,0.0,0.0,2.342995978303148,0.0,0.0,0.06392196,0.30536568,9.75925287,0.003359,0.00103,0.004179
9.833607000065967,9.833607000065967,0.0,0.0,2.3430923007530513,0.0,0.0,0.07079877,0.27482715,9.80041563,0.003765,-0.001153,0.004912
9.853593999985605,9.853593999985605,0.0,0.0,2.3431470926199633,0.0,0.0,0.0666099,0.30386475,9.76988691,0.000998,-0.000475,0.002525
9.873581000021659,9.873581000021659,0.0,0.0,2.343232817734859,0.0,0.0,0.08172711,0.3008727,9.75836016,0.002719,0.000705,0.004326
9.893568000057712,9.893568000057712,0.0,0.0,2.343308071067158,0.0,0.0,0.07574301,0.28965006,9.77347737,0.00406,-0.001831,0.003721
9.913555000093766,9.913555000093766,0.0,0.0,2.343360143044661,0.0,0.0,0.07199559,0.28785483,9.77781339,0.001472,0.000869,0.002399
9.933542000013404,9.933542000013404,0.0,0.0,2.343464681881123,0.0,0.0,0.07409493,0.29503575,9.75895857,0.004434,0.000252,0.005438
9.953529000049457,9.953529000049457,0.0,0.0,2.3435347242054636,0.0,0.0,0.07184844,0.29293641,9.76809168,0.002688,1.1e-05,0.003428
9.97351600008551,9.97351600008551,0.0,0.0,2.3436212565458483,0.0,0.0,0.08517042,0.29173959,9.77901021,0.002385,0.000904,0.004386
9.993503000005148,9.993503000005148,0.0,0.0,2.343715734512892,0.0,0.0,0.08831943,0.28905165,9.77856876,0.004548,-0.002919,0.004834
10.013491000048816,10.013491000048816,0.0,0.0,2.3437845109638227,0.0,0.0,0.0778423499999999,0.30311919,9.77347737,0.002524,0.000907,0.003341
10.053465000004508,10.053465000004508,0.0,0.0,2.3439500816455388,0.0,0.0,0.05149269,0.29159244,9.780511140000002,0.003429,-0.000524,0.004281
10.073452000040561,10.073452000040561,0.0,0.0,2.3439941538382367,0.0,0.0,0.06765957,0.30625839,9.7695828,0.001605,0.001064,0.002119
10.073452000040561,10.073452000040561,0.0,0.0,2.343966478499455,0.0,0.0,0.06765957,0.30625839,9.7695828,0.001605,0.001064,0.002119
10.113425999996252,10.113425999996252,0.0,0.0,2.34412943824696,0.0,0.0,0.07484049,0.29458449,9.79203789,0.00254,-0.002203,0.004659
10.113425999996252,10.113425999996252,0.0,0.0,2.344144721296445,0.0,0.0,0.07484049,0.29458449,9.79203789,0.00254,-0.002203,0.004659
10.153400000068359,10.153400000068359,0.0,0.0,2.3443134229793197,0.0,0.0,0.06720831,0.29338767,9.75356307,0.004434,0.0004,0.004673
10.153400000068359,10.153400000068359,0.0,0.0,2.3443249071933314,0.0,0.0,0.06720831,0.29338767,9.75356307,0.004434,0.0004,0.004673
10.19337400002405,10.19337400002405,0.0,0.0,2.344472383689337,0.0,0.0,0.06990606,0.30955455,9.77482134,0.00393,-0.002198,0.003256
10.19337400002405,10.19337400002405,0.0,0.0,2.3444616743476674,0.0,0.0,0.06990606,0.30955455,9.77482134,0.00393,-0.002198,0.003256
10.233348000096157,10.233348000096157,0.0,0.0,2.3446190224871604,0.0,0.0,0.08696565,0.29818476,9.79218504,0.000566,-0.000618,0.004043
10.253335000015795,10.253335000015795,0.0,0.0,2.344707139385136,0.0,0.0,0.08157996,0.30117681,9.77706783,0.00677,-0.001623,0.004475
10.273322000051849,10.273322000051849,0.0,0.0,2.3447813242253606,0.0,0.0,0.07708698,0.29593827,9.79084107,0.002583,0.000953,0.00368
10.293309000087902,10.293309000087902,0.0,0.0,2.34488804861739,0.0,0.0,0.07903917,0.29278926,9.77108373,0.002699,0.000483,0.005524
10.31329600000754,10.31329600000754,0.0,0.0,2.344993332060535,0.0,0.0,0.08098155,0.30237363,9.76508982,0.002298,-0.001394,0.005417
10.333283000043593,10.333283000043593,0.0,0.0,2.3450822783445204,0.0,0.0,0.06586434,0.29338767,9.77572386,0.00169,-0.001337,0.004469
10.373256999999285,10.373256999999285,0.0,0.0,2.3452895809026852,0.0,0.0,0.06930765,0.29069973,9.7812567,0.003502,-0.000863,0.006077
10.393244000035338,10.393244000035338,0.0,0.0,2.345382227604995,0.0,0.0,0.06840513,0.30147111,9.76000824,0.00072,0.000467,0.004637
10.393244000035338,10.393244000035338,0.0,0.0,2.345382905589309,0.0,0.0,0.06840513,0.30147111,9.76000824,0.00072,0.000467,0.004637
10.43321799999103,10.43321799999103,0.0,0.0,2.34557532988074,0.0,0.0,0.05972328,0.31239945,9.77152518,0.002401,0.000998,0.005053
10.453205000027083,10.453205000027083,0.0,0.0,2.3456541370649076,0.0,0.0,0.07559586,0.28620675,9.77437008,0.003515,-0.001537,0.003889
10.473192000063136,10.473192000063136,0.0,0.0,2.3457069243620268,0.0,0.0,0.07215255,0.29788065,9.77677353,0.004681,-0.002124,0.002481
10.493178999982774,10.493178999982774,0.0,0.0,2.345763835308783,0.0,0.0,0.05852646,0.29054277,9.75776175,0.002463,-0.00016,0.002717
10.513166000018828,10.513166000018828,0.0,0.0,2.3458584629655395,0.0,0.0,0.08277678,0.29084688,9.79892451,0.004138,-0.002388,0.004801
10.533153000054881,10.533153000054881,0.0,0.0,2.3459386974424348,0.0,0.0,0.07574301,0.2863539,9.77737194,0.002441,-0.000615,0.003999
10.553140000090934,10.553140000090934,0.0,0.0,2.3460463811976133,0.0,0.0,0.0865242,0.31449879,9.76164651,0.003383,-0.000367,0.005526
10.573127000010572,10.573127000010572,0.0,0.0,2.3461173277214877,0.0,0.0,0.06960195,0.28994436,9.78829047,0.00409,-0.001058,0.00346
10.593114000046626,10.593114000046626,0.0,0.0,2.3462103562225343,0.0,0.0,0.07125003,0.28680516,9.780815250000002,0.001146,0.001279,0.004708
10.633088000002317,10.633088000002317,0.0,0.0,2.346365674519081,0.0,0.0,0.07079877,0.29533986,9.765246780000002,0.004402,-0.001743,0.003486
10.633088000002317,10.633088000002317,0.0,0.0,2.3463540959942177,0.0,0.0,0.07079877,0.29533986,9.765246780000002,0.004402,-0.001743,0.003486
10.673062000074424,10.673062000074424,0.0,0.0,2.3465215657193994,0.0,0.0,0.07184844,0.29159244,9.77392863,0.003136,-0.000591,0.004317
10.693048999994062,10.693048999994062,0.0,0.0,2.3465751169371476,0.0,0.0,0.07380063,0.29278926,9.75640797,0.002596,0.000545,0.002597
10.713036000030115,10.713036000030115,0.0,0.0,2.346675655255418,0.0,0.0,0.07813665,0.29952873,9.78560253,0.003454,-0.000878,0.005108
10.733023000066169,10.733023000066169,0.0,0.0,2.3467666307819606,0.0,0.0,0.07275096,0.29189655,9.79817895,0.004075,0.000328,0.00459
10.753009999985807,10.753009999985807,0.0,0.0,2.346869429707189,0.0,0.0,0.08292393,0.30266793,9.76718916,0.002166,0.001979,0.005231
10.753009999985807,10.753009999985807,0.0,0.0,2.3468847667315362,0.0,0.0,0.08292393,0.30266793,9.76718916,0.002166,0.001979,0.005231
10.792984000057913,10.792984000057913,0.0,0.0,2.347029933781144,0.0,0.0,0.08382645,0.30161826,9.77886306,0.004737,0.001434,0.002705
10.812971000093967,10.812971000093967,0.0,0.0,2.347114941897475,0.0,0.0,0.07693983,0.29878317,9.75446559,0.002867,-0.000431,0.004263
10.832958000013605,10.832958000013605,0.0,0.0,2.347185831430183,0.0,0.0,0.07005321,0.3122523,9.76628664,0.005557,0.001337,0.003474
10.852945000049658,10.852945000049658,0.0,0.0,2.347244409602057,0.0,0.0,0.06706116,0.30027429,9.77496849,0.002132,-0.000154,0.002793
10.872932000085711,10.872932000085711,0.0,0.0,2.3473306171605444,0.0,0.0,0.0805302899999999,0.29578131,9.75416148,0.003839,-0.001471,0.004363
10.89291900000535,10.89291900000535,0.0,0.0,2.347414364742452,0.0,0.0,0.08471916,0.29713509,9.780511140000002,0.004336,-0.00072,0.004218
10.912906000041403,10.912906000041403,0.0,0.0,2.3474933295606144,0.0,0.0,0.07035732,0.30446316,9.78904584,0.000511,-0.000658,0.003944
10.952879999997094,10.952879999997094,0.0,0.0,2.347655209524385,0.0,0.0,0.08188407,0.29369178,9.80326053,0.003187,7.4e-05,0.004106
10.952879999997094,10.952879999997094,0.0,0.0,2.3476568220354537,0.0,0.0,0.08188407,0.29369178,9.80326053,0.003187,7.4e-05,0.004106
10.992854000069201,10.992854000069201,0.0,0.0,2.347792659717401,0.0,0.0,0.07739109,0.31030011,9.78859458,0.003739,0.000592,0.002709
11.012840999988839,11.012840999988839,0.0,0.0,2.347908235462283,0.0,0.0,0.08007903,0.29249496,9.79892451,0.001069,6.3e-05,0.005904
11.032829000032507,11.032829000032507,0.0,0.0,2.3479944884593102,0.0,0.0,0.0782838,0.30266793,9.780658290000002,0.003025,0.001017,0.004329
11.05281600006856,11.05281600006856,0.0,0.0,2.3480649713357327,0.0,0.0,0.07260381,0.30027429,9.7724277,0.003225,-0.000297,0.003475
11.072802999988198,11.072802999988198,0.0,0.0,2.348149017204282,0.0,0.0,0.07724394,0.28725642,9.79727643,0.000304,9.8e-05,0.004218
11.092790000024252,11.092790000024252,0.0,0.0,2.348229111720327,0.0,0.0,0.07693983,0.29982303,9.77228055,0.005827,-0.000403,0.004
11.112777000060305,11.112777000060305,0.0,0.0,2.34828316316187,0.0,0.0,0.07903917,0.3005784,9.78560253,0.002546,-0.00144,0.002562
11.132764000096358,11.132764000096358,0.0,0.0,2.3483533983535096,0.0,0.0,0.07320222,0.28845324,9.7954812,0.003022,0.000712,0.003475
11.152751000015996,11.152751000015996,0.0,0.0,2.348425278591085,0.0,0.0,0.06271533,0.30072555,9.77901021,0.004178,-0.001257,0.003571
11.17273800005205,11.17273800005205,0.0,0.0,2.3485058720557523,0.0,0.0,0.07289811,0.28800198,9.80236782,0.001002,0.001425,0.004062
11.17273800005205,11.17273800005205,0.0,0.0,2.3485096726075056,0.0,0.0,0.07289811,0.28800198,9.80236782,0.001002,0.001425,0.004062
11.212712000007741,11.212712000007741,0.0,0.0,2.3486684286043564,0.0,0.0,0.07693983,0.29847906,9.77601816,0.002556,-0.00271,0.004126
11.232699000043795,11.232699000043795,0.0,0.0,2.348771827939512,0.0,0.0,0.07020036,0.292338,9.79967007,0.001037,-0.002618,0.005345
11.272672999999486,11.272672999999486,0.0,0.0,2.348962972167982,0.0,0.0,0.08188407,0.30221667,9.765246780000002,0.003586,0.001457,0.005508
11.272672999999486,11.272672999999486,0.0,0.0,2.3489836623739073,0.0,0.0,0.08188407,0.30221667,9.765246780000002,0.003586,0.001457,0.005508
11.312647000071593,11.312647000071593,0.0,0.0,2.3491361150069077,0.0,0.0,0.08442486,0.28785483,9.79129233,0.005107,-0.003099,0.00311
11.312647000071593,11.312647000071593,0.0,0.0,2.349117054822935,0.0,0.0,0.08442486,0.28785483,9.79129233,0.005107,-0.003099,0.00311
11.352621000027284,11.352621000027284,0.0,0.0,2.3493073658506374,0.0,0.0,0.07574301,0.28905165,9.76838598,0.003935,-0.00158,0.005508
11.372608000063337,11.372608000063337,0.0,0.0,2.349370736041455,0.0,0.0,0.06601149,0.27932013,9.79129233,0.002702,5e-06,0.003074
11.392594999982975,11.392594999982975,0.0,0.0,2.3494447330726533,0.0,0.0,0.06691401,0.30670965,9.780962400000002,0.003272,-0.000988,0.003662
11.412582000019029,11.412582000019029,0.0,0.0,2.3495350859278243,0.0,0.0,0.07334937,0.29668383,9.77302611,0.00528,-0.001051,0.004565
11.432569000055082,11.432569000055082,0.0,0.0,2.3496132571548847,0.0,0.0,0.0663156,0.30386475,9.75566241,0.000891,-6e-05,0.003887
11.452556000091136,11.452556000091136,0.0,0.0,2.349696852456507,0.0,0.0,0.08248248,0.29757654,9.74848149,0.004448,-0.002433,0.004191
11.472543000010774,11.472543000010774,0.0,0.0,2.3497699679640043,0.0,0.0,0.06990606,0.29398608,9.78709365,0.004232,-0.001175,0.003605
11.492530000046827,11.492530000046827,0.0,0.0,2.3498575856310966,0.0,0.0,0.07469334,0.29069973,9.77152518,0.001717,0.000208,0.004424
11.51251700008288,11.51251700008288,0.0,0.0,2.349932292467063,0.0,0.0,0.07380063,0.3167452799999999,9.76000824,0.004726,-0.00215,0.003693
11.532504000002518,11.532504000002518,0.0,0.0,2.3500351918437676,0.0,0.0,0.07304526,0.29114118,9.77452704,0.002817,-0.000434,0.005289
11.552491000038572,11.552491000038572,0.0,0.0,2.350102169592674,0.0,0.0,0.07079877,0.3065625,9.77692068,0.001614,-0.001169,0.003239
11.592464999994263,11.592464999994263,0.0,0.0,2.3502699324622114,0.0,0.0,0.08846658,0.30551283,9.76508982,0.002328,0.000636,0.004317
11.592464999994263,11.592464999994263,0.0,0.0,2.3502733678992165,0.0,0.0,0.08846658,0.30551283,9.76508982,0.002328,0.000636,0.004317
11.63243900006637,11.63243900006637,0.0,0.0,2.3504243338114943,0.0,0.0,0.07005321,0.30252078,9.780658290000002,0.003788,-0.000175,0.003374
11.652425999986008,11.652425999986008,0.0,0.0,2.3505314342269763,0.0,0.0,0.07873506,0.29593827,9.7781175,0.000365,0.000214,0.005442
11.672414000029676,11.672414000029676,0.0,0.0,2.3505998921787405,0.0,0.0,0.06900354,0.30221667,9.77317326,0.004658,-4.8e-05,0.003366
11.692401000065729,11.692401000065729,0.0,0.0,2.350668448299569,0.0,0.0,0.06511878,0.29623257,9.7635987,0.002879,0.001706,0.003374
11.712387999985367,11.712387999985367,0.0,0.0,2.350769102699058,0.0,0.0,0.0779895,0.30386475,9.80236782,0.00201,-0.001427,0.005129
11.73237500002142,11.73237500002142,0.0,0.0,2.3508438403649254,0.0,0.0,0.06825798,0.30266793,9.75836016,0.004074,-0.000425,0.003698
11.752362000057474,11.752362000057474,0.0,0.0,2.350927540337005,0.0,0.0,0.07155414,0.29548701,9.7664436,0.002761,0.000866,0.004197
11.772349000093527,11.772349000093527,0.0,0.0,2.351002633736009,0.0,0.0,0.05837931,0.29847906,9.78889869,0.003118,-0.002146,0.003718
11.792336000013165,11.792336000013165,0.0,0.0,2.351080733375065,0.0,0.0,0.06242103,0.29862621,9.78395445,0.004607,0.000459,0.00389
11.812323000049219,11.812323000049219,0.0,0.0,2.351156798097688,0.0,0.0,0.07155414,0.30282489,9.77826465,0.003256,-0.002392,0.003778
11.832310000085272,11.832310000085272,0.0,0.0,2.351235577985408,0.0,0.0,0.08786817,0.30326634,9.78455286,0.004698,-0.000783,0.003934
11.85229700000491,11.85229700000491,0.0,0.0,2.351321397447215,0.0,0.0,0.06481467,0.29907747,9.77377167,0.002966,-0.000483,0.004332
11.872284000040963,11.872284000040963,0.0,0.0,2.3514305542238016,0.0,0.0,0.07634142,0.28934595,9.78170796,0.003238,0.000714,0.005647
11.912257999996655,11.912257999996655,0.0,0.0,2.351574698414849,0.0,0.0,0.08891784,0.27841761,9.80191656,0.002456,-0.00129,0.002935
11.912257999996655,11.912257999996655,0.0,0.0,2.3515555210053867,0.0,0.0,0.08891784,0.27841761,9.80191656,0.002456,-0.00129,0.002935
11.952232000068761,11.952232000068761,0.0,0.0,2.3517075481805794,0.0,0.0,0.07603731,0.29398608,9.78320889,0.003771,0.00105,0.003681
11.952232000068761,11.952232000068761,0.0,0.0,2.3517042349085058,0.0,0.0,0.07603731,0.29398608,9.78320889,0.003771,0.00105,0.003681
11.992206000024453,11.992206000024453,0.0,0.0,2.351832886177414,0.0,0.0,0.07184844,0.28441152,9.79038981,0.003772,-0.001279,0.002484
11.992206000024453,11.992206000024453,0.0,0.0,2.3518137633849348,0.0,0.0,0.07184844,0.28441152,9.79038981,0.003772,-0.001279,0.002484
12.03218000009656,12.03218000009656,0.0,0.0,2.3519746153321677,0.0,0.0,0.07349652,0.29173959,9.7957755,0.003056,-0.002579,0.004632
12.052167000016198,12.052167000016198,0.0,0.0,2.352056293883802,0.0,0.0,0.07199559,0.29249496,9.78005988,0.002819,-0.000634,0.004129
12.072154000052251,12.072154000052251,0.0,0.0,2.3521325696946604,0.0,0.0,0.07933347,0.30625839,9.75940983,0.003004,0.000446,0.003825
12.072154000052251,12.072154000052251,0.0,0.0,2.3521337979285812,0.0,0.0,0.07933347,0.30625839,9.75940983,0.003004,0.000446,0.003825
12.112128000007942,12.112128000007942,0.0,0.0,2.3522859214333867,0.0,0.0,0.0666099,0.29878317,9.7784118,0.003687,-0.00043,0.003866
12.132115000043996,12.132115000043996,0.0,0.0,2.3523814872679534,0.0,0.0,0.08188407,0.30596409,9.77392863,0.003331,0.00047,0.004907
12.152102000080049,12.152102000080049,0.0,0.0,2.3524607565760487,0.0,0.0,0.07739109,0.30357045,9.77751909,0.005059,-0.000516,0.003971
12.172088999999687,12.172088999999687,0.0,0.0,2.352531477048549,0.0,0.0,0.07380063,0.3005784,9.76688505,0.000941,0.000156,0.003487
12.192077000043355,12.192077000043355,0.0,0.0,2.352623151220741,0.0,0.0,0.08232552,0.29653668,9.76718916,0.00391,-0.001323,0.004681
12.212064000079408,12.212064000079408,0.0,0.0,2.3527170229336622,0.0,0.0,0.05763375,0.28889469,9.7957755,0.003168,-0.001185,0.004793
12.232050999999046,12.232050999999046,0.0,0.0,2.3527811672171097,0.0,0.0,0.0722997,0.28590264,9.76943565,0.001209,0.00092,0.003089
12.2520380000351,12.2520380000351,0.0,0.0,2.352867978944749,0.0,0.0,0.07559586,0.30042144,9.7635987,0.004649,-0.000323,0.004397
12.272025000071153,12.272025000071153,0.0,0.0,2.352927715004955,0.0,0.0,0.06990606,0.29069973,9.78455286,0.00396,-0.000536,0.002845
12.312000000034459,12.312000000034459,0.0,0.0,2.353085249498492,0.0,0.0,0.07708698,0.30880899,9.75805605,0.004065,-0.001787,0.004026
12.312000000034459,12.312000000034459,0.0,0.0,2.353087653183824,0.0,0.0,0.07708698,0.30880899,9.75805605,0.004065,-0.001787,0.004026
12.35197399999015,12.35197399999015,0.0,0.0,2.3532800747909217,0.0,0.0,0.07708698,0.28396026,9.78290478,0.003998,-0.00212,0.005828
12.371961000026204,12.371961000026204,0.0,0.0,2.353336564665998,0.0,0.0,0.063765,0.28979721,9.77018121,0.002883,-0.000896,0.002735
12.391948000062257,12.391948000062257,0.0,0.0,2.3533999466272526,0.0,0.0,0.07155414,0.29637972,9.77856876,0.003854,-0.000703,0.003109
12.411934999981895,12.411934999981895,0.0,0.0,2.3534755993718175,0.0,0.0,0.07155414,0.30237363,9.78424875,0.00493,-0.001354,0.003779
12.431922000017948,12.431922000017948,0.0,0.0,2.353579405459209,0.0,0.0,0.06556023,0.29952873,9.79098822,0.001511,0.001479,0.00532
12.451909000054002,12.451909000054002,0.0,0.0,2.3536542610001048,0.0,0.0,0.06975891,0.29474145,9.76584519,0.004205,-0.001608,0.003715
12.471896000090055,12.471896000090055,0.0,0.0,2.3537507521310808,0.0,0.0,0.08277678,0.30252078,9.768533130000002,0.004725,-3.4e-05,0.004916
12.511870000045747,12.511870000045747,0.0,0.0,2.353931488895487,0.0,0.0,0.06526593,0.31210515,9.7667379,0.004994,-0.001101,0.004921
12.5318570000818,12.5318570000818,0.0,0.0,2.354013097183821,0.0,0.0,0.06765957,0.3037176,9.75401433,0.003458,0.000114,0.00408
12.551844000001438,12.551844000001438,0.0,0.0,2.354091356135843,0.0,0.0,0.07724394,0.30221667,9.78365034,0.003192,0.001485,0.003905
12.571831000037491,12.571831000037491,0.0,0.0,2.3541977950762885,0.0,0.0,0.07454619,0.29159244,9.78261048,0.004961,-0.000387,0.005381
12.591818000073545,12.591818000073545,0.0,0.0,2.3542501625069994,0.0,0.0,0.0609201,0.30177522,9.76404996,0.001813,0.001117,0.002516
12.611804999993183,12.611804999993183,0.0,0.0,2.3543524524090014,0.0,0.0,0.0694548,0.28695231,9.7838073,0.004619,0.000309,0.005191
12.631792000029236,12.631792000029236,0.0,0.0,2.3544291366453898,0.0,0.0,0.08292393,0.2980278,9.79338186,0.005308,-5.4e-05,0.003804
12.651780000072904,12.651780000072904,0.0,0.0,2.354524173243493,0.0,0.0,0.07424208,0.3005784,9.78290478,0.001719,0.00081,0.004806
12.671766999992542,12.671766999992542,0.0,0.0,2.354598980041101,0.0,0.0,0.07110288,0.29878317,9.79009551,0.005434,-0.001436,0.003692
12.691754000028595,12.691754000028595,0.0,0.0,2.3546702484073307,0.0,0.0,0.06586434,0.29608542,9.78799617,0.001764,0.001262,0.003501
12.711741000064649,12.711741000064649,0.0,0.0,2.3547378187517776,0.0,0.0,0.07634142,0.29878317,9.78784902,0.003548,-0.000729,0.003302
12.75171500002034,12.75171500002034,0.0,0.0,2.354896479885088,0.0,0.0,0.07065162,0.30161826,9.79143948,-0.000142,-0.000428,0.003946
12.75171500002034,12.75171500002034,0.0,0.0,2.3548958005317546,0.0,0.0,0.07065162,0.30161826,9.79143948,-0.000142,-0.000428,0.003946
12.791689000092447,12.791689000092447,0.0,0.0,2.355062993693256,0.0,0.0,0.06601149,0.2977335,9.78261048,0.005071,0.000274,0.004401
12.791689000092447,12.791689000092447,0.0,0.0,2.3550690461863404,0.0,0.0,0.06601149,0.2977335,9.78261048,0.005071,0.000274,0.004401
12.831663000048138,12.831663000048138,0.0,0.0,2.355241766500516,0.0,0.0,0.06287229,0.28709946,9.78754491,0.004031,-0.000223,0.004587
12.831663000048138,12.831663000048138,0.0,0.0,2.35524881011733,0.0,0.0,0.06287229,0.28709946,9.78754491,0.004031,-0.000223,0.004587
12.87163700000383,12.87163700000383,0.0,0.0,2.3554260046669455,0.0,0.0,0.07304526,0.30221667,9.78889869,0.004536,-0.000269,0.004694
12.891624000039883,12.891624000039883,0.0,0.0,2.3555142650530083,0.0,0.0,0.07424208,0.28410741,9.79712928,0.003273,-0.003007,0.004429
12.911611000075936,12.911611000075936,0.0,0.0,2.3556047605231,0.0,0.0,0.06720831,0.29653668,9.80416305,0.001262,-0.002035,0.004551
12.931597999995574,12.931597999995574,0.0,0.0,2.3556925214391615,0.0,0.0,0.06511878,0.29593827,9.78365034,0.004462,-0.002074,0.004397
12.951585000031628,12.951585000031628,0.0,0.0,2.3557811922176217,0.0,0.0,0.07349652,0.29084688,9.77706783,0.002141,-0.001472,0.004447
12.971572000067681,12.971572000067681,0.0,0.0,2.3558727996725555,0.0,0.0,0.06182262,0.28410741,9.79038981,0.000229,-0.003011,0.00461
13.011546000023372,13.011546000023372,0.0,0.0,2.3560445809096695,0.0,0.0,0.08412075,0.29922462,9.76778757,0.002226,-0.000896,0.004202
13.031533000059426,13.031533000059426,0.0,0.0,2.3561454791397303,0.0,0.0,0.07110288,0.28725642,9.79158663,0.003086,-0.001552,0.005066
13.031533000059426,13.031533000059426,0.0,0.0,2.356155729279365,0.0,0.0,0.07110288,0.28725642,9.79158663,0.003086,-0.001552,0.005066
13.071508000022732,13.071508000022732,0.0,0.0,2.3563298326221984,0.0,0.0,0.07364367,0.30611124,9.7664436,0.000354,0.00017,0.00415
13.071508000022732,13.071508000022732,0.0,0.0,2.3563242932239294,0.0,0.0,0.07364367,0.30611124,9.7664436,0.000354,0.00017,0.00415
13.111482000094838,13.111482000094838,0.0,0.0,2.356524814252454,0.0,0.0,0.06765957,0.28709946,9.77766624,0.002608,0.001113,0.005682
13.131469000014476,13.131469000014476,0.0,0.0,2.3566063165573663,0.0,0.0,0.06975891,0.29219085,9.77347737,0.003482,0.000237,0.00403
13.15145600005053,13.15145600005053,0.0,0.0,2.3566919981889747,0.0,0.0,0.0754389,0.31000581,9.77960862,0.004551,-0.003345,0.004263
13.171443000086583,13.171443000086583,0.0,0.0,2.3567659988628886,0.0,0.0,0.0663156,0.29997999,9.77692068,0.000213,9.4e-05,0.003621
13.191430000006221,13.191430000006221,0.0,0.0,2.356875419704499,0.0,0.0,0.07603731,0.29578131,9.77617512,0.004197,-0.001514,0.005593
13.211417000042275,13.211417000042275,0.0,0.0,2.356944391050064,0.0,0.0,0.07933347,0.29653668,9.780815250000002,0.004287,-0.000372,0.003327
13.231404000078328,13.231404000078328,0.0,0.0,2.357047076628376,0.0,0.0,0.07184844,0.29338767,9.77797035,0.00319,0.000136,0.005227
13.251390999997966,13.251390999997966,0.0,0.0,2.357131499383849,0.0,0.0,0.07454619,0.29173959,9.78470001,0.003293,-0.002859,0.004191
13.27137800003402,13.27137800003402,0.0,0.0,2.3571843721542454,0.0,0.0,0.0722997,0.29054277,9.76613949,0.002585,0.000691,0.002418
13.27137800003402,13.27137800003402,0.0,0.0,2.3571567088995007,0.0,0.0,0.0722997,0.29054277,9.76613949,0.002585,0.000691,0.002418
13.311350999982096,13.311350999982096,0.0,0.0,2.3573357357278972,0.0,0.0,0.06601149,0.30955455,9.76688505,0.003565,-0.000178,0.005118
13.351325000054203,13.351325000054203,0.0,0.0,2.3575026149899028,0.0,0.0,0.06765957,0.29474145,9.78036399,0.003244,-0.001317,0.00422
13.351325000054203,13.351325000054203,0.0,0.0,2.3575039014080463,0.0,0.0,0.06765957,0.29474145,9.78036399,0.003244,-0.001317,0.00422
13.391299000009894,13.391299000009894,0.0,0.0,2.357689910777406,0.0,0.0,0.06706116,0.29129814,9.77152518,0.002185,-0.00042,0.005204
13.411286000045948,13.411286000045948,0.0,0.0,2.357770881500749,0.0,0.0,0.08427771,0.29024847,9.77706783,0.005559,-0.001652,0.004035
13.431273000082001,13.431273000082001,0.0,0.0,2.3578349969477372,0.0,0.0,0.07155414,0.30746502,9.76749327,0.002822,0.001173,0.00313
13.431273000082001,13.431273000082001,0.0,0.0,2.3578189851221563,0.0,0.0,0.07155414,0.30746502,9.76749327,0.002822,0.001173,0.00313
13.471248000045307,13.471248000045307,0.0,0.0,2.3579859916945978,0.0,0.0,0.07499745,0.28620675,9.808803180000002,0.004511,-0.000265,0.004401
13.471248000045307,13.471248000045307,0.0,0.0,2.3579916611488816,0.0,0.0,0.07499745,0.28620675,9.808803180000002,0.004511,-0.000265,0.004401
13.511222000000998,13.511222000000998,0.0,0.0,2.35817167618914,0.0,0.0,0.05613282,0.29578131,9.79069392,0.004156,-0.001964,0.005007
13.531209000037052,13.531209000037052,0.0,0.0,2.3582230982210923,0.0,0.0,0.08067744,0.28874754,9.80266212,0.003885,-0.000903,0.002384
13.551196000073105,13.551196000073105,0.0,0.0,2.358318302803049,0.0,0.0,0.08038314,0.29578131,9.77407578,0.001658,-0.000196,0.004858
13.571182999992743,13.571182999992743,0.0,0.0,2.358387205531125,0.0,0.0,0.0691605,0.28769787,9.79772769,0.005166,-0.00104,0.003369
13.591170000028796,13.591170000028796,0.0,0.0,2.3584571900923503,0.0,0.0,0.06615864,0.29293641,9.79847325,0.000297,-0.000449,0.00344
13.61115700006485,13.61115700006485,0.0,0.0,2.3585370362159335,0.0,0.0,0.06511878,0.30311919,9.78470001,0.002772,-0.000945,0.004005
13.631143999984488,13.631143999984488,0.0,0.0,2.358583345272237,0.0,0.0,0.06615864,0.30297204,9.78739776,0.003431,-0.000923,0.002105
13.671118000056595,13.671118000056595,0.0,0.0,2.358692980161086,0.0,0.0,0.06436341,0.292338,9.79877736,0.003463,-0.002109,0.001762
13.671118000056595,13.671118000056595,0.0,0.0,2.3586649847241343,0.0,0.0,0.06436341,0.292338,9.79877736,0.003463,-0.002109,0.001762
13.691105000092648,13.691105000092648,0.0,0.0,2.35874097430011,0.0,0.0,0.08143281,0.29309337,9.78799617,0.003444,-0.001716,0.003905
13.711092000012286,13.711092000012286,0.0,0.0,2.3588172472351028,0.0,0.0,0.07125003,0.29474145,9.80626239,0.003444,-0.001716,0.003905
13.73107900004834,13.73107900004834,0.0,0.0,2.35892527932692,0.0,0.0,0.0839736,0.29383893,9.77797035,0.004514,-0.001058,0.005742
13.751066000084393,13.751066000084393,0.0,0.0,2.3590284474992256,0.0,0.0,0.07499745,0.30132396,9.7667379,0.00166,-0.000771,0.005405
13.77105300000403,13.77105300000403,0.0,0.0,2.3591222208010727,0.0,0.0,0.08007903,0.29713509,9.79368597,0.002704,-0.002233,0.00482
13.811028000083752,13.811028000083752,0.0,0.0,2.359265405111879,0.0,0.0,0.0811287,0.2948886,9.77182929,0.002132,0.000285,0.003105
13.83101500000339,13.83101500000339,0.0,0.0,2.359343302927278,0.0,0.0,0.06571719,0.29833191,9.74982546,0.006154,-0.002571,0.003898
13.851002000039443,13.851002000039443,0.0,0.0,2.359451499664827,0.0,0.0,0.0722997,0.29623257,9.78574968,0.001038,-0.000616,0.005515
13.870989000075497,13.870989000075497,0.0,0.0,2.3595286789165613,0.0,0.0,0.07963758,0.30147111,9.78784902,0.002444,-0.001696,0.003842
13.890975999995135,13.890975999995135,0.0,0.0,2.3596001688676296,0.0,0.0,0.07993188,0.3034233,9.78769206,0.004627,-0.000885,0.003534
13.910963000031188,13.910963000031188,0.0,0.0,2.3596828475055363,0.0,0.0,0.06900354,0.28336185,9.78560253,0.000897,0.000914,0.004149
13.95093699998688,13.95093699998688,0.0,0.0,2.3598480876205796,0.0,0.0,0.063765,0.30416886,9.76823883,0.004686,-0.000831,0.004242
13.95093699998688,13.95093699998688,0.0,0.0,2.3598513480952548,0.0,0.0,0.063765,0.30416886,9.76823883,0.004686,-0.000831,0.004242
13.970924000022933,13.970924000022933,0.0,0.0,2.3599188344013697,0.0,0.0,0.06586434,0.28755072,9.780815250000002,0.001651,-0.000299,0.003277
13.990911000058986,13.990911000058986,0.0,0.0,2.359992251449402,0.0,0.0,0.054936,0.29264211,9.77976558,0.004457,-0.001592,0.00363
14.030885000014678,14.030885000014678,0.0,0.0,2.360133997350113,0.0,0.0,0.08248248,0.29697813,9.78320889,0.001991,6.3e-05,0.003138
14.030885000014678,14.030885000014678,0.0,0.0,2.3601225337409204,0.0,0.0,0.08248248,0.29697813,9.78320889,0.001991,6.3e-05,0.003138
14.070859000086784,14.070859000086784,0.0,0.0,2.3602600341677054,0.0,0.0,0.07125003,0.29922462,9.78170796,0.002985,0.000514,0.003116
14.070859000086784,14.070859000086784,0.0,0.0,2.3602513688343434,0.0,0.0,0.07125003,0.29922462,9.78170796,0.002985,0.000514,0.003116
14.110833000042476,14.110833000042476,0.0,0.0,2.36038605318615,0.0,0.0,0.05538726,0.28021284,9.79473564,0.001605,-0.000163,0.003129
14.130821000086144,14.130821000086144,0.0,0.0,2.3604713334799516,0.0,0.0,0.07888221,0.3008727,9.75716334,0.001938,-0.000813,0.004335
14.150808000005782,14.150808000005782,0.0,0.0,2.360551819789972,0.0,0.0,0.07708698,0.29728224,9.78141366,0.004676,-0.001073,0.004066
14.170795000041835,14.170795000041835,0.0,0.0,2.3606401416336222,0.0,0.0,0.06452037,0.29414304,9.78829047,0.001059,-0.000492,0.004495
14.190782000077888,14.190782000077888,0.0,0.0,2.3606991347579136,0.0,0.0,0.05732964,0.30926025,9.76254903,0.003347,-0.000187,0.002859
14.210768999997526,14.210768999997526,0.0,0.0,2.360780432087111,0.0,0.0,0.07364367,0.29623257,9.77871591,0.003723,-0.00184,0.004113
14.23075600003358,14.23075600003358,0.0,0.0,2.3608953668822377,0.0,0.0,0.08143281,0.29414304,9.7755669,0.001818,-0.001972,0.005991
14.250743000069633,14.250743000069633,0.0,0.0,2.3609789971841693,0.0,0.0,0.07933347,0.28515708,9.76838598,0.003083,-0.001914,0.004203
14.270729999989271,14.270729999989271,0.0,0.0,2.361052804635131,0.0,0.0,0.05867361,0.29997999,9.74563659,0.002081,0.000189,0.003647
14.310704000061378,14.310704000061378,0.0,0.0,2.3612021151999034,0.0,0.0,0.06856209,0.29189655,9.76434426,0.002946,-0.002695,0.003461
14.310704000061378,14.310704000061378,0.0,0.0,2.361194236005727,0.0,0.0,0.06856209,0.29189655,9.76434426,0.002946,-0.002695,0.003461
14.35067800001707,14.35067800001707,0.0,0.0,2.3613435640242475,0.0,0.0,0.08457201,0.29982303,9.76988691,0.004406,-0.000898,0.003597
14.35067800001707,14.35067800001707,0.0,0.0,2.361339787910593,0.0,0.0,0.08457201,0.29982303,9.76988691,0.004406,-0.000898,0.003597
14.390652000089176,14.390652000089176,0.0,0.0,2.3614863957995027,0.0,0.0,0.07619427,0.31629402,9.77092677,0.001303,0.00054,0.003521
14.390652000089176,14.390652000089176,0.0,0.0,2.3614825662262096,0.0,0.0,0.07619427,0.31629402,9.77092677,0.001303,0.00054,0.003521
14.430627000052482,14.430627000052482,0.0,0.0,2.3616109887696215,0.0,0.0,0.08098155,0.29458449,9.79189074,0.002704,0.000955,0.002601
14.430627000052482,14.430627000052482,0.0,0.0,2.3615955207233705,0.0,0.0,0.08098155,0.29458449,9.79189074,0.002704,0.000955,0.002601
14.470601000008173,14.470601000008173,0.0,0.0,2.361736232915211,0.0,0.0,0.0811287,0.29818476,9.79398027,0.005278,-0.000828,0.003608
14.490588000044227,14.490588000044227,0.0,0.0,2.3618087449471563,0.0,0.0,0.07079877,0.30386475,9.78485697,0.002623,-0.000205,0.003646
14.51057500008028,14.51057500008028,0.0,0.0,2.3618884801297737,0.0,0.0,0.07304526,0.30282489,9.77108373,0.003538,-3.5e-05,0.004048
14.530561999999918,14.530561999999918,0.0,0.0,2.361950431385143,0.0,0.0,0.06765957,0.292338,9.77781339,0.004744,-9.6e-05,0.003042
14.550549000035971,14.550549000035971,0.0,0.0,2.362050872123678,0.0,0.0,0.07215255,0.29533986,9.77392863,0.001457,-0.000826,0.005217
14.550549000035971,14.550549000035971,0.0,0.0,2.3620741427347127,0.0,0.0,0.07215255,0.29533986,9.77392863,0.001457,-0.000826,0.005217
14.590522999991663,14.590522999991663,0.0,0.0,2.362213025701343,0.0,0.0,0.08038314,0.3008727,9.78679935,0.002404,0.000932,0.002925
14.610510000027716,14.610510000027716,0.0,0.0,2.3623117621322125,0.0,0.0,0.07289811,0.2894931,9.77661657,0.002949,0.000128,0.0051
14.63049700006377,14.63049700006377,0.0,0.0,2.362398178123918,0.0,0.0,0.07873506,0.29503575,9.79098822,0.005137,-0.000882,0.004375
14.650483999983408,14.650483999983408,0.0,0.0,2.362479533899166,0.0,0.0,0.08427771,0.28994436,9.80461431,0.000407,-0.00064,0.004079
14.670471000019461,14.670471000019461,0.0,0.0,2.3625694775193384,0.0,0.0,0.07244685,0.29728224,9.76300029,0.003859,-0.003768,0.004568
14.710445000091568,14.710445000091568,0.0,0.0,2.362752909422963,0.0,0.0,0.06960195,0.30177522,9.79084107,0.002309,-0.001754,0.005112
14.710445000091568,14.710445000091568,0.0,0.0,2.3627676619830122,0.0,0.0,0.06960195,0.30177522,9.79084107,0.002309,-0.001754,0.005112
14.750420000054874,14.750420000054874,0.0,0.0,2.3629368216860787,0.0,0.0,0.0865242,0.29982303,9.77182929,0.000477,0.000745,0.004095
14.750420000054874,14.750420000054874,0.0,0.0,2.3629331514822507,0.0,0.0,0.0865242,0.29982303,9.77182929,0.000477,0.000745,0.004095
14.790394000010565,14.790394000010565,0.0,0.0,2.363114313447509,0.0,0.0,0.06795387,0.30237363,9.80790066,0.004681,-0.001079,0.004814
14.790394000010565,14.790394000010565,0.0,0.0,2.3631216052354844,0.0,0.0,0.06795387,0.30237363,9.80790066,0.004681,-0.001079,0.004814
14.830368000082672,14.830368000082672,0.0,0.0,2.3632933418441393,0.0,0.0,0.07753824,0.30581694,9.768533130000002,0.00499,-0.005091,0.004148
14.85035500000231,14.85035500000231,0.0,0.0,2.3633610771411924,0.0,0.0,0.07139718,0.29264211,9.76044969,0.003185,-0.000798,0.003285
14.870342000038363,14.870342000038363,0.0,0.0,2.3634760342558234,0.0,0.0,0.07963758,0.29608542,9.7752726,0.00313,-0.001335,0.005919
14.890329000074416,14.890329000074416,0.0,0.0,2.363584399701095,0.0,0.0,0.05837931,0.29713509,9.76838598,0.005663,-0.00179,0.005532
14.910315999994054,14.910315999994054,0.0,0.0,2.36365552602563,0.0,0.0,0.06735546,0.29713509,9.78261048,0.001404,0.000502,0.003434
14.930303000030108,14.930303000030108,0.0,0.0,2.363763814166643,0.0,0.0,0.0791863199999999,0.29533986,9.75656493,0.002772,-0.001532,0.005537
14.950290000066161,14.950290000066161,0.0,0.0,2.3638503109602693,0.0,0.0,0.06271533,0.2948886,9.75925287,0.002618,-0.000414,0.004294
14.9702769999858,14.9702769999858,0.0,0.0,2.363933420970076,0.0,0.0,0.07125003,0.28965006,9.7812567,0.003261,-9e-06,0.004107
14.990264000021853,14.990264000021853,0.0,0.0,2.364015722832141,0.0,0.0,0.07289811,0.29833191,9.77661657,0.003748,0.00076,0.004068
15.01025200006552,15.01025200006552,0.0,0.0,2.3640902824656234,0.0,0.0,0.06271533,0.29757654,9.7635987,0.003436,-0.001756,0.003635
15.030238999985158,15.030238999985158,0.0,0.0,2.364170446917967,0.0,0.0,0.07574301,0.31464594,9.77003406,0.003956,-0.001635,0.003967
15.050226000021212,15.050226000021212,0.0,0.0,2.3642429734196337,0.0,0.0,0.0606258,0.2948886,9.77931432,0.005296,-0.001247,0.003538
15.090200000093319,15.090200000093319,0.0,0.0,2.3643921618143517,0.0,0.0,0.07844076,0.29608542,9.768533130000002,0.00305,-0.00043,0.003256
15.090200000093319,15.090200000093319,0.0,0.0,2.364378697625625,0.0,0.0,0.07844076,0.29608542,9.768533130000002,0.00305,-0.00043,0.003256
15.110187000012957,15.110187000012957,0.0,0.0,2.3644497534937354,0.0,0.0,0.06975891,0.28575549,9.78170796,0.002702,-0.001798,0.003487
15.150161000085063,15.150161000085063,0.0,0.0,2.3646112957889525,0.0,0.0,0.06825798,0.28965006,9.765246780000002,0.004099,-0.000148,0.004211
15.150161000085063,15.150161000085063,0.0,0.0,2.3646158816292457,0.0,0.0,0.06825798,0.28965006,9.765246780000002,0.004099,-0.000148,0.004211
15.190135000040755,15.190135000040755,0.0,0.0,2.364789993990689,0.0,0.0,0.0663156,0.28800198,9.76809168,0.001876,-0.00203,0.004802
15.210122000076808,15.210122000076808,0.0,0.0,2.364890582503346,0.0,0.0,0.07768539,0.30027429,9.76284333,0.005392,-0.000954,0.005114
15.230108999996446,15.230108999996446,0.0,0.0,2.364978054331056,0.0,0.0,0.08023599,0.29967588,9.7781175,0.002868,-0.000144,0.00439
15.2500960000325,15.2500960000325,0.0,0.0,2.3650624964986235,0.0,0.0,0.07289811,0.28769787,9.78993855,0.0048,-0.001675,0.004222
15.270083000068553,15.270083000068553,0.0,0.0,2.3651268265334036,0.0,0.0,0.08038314,0.29578131,9.77826465,0.004109,0.000529,0.003109
15.290070999995805,15.290070999995805,0.0,0.0,2.3652301429951894,0.0,0.0,0.07260381,0.29054277,9.79443153,0.003015,0.000524,0.005289
15.310058000031859,15.310058000031859,0.0,0.0,2.3653023001058404,0.0,0.0,0.07603731,0.2894931,9.78919299,0.004533,-0.000692,0.003535
15.330045000067912,15.330045000067912,0.0,0.0,2.3653885110857775,0.0,0.0,0.07380063,0.28874754,9.79143948,0.001447,0.000564,0.004332
15.35003199998755,15.35003199998755,0.0,0.0,2.3654741051241217,0.0,0.0,0.07679268,0.30431601,9.75491685,0.003385,-0.000319,0.004295
15.370019000023603,15.370019000023603,0.0,0.0,2.3655683386046604,0.0,0.0,0.06795387,0.29563416,9.78335604,0.004997,0.000374,0.004781
15.390006000059657,15.390006000059657,0.0,0.0,2.365655955556279,0.0,0.0,0.07663572,0.29757654,9.80086689,0.002027,0.000482,0.004398
15.429980000015348,15.429980000015348,0.0,0.0,2.3657951804583135,0.0,0.0,0.07484049,0.28665801,9.7929306,0.002234,-0.000254,0.002642
15.429980000015348,15.429980000015348,0.0,0.0,2.3657711617708754,0.0,0.0,0.07484049,0.28665801,9.7929306,0.002234,-0.000254,0.002642
15.469954000087455,15.469954000087455,0.0,0.0,2.365961211013131,0.0,0.0,0.07380063,0.28261629,9.80341749,0.004098,-0.002767,0.005732
15.489941000007093,15.489941000007093,0.0,0.0,2.3660347221581794,0.0,0.0,0.06765957,0.29907747,9.77737194,0.000618,-0.000736,0.003649
15.509928000043146,15.509928000043146,0.0,0.0,2.3660868881125214,0.0,0.0,0.08471916,0.30206952,9.77137803,0.003495,-0.002472,0.002503
15.5299150000792,15.5299150000792,0.0,0.0,2.3661489034063283,0.0,0.0,0.07409493,0.28994436,9.7894971,0.003717,-0.001126,0.003041
15.549903000006452,15.549903000006452,0.0,0.0,2.366217245435431,0.0,0.0,0.06795387,0.29173959,9.77946147,0.002737,-0.000611,0.00339
15.569890000042506,15.569890000042506,0.0,0.0,2.366304380899381,0.0,0.0,0.07394778,0.29608542,9.77781339,0.003451,-0.002289,0.004425
15.589877000078559,15.589877000078559,0.0,0.0,2.3663973606579685,0.0,0.0,0.07215255,0.30206952,9.77287896,0.000765,-0.001088,0.004742
15.609863999998197,15.609863999998197,0.0,0.0,2.366433151928196,0.0,0.0,0.07933347,0.28455867,9.7692885,0.003144,-0.001989,0.001556
15.62985100003425,15.62985100003425,0.0,0.0,2.366508875352114,0.0,0.0,0.07095573,0.30012714,9.780658290000002,0.004392,0.000249,0.00381
15.669824999989942,15.669824999989942,0.0,0.0,2.3666802662154094,0.0,0.0,0.06720831,0.29728224,9.76704201,0.003433,-0.001956,0.004956
15.669824999989942,15.669824999989942,0.0,0.0,2.3666997679637234,0.0,0.0,0.06720831,0.29728224,9.76704201,0.003433,-0.001956,0.004956
15.709799000062048,15.709799000062048,0.0,0.0,2.3668891099211304,0.0,0.0,0.07275096,0.2951829,9.78021684,0.000634,-0.001358,0.005567
15.709799000062048,15.709799000062048,0.0,0.0,2.3669119877395985,0.0,0.0,0.07275096,0.2951829,9.78021684,0.000634,-0.001358,0.005567
15.74977300001774,15.74977300001774,0.0,0.0,2.3670458206456626,0.0,0.0,0.07155414,0.29189655,9.76195062,0.002174,0.002018,0.00218
15.74977300001774,15.74977300001774,0.0,0.0,2.3670150416726754,0.0,0.0,0.07155414,0.29189655,9.76195062,0.002174,0.002018,0.00218
15.789748000097461,15.789748000097461,0.0,0.0,2.3671791468975796,0.0,0.0,0.06196977,0.29054277,9.77467419,0.003598,-0.003349,0.004434
15.789748000097461,15.789748000097461,0.0,0.0,2.3671875174731607,0.0,0.0,0.06196977,0.29054277,9.77467419,0.003598,-0.003349,0.004434
15.829722000053152,15.829722000053152,0.0,0.0,2.367346589397884,0.0,0.0,0.07469334,0.28965006,9.77677353,0.004736,0.000148,0.003982
15.849709000089206,15.849709000089206,0.0,0.0,2.36744815139172,0.0,0.0,0.07065162,0.29788065,9.764795520000002,0.002713,-0.000105,0.005205
15.869696000008844,15.869696000008844,0.0,0.0,2.3675151401128236,0.0,0.0,0.07260381,0.28530423,9.78560253,0.002157,-0.001079,0.003259
15.889683000044897,15.889683000044897,0.0,0.0,2.36759227198187,0.0,0.0,0.07035732,0.29893032,9.77287896,0.004652,-0.004189,0.003839
15.90967000008095,15.90967000008095,0.0,0.0,2.36763675989077,0.0,0.0,0.06930765,0.29278926,9.79024266,0.000784,-0.000243,0.002006
15.929657000000589,15.929657000000589,0.0,0.0,2.367735433998697,0.0,0.0,0.07035732,0.29788065,9.77826465,0.00279,-0.001961,0.00509
15.949644000036642,15.949644000036642,0.0,0.0,2.3678184921544236,0.0,0.0,0.07574301,0.29398608,9.75865446,0.003487,4.1e-05,0.004187
15.989617999992333,15.989617999992333,0.0,0.0,2.367978558183564,0.0,0.0,0.07155414,0.28979721,9.78110955,0.005212,-0.002836,0.00406
15.989617999992333,15.989617999992333,0.0,0.0,2.3679801529488174,0.0,0.0,0.07155414,0.28979721,9.78110955,0.005212,-0.002836,0.00406
16.02959200006444,16.02959200006444,0.0,0.0,2.3681242663177793,0.0,0.0,0.06646275,0.30221667,9.78799617,0.002526,-0.000993,0.003194
16.049579999991693,16.049579999991693,0.0,0.0,2.368200673540742,0.0,0.0,0.08576883,0.29653668,9.78605379,0.003839,-0.000483,0.00382
16.069567000027746,16.069567000027746,0.0,0.0,2.368247236656593,0.0,0.0,0.07125003,0.29893032,9.76164651,0.000801,-0.001752,0.002219
16.0895540000638,16.0895540000638,0.0,0.0,2.368324965593443,0.0,0.0,0.07708698,0.29159244,9.76209777,0.004493,-0.002039,0.00391
16.109540999983437,16.109540999983437,0.0,0.0,2.3684015080224157,0.0,0.0,0.05763375,0.30101985,9.763893,0.004192,-0.001519,0.003844
16.12952800001949,16.12952800001949,0.0,0.0,2.368498525430569,0.0,0.0,0.0666099,0.29414304,9.77392863,0.001668,0.001163,0.004967
16.149515000055544,16.149515000055544,0.0,0.0,2.368582455936311,0.0,0.0,0.07888221,0.2951829,9.78201207,0.00538,-0.001359,0.004234
16.189489000011235,16.189489000011235,0.0,0.0,2.368761762938284,0.0,0.0,0.0778423499999999,0.28740357,9.77781339,0.002222,-0.001273,0.005057
16.189489000011235,16.189489000011235,0.0,0.0,2.3687787053958544,0.0,0.0,0.0778423499999999,0.28740357,9.77781339,0.002222,-0.001273,0.005057
16.229463000083342,16.229463000083342,0.0,0.0,2.3689472116766996,0.0,0.0,0.08172711,0.30027429,9.78305193,0.001457,-0.000744,0.004222
16.24945000000298,16.24945000000298,0.0,0.0,2.3690382561080536,0.0,0.0,0.07753824,0.29952873,9.76284333,0.003905,-0.001046,0.004572
16.269437000039034,16.269437000039034,0.0,0.0,2.369129696023519,0.0,0.0,0.0805302899999999,0.29697813,9.79712928,0.002996,-0.000476,0.004594
16.2894250000827,16.2894250000827,0.0,0.0,2.369202560551,0.0,0.0,0.07559586,0.2806641,9.77496849,0.002195,-0.00143,0.003598
16.2894250000827,16.2894250000827,0.0,0.0,2.3691925076215608,0.0,0.0,0.07559586,0.2806641,9.77496849,0.002195,-0.00143,0.003598
16.309413000009954,16.309413000009954,0.0,0.0,2.369250190079475,0.0,0.0,0.07005321,0.3008727,9.77152518,0.003641,-0.001996,0.002621
16.34938700008206,16.34938700008206,0.0,0.0,2.369420391860648,0.0,0.0,0.07948062,0.3150972,9.764942670000002,0.005474,-0.001562,0.004618
16.3693740000017,16.3693740000017,0.0,0.0,2.3694946166431725,0.0,0.0,0.06571719,0.2891988,9.78529842,0.003043,-0.001766,0.003683
16.389361000037752,16.389361000037752,0.0,0.0,2.369569591693348,0.0,0.0,0.07439904,0.29054277,9.764795520000002,0.000449,-0.000582,0.003727
16.409348000073805,16.409348000073805,0.0,0.0,2.3696625814300454,0.0,0.0,0.06002739,0.29309337,9.76883724,0.005176,-0.002551,0.004726
16.429334999993443,16.429334999993443,0.0,0.0,2.3697344864601178,0.0,0.0,0.06675705,0.29578131,9.78605379,0.001791,-0.00069,0.003546
16.449322000029497,16.449322000029497,0.0,0.0,2.3698235336609708,0.0,0.0,0.07394778,0.29818476,9.77737194,0.001833,-0.002142,0.004509
16.46930900006555,16.46930900006555,0.0,0.0,2.369890733546586,0.0,0.0,0.06735546,0.29219085,9.78261048,0.003851,-0.001516,0.003278
16.50928300002124,16.50928300002124,0.0,0.0,2.370024128851089,0.0,0.0,0.06840513,0.30551283,9.77077962,0.003496,-0.002805,0.002702
16.50928300002124,16.50928300002124,0.0,0.0,2.3700057254944937,0.0,0.0,0.06840513,0.30551283,9.77077962,0.003496,-0.002805,0.002702
16.549257999984547,16.549257999984547,0.0,0.0,2.370123820497523,0.0,0.0,0.07275096,0.29862621,9.77362452,0.001966,0.000176,0.002213
16.549257999984547,16.549257999984547,0.0,0.0,2.3701034994747907,0.0,0.0,0.07275096,0.29862621,9.77362452,0.001966,0.000176,0.002213
16.589232000056654,16.589232000056654,0.0,0.0,2.3702308644787227,0.0,0.0,0.05927202,0.29878317,9.7781175,0.001615,0.000101,0.003084
16.609219000092708,16.609219000092708,0.0,0.0,2.3703230291174187,0.0,0.0,0.0691605,0.29653668,9.76823883,0.002667,-0.001104,0.004721
16.629206000012346,16.629206000012346,0.0,0.0,2.3704153238203993,0.0,0.0,0.07739109,0.30551283,9.77257485,0.004772,-0.000981,0.004721
16.6491930000484,16.6491930000484,0.0,0.0,2.3705074399961212,0.0,0.0,0.06646275,0.29024847,9.77392863,0.002833,-0.000561,0.004703
16.68916700000409,16.68916700000409,0.0,0.0,2.3706459586382493,0.0,0.0,0.06601149,0.29114118,9.77273181,0.002406,-4.8e-05,0.00316
16.709154000040144,16.709154000040144,0.0,0.0,2.3707111091261046,0.0,0.0,0.07275096,0.29862621,9.77797035,0.002277,-0.002648,0.003255
16.709154000040144,16.709154000040144,0.0,0.0,2.370704795361271,0.0,0.0,0.07275096,0.29862621,9.77797035,0.002277,-0.002648,0.003255
16.74912900000345,16.74912900000345,0.0,0.0,2.370876919330425,0.0,0.0,0.0811287,0.3037176,9.77273181,0.001447,0.000881,0.005102
16.74912900000345,16.74912900000345,0.0,0.0,2.370898846727168,0.0,0.0,0.0811287,0.3037176,9.77273181,0.001447,0.000881,0.005102
16.789103000075556,16.789103000075556,0.0,0.0,2.3710593994206874,0.0,0.0,0.0754389,0.30161826,9.76659075,0.005226,-0.000128,0.004085
16.789103000075556,16.789103000075556,0.0,0.0,2.3710612046621113,0.0,0.0,0.0754389,0.30161826,9.76659075,0.005226,-0.000128,0.004085
16.829077000031248,16.829077000031248,0.0,0.0,2.371207941139337,0.0,0.0,0.07110288,0.29548701,9.78110955,0.004149,-0.002216,0.003295
16.8490640000673,16.8490640000673,0.0,0.0,2.371310818562737,0.0,0.0,0.07963758,0.29818476,9.76508982,0.003592,0.001712,0.005271
16.86905099998694,16.86905099998694,0.0,0.0,2.3714062663230946,0.0,0.0,0.06137136,0.29967588,9.76508982,0.003058,-0.000425,0.004848
16.889038000022992,16.889038000022992,0.0,0.0,2.37148662025914,0.0,0.0,0.0754389,0.29742939,9.79562835,0.003984,-0.002344,0.004002
16.909025000059046,16.909025000059046,0.0,0.0,2.3715523801133696,0.0,0.0,0.0538863299999999,0.29414304,9.76464837,0.002551,0.000174,0.00319
16.9290120000951,16.9290120000951,0.0,0.0,2.371635161785653,0.0,0.0,0.07244685,0.29249496,9.780658290000002,0.003267,-0.000565,0.004155
16.948999000014737,16.948999000014737,0.0,0.0,2.3717088254772403,0.0,0.0,0.07155414,0.28889469,9.78170796,0.003395,-0.001284,0.003641
16.948999000014737,16.948999000014737,0.0,0.0,2.371703294120003,0.0,0.0,0.07155414,0.28889469,9.78170796,0.003395,-0.001284,0.003641
16.98897400009446,16.98897400009446,0.0,0.0,2.3718642152476574,0.0,0.0,0.0609201,0.3037176,9.74877579,0.004632,-0.001072,0.004119
17.008961000014096,17.008961000014096,0.0,0.0,2.371937432316731,0.0,0.0,0.06107706,0.29159244,9.78784902,0.002687,-0.000965,0.003621
17.02894800005015,17.02894800005015,0.0,0.0,2.3720135834836373,0.0,0.0,0.07888221,0.2977335,9.78350319,0.002903,0.000271,0.003794
17.048935000086203,17.048935000086203,0.0,0.0,2.3720956264720163,0.0,0.0,0.07184844,0.30491442,9.77197644,0.005769,-0.001871,0.004132
17.088909000041895,17.088909000041895,0.0,0.0,2.372280700443225,0.0,0.0,0.06167547,0.29369178,9.77601816,0.004018,-0.000966,0.005355
17.108896000077948,17.108896000077948,0.0,0.0,2.3723361419136344,0.0,0.0,0.07559586,0.30491442,9.7607538,0.001761,-0.000787,0.00272
17.108896000077948,17.108896000077948,0.0,0.0,2.3723155774324454,0.0,0.0,0.07559586,0.30491442,9.7607538,0.001761,-0.000787,0.00272
17.14887000003364,17.14887000003364,0.0,0.0,2.3724732453533335,0.0,0.0,0.07439904,0.29907747,9.77976558,0.004083,-0.000459,0.00412
17.14887000003364,17.14887000003364,0.0,0.0,2.3724779003842578,0.0,0.0,0.07439904,0.29907747,9.77976558,0.004083,-0.000459,0.00412
17.188844999996945,17.188844999996945,0.0,0.0,2.372616663575812,0.0,0.0,0.07619427,0.29398608,9.77677353,0.003239,-0.001648,0.003
17.208832000033,17.208832000033,0.0,0.0,2.3726968841586267,0.0,0.0,0.0778423499999999,0.29024847,9.78784902,0.004787,-0.001201,0.004039
17.228819000069052,17.228819000069052,0.0,0.0,2.3727718709587995,0.0,0.0,0.08846658,0.30880899,9.77496849,0.002982,-0.000917,0.003748
17.24880599998869,17.24880599998869,0.0,0.0,2.3728489075547152,0.0,0.0,0.0805302899999999,0.29922462,9.77826465,0.003785,-0.000788,0.003862
17.268793000024743,17.268793000024743,0.0,0.0,2.3729326578406056,0.0,0.0,0.05792805,0.29503575,9.77976558,0.003694,-0.000202,0.004235
17.288780000060797,17.288780000060797,0.0,0.0,2.3730287869914815,0.0,0.0,0.0751446,0.27917298,9.76464837,0.001215,-0.000567,0.004922
17.308766000089236,17.308766000089236,0.0,0.0,2.3731298564840184,0.0,0.0,0.09190989,0.28725642,9.77871591,0.004524,-0.001146,0.005186
17.348740000044927,17.348740000044927,0.0,0.0,2.373306430161491,0.0,0.0,0.06930765,0.29219085,9.78275763,0.003726,-0.001064,0.004686
17.348740000044927,17.348740000044927,0.0,0.0,2.3733142061460937,0.0,0.0,0.06930765,0.29219085,9.78275763,0.003726,-0.001064,0.004686
17.38871400000062,17.38871400000062,0.0,0.0,2.3734961696573134,0.0,0.0,0.0691605,0.29907747,9.76404996,0.002843,-0.000262,0.004836
17.40870100003667,17.40870100003667,0.0,0.0,2.3735571011280676,0.0,0.0,0.06287229,0.28470582,9.78290478,0.004517,-0.00194,0.002972
17.42868900008034,17.42868900008034,0.0,0.0,2.3736347886870135,0.0,0.0,0.07753824,0.28860039,9.77362452,0.004439,-0.000473,0.003867
17.42868900008034,17.42868900008034,0.0,0.0,2.3736304602502356,0.0,0.0,0.07753824,0.28860039,9.77362452,0.004439,-0.000473,0.003867
17.46866300003603,17.46866300003603,0.0,0.0,2.3737857431474225,0.0,0.0,0.06900354,0.29144529,9.77661657,0.005301,-0.001103,0.003632
17.488650000072084,17.488650000072084,0.0,0.0,2.373881357142448,0.0,0.0,0.06615864,0.3005784,9.76613949,0.003181,0.001155,0.004857
17.508636999991722,17.508636999991722,0.0,0.0,2.3739718293879264,0.0,0.0,0.07888221,0.29219085,9.78620094,0.001659,-0.001619,0.004566
17.508636999991722,17.508636999991722,0.0,0.0,2.3739776049344847,0.0,0.0,0.07888221,0.29219085,9.78620094,0.001659,-0.001619,0.004566
17.54861100006383,17.54861100006383,0.0,0.0,2.3741323636026257,0.0,0.0,0.09340101,0.3037176,9.77617512,0.001296,-0.000292,0.003407
17.568597999983467,17.568597999983467,0.0,0.0,2.3742327092050193,0.0,0.0,0.07394778,0.29818476,9.77273181,0.005587,0.000191,0.005129
17.568597999983467,17.568597999983467,0.0,0.0,2.374246220323961,0.0,0.0,0.07394778,0.29818476,9.77273181,0.005587,0.000191,0.005129
17.58858500001952,17.58858500001952,0.0,0.0,2.3743136020390256,0.0,0.0,0.07155414,0.29847906,9.76913154,0.003861,-0.00068,0.003111
17.628559000091627,17.628559000091627,0.0,0.0,2.3744704541031787,0.0,0.0,0.07903917,0.2894931,9.77077962,0.005231,-0.001442,0.003562
17.64854700001888,17.64854700001888,0.0,0.0,2.3745537582036853,0.0,0.0,0.05732964,0.30297204,9.7579089,0.00245,0.002103,0.004173
17.668534000054933,17.668534000054933,0.0,0.0,2.3746349752672202,0.0,0.0,0.06720831,0.31120263,9.77901021,0.004835,-0.001651,0.004055
17.688521000090986,17.688521000090986,0.0,0.0,2.374696544702232,0.0,0.0,0.07603731,0.28650105,9.77751909,0.004077,0.000265,0.002947
17.708508000010625,17.708508000010625,0.0,0.0,2.374774531661365,0.0,0.0,0.06870924,0.2920437,9.79218504,0.002807,-0.001926,0.003894
17.74848200008273,17.74848200008273,0.0,0.0,2.374945381714128,0.0,0.0,0.07364367,0.29982303,9.75910572,0.003162,-0.000502,0.004607
17.74848200008273,17.74848200008273,0.0,0.0,2.374954898260789,0.0,0.0,0.07364367,0.29982303,9.75910572,0.003162,-0.000502,0.004607
17.788456000038423,17.788456000038423,0.0,0.0,2.3751346694139706,0.0,0.0,0.07888221,0.29429019,9.77706783,0.005834,0.00034,0.00491
17.788456000038423,17.788456000038423,0.0,0.0,2.37514587432568,0.0,0.0,0.07888221,0.29429019,9.77706783,0.005834,0.00034,0.00491
17.828429999994114,17.828429999994114,0.0,0.0,2.3753048905444487,0.0,0.0,0.06601149,0.28829628,9.76988691,0.003185,3.6e-05,0.003583
17.828429999994114,17.828429999994114,0.0,0.0,2.3752945945988495,0.0,0.0,0.06601149,0.28829628,9.76988691,0.003185,3.6e-05,0.003583
17.868405000073835,17.868405000073835,0.0,0.0,2.375463820214435,0.0,0.0,0.0577809,0.28695231,9.78021684,0.000551,-0.000109,0.004348
17.888391999993473,17.888391999993473,0.0,0.0,2.3755640006651975,0.0,0.0,0.07244685,0.30625839,9.764795520000002,0.00532,-0.000675,0.005098
17.908379000029527,17.908379000029527,0.0,0.0,2.3756397184653597,0.0,0.0,0.08038314,0.28216503,9.77766624,0.002192,0.001201,0.003734
17.92836600006558,17.92836600006558,0.0,0.0,2.3757279078753726,0.0,0.0,0.07529175,0.2977335,9.768533130000002,0.003782,-0.000483,0.004434
17.948352999985218,17.948352999985218,0.0,0.0,2.3757969376167694,0.0,0.0,0.06151851,0.29862621,9.76314744,0.004533,0.000695,0.003361
17.96834000002127,17.96834000002127,0.0,0.0,2.375868246767765,0.0,0.0,0.07753824,0.29967588,9.75880161,0.001778,0.00011,0.0035
17.988327000057325,17.988327000057325,0.0,0.0,2.375930697076158,0.0,0.0,0.0751446,0.29623257,9.76688505,0.003925,0.000231,0.00301
18.008314000093378,18.008314000093378,0.0,0.0,2.3760116025548426,0.0,0.0,0.06975891,0.2920437,9.78545538,0.003606,0.000236,0.004066
18.028301000013016,18.028301000013016,0.0,0.0,2.3760933982584183,0.0,0.0,0.0839736,0.28800198,9.78365034,0.001366,-0.000396,0.004114
18.068276000092737,18.068276000092737,0.0,0.0,2.376234160022566,0.0,0.0,0.07963758,0.30311919,9.76838598,0.001237,-0.000692,0.003073
18.088263000012375,18.088263000012375,0.0,0.0,2.3763137758070823,0.0,0.0,0.07409493,0.28111536,9.79847325,0.003225,-0.000472,0.003989
18.10825000004843,18.10825000004843,0.0,0.0,2.376390627336315,0.0,0.0,0.07095573,0.29833191,9.77123088,0.005575,-0.001669,0.003845
18.10825000004843,18.10825000004843,0.0,0.0,2.3763906038061737,0.0,0.0,0.07095573,0.29833191,9.77123088,0.005575,-0.001669,0.003845
18.14822400000412,18.14822400000412,0.0,0.0,2.3765152539152403,0.0,0.0,0.07409493,0.29293641,9.78320889,0.004967,6.3e-05,0.002282
18.14822400000412,18.14822400000412,0.0,0.0,2.3764933106289696,0.0,0.0,0.07409493,0.29293641,9.78320889,0.004967,6.3e-05,0.002282
18.188198000076227,18.188198000076227,0.0,0.0,2.3766346668953897,0.0,0.0,0.06900354,0.29474145,9.78440571,0.001443,-0.001241,0.003625
18.188198000076227,18.188198000076227,0.0,0.0,2.376636917283305,0.0,0.0,0.06900354,0.29474145,9.78440571,0.001443,-0.001241,0.003625
18.22817200003192,18.22817200003192,0.0,0.0,2.3768051695304804,0.0,0.0,0.07634142,0.28965006,9.780815250000002,-0.000173,0.00027,0.005073
18.24815900006797,18.24815900006797,0.0,0.0,2.376900694196281,0.0,0.0,0.0722997,0.29173959,9.77856876,0.003977,-0.001317,0.004901
18.268146999995224,18.268146999995224,0.0,0.0,2.3769805612635233,0.0,0.0,0.06167547,0.30161826,9.75446559,0.003976,-0.000942,0.004009
18.288134000031278,18.288134000031278,0.0,0.0,2.377082138776446,0.0,0.0,0.07275096,0.30192237,9.76913154,0.00224,-0.000668,0.005227
18.30812100006733,18.30812100006733,0.0,0.0,2.3771444275850433,0.0,0.0,0.08471916,0.29309337,9.78529842,0.004345,-0.002925,0.002995
18.32810799998697,18.32810799998697,0.0,0.0,2.3772039558697697,0.0,0.0,0.07095573,0.30806343,9.77347737,0.002933,0.00075,0.002855
18.348095000023022,18.348095000023022,0.0,0.0,2.3773063592856474,0.0,0.0,0.07364367,0.31015296,9.75566241,0.00289,-0.000749,0.005299
18.38806900009513,18.38806900009513,0.0,0.0,2.377424541811415,0.0,0.0,0.07693983,0.29862621,9.78110955,0.000978,0.000626,0.00188
18.38806900009513,18.38806900009513,0.0,0.0,2.377393814904112,0.0,0.0,0.07693983,0.29862621,9.78110955,0.000978,0.000626,0.00188
18.42804300005082,18.42804300005082,0.0,0.0,2.3775390633913807,0.0,0.0,0.07948062,0.29862621,9.78290478,0.003601,5.1e-05,0.003838
18.448030000086874,18.448030000086874,0.0,0.0,2.3776284485100287,0.0,0.0,0.06840513,0.29069973,9.77677353,0.001841,-0.000956,0.004533
18.468018000014126,18.468018000014126,0.0,0.0,2.3777023726112887,0.0,0.0,0.06452037,0.30551283,9.74728467,0.005909,-0.000552,0.003702
18.48800500005018,18.48800500005018,0.0,0.0,2.377767690351371,0.0,0.0,0.06526593,0.29862621,9.77692068,0.002815,-0.001095,0.003236
18.507992000086233,18.507992000086233,0.0,0.0,2.3778932323206394,0.0,0.0,0.08067744,0.3008727,9.76539393,0.001346,-0.001554,0.006524
18.52797900000587,18.52797900000587,0.0,0.0,2.37797142547614,0.0,0.0,0.08262963,0.29952873,9.77287896,0.002858,-0.00067,0.003904
18.547966000041924,18.547966000041924,0.0,0.0,2.3780360676628653,0.0,0.0,0.07275096,0.29907747,9.77137803,0.000243,-0.002796,0.003156
18.567953000077978,18.567953000077978,0.0,0.0,2.3781317148384886,0.0,0.0,0.07963758,0.28650105,9.77452704,0.002603,-0.00188,0.004886
18.587939999997616,18.587939999997616,0.0,0.0,2.378207109259229,0.0,0.0,0.05687838,0.30775932,9.76659075,0.001839,-0.001353,0.003745
18.60792700003367,18.60792700003367,0.0,0.0,2.378301260752492,0.0,0.0,0.07260381,0.29414304,9.76164651,0.002268,0.000275,0.004799
18.627914000069723,18.627914000069723,0.0,0.0,2.3783973797239923,0.0,0.0,0.07529175,0.2860596,9.78934014,0.004247,-0.00139,0.004899
18.64790099998936,18.64790099998936,0.0,0.0,2.378466818617193,0.0,0.0,0.06137136,0.30132396,9.77482134,0.002776,-0.000141,0.003383
18.66788900003303,18.66788900003303,0.0,0.0,2.3785732214154853,0.0,0.0,0.08382645,0.30611124,9.76224492,0.004513,0.000712,0.005485
18.687876000069082,18.687876000069082,0.0,0.0,2.378656235173409,0.0,0.0,0.0779895,0.29862621,9.78290478,0.003786,-0.001097,0.004138
18.70786299998872,18.70786299998872,0.0,0.0,2.378702705055696,0.0,0.0,0.0691605,0.30670965,9.76030254,0.001685,0.000652,0.002064
18.727850000024773,18.727850000024773,0.0,0.0,2.3788054400538536,0.0,0.0,0.06870924,0.2860596,9.77197644,0.003872,-0.00136,0.005302
18.76782400009688,18.76782400009688,0.0,0.0,2.3789512762593485,0.0,0.0,0.07110288,0.29757654,9.77496849,0.002308,-0.001458,0.003132
18.787811000016518,18.787811000016518,0.0,0.0,2.379025740059525,0.0,0.0,0.08772102,0.30746502,9.77048532,0.004405,-0.001134,0.003715
18.80779800005257,18.80779800005257,0.0,0.0,2.3790876997764077,0.0,0.0,0.0691605,0.30072555,9.763893,0.000964,-0.000549,0.003055
18.827785000088625,18.827785000088625,0.0,0.0,2.3791496925730193,0.0,0.0,0.06990606,0.29114118,9.77976558,0.000964,-0.000549,0.003055
18.827785000088625,18.827785000088625,0.0,0.0,2.3791387154784074,0.0,0.0,0.06990606,0.29114118,9.77976558,0.000964,-0.000549,0.003055
18.847772000008263,18.847772000008263,0.0,0.0,2.3791998749462913,0.0,0.0,0.06331374,0.28305774,9.77197644,0.001784,-0.001532,0.002941
18.887747000087984,18.887747000087984,0.0,0.0,2.3793516956055374,0.0,0.0,0.07349652,0.28276344,9.765246780000002,0.00389,-0.002332,0.004082
18.907734000007622,18.907734000007622,0.0,0.0,2.379407534595506,0.0,0.0,0.09176274,0.28709946,9.78215922,0.002985,0.00012,0.00272
18.927721000043675,18.927721000043675,0.0,0.0,2.379477547126605,0.0,0.0,0.07559586,0.29474145,9.76913154,0.003465,-0.000338,0.003503
18.94770800007973,18.94770800007973,0.0,0.0,2.3795615751823274,0.0,0.0,0.0754389,0.29578131,9.76404996,0.004752,-0.001704,0.004276
18.967694999999367,18.967694999999367,0.0,0.0,2.3796385736880783,0.0,0.0,0.06077295,0.28800198,9.77946147,0.002613,-0.000273,0.003879
18.98768200003542,18.98768200003542,0.0,0.0,2.3797279197425514,0.0,0.0,0.06990606,0.29458449,9.77168214,0.004928,-0.001406,0.004564
19.007669000071473,19.007669000071473,0.0,0.0,2.3798028169701926,0.0,0.0,0.07963758,0.29309337,9.78515127,0.00302,-0.000927,0.003745
19.02765599999111,19.02765599999111,0.0,0.0,2.3798940411279776,0.0,0.0,0.08217837,0.28441152,9.78201207,0.00137,0.000449,0.004662
