timestamp,x,y,theta,vx,vy,bias_accel_x,bias_accel_y,bias_angular_velocity,accel_x,accel_y,accel_z,gyro_x,gyro_y,gyro_z,cov_trace
1757069190.0465152,0.0,0.0,0.0,0.0,0.0,-0.9029840556521739,-0.5590163940118578,0.012360802371541503,0.40461345,-0.26599815,9.7724277,0.003371,0.000609,0.003735,3.13
1757069190.0675476,0.0,0.0,0.0,0.0,0.0,-0.9029840556521739,-0.5590163940118578,0.0005885649118820575,0.39682431,-0.26989272000000003,9.77287896,0.002656,0.000966,0.004506,0.7968449676101571
1757069190.0878334,0.0,0.0,0.0,0.0,0.0,-0.9029840556521739,-0.5590163940118578,0.0003008389641010272,0.41268708000000004,-0.25776756,9.77871591,0.002656,0.000966,0.004506,0.5260829047254121
1757069190.108578,0.0,0.0,0.0,0.0,0.0,-0.9029840556521739,-0.5590163940118578,0.00020149115521907087,0.40969503,-0.26075961000000003,9.77452704,0.003847,-0.000198,0.003653,0.4110416781649634
1757069190.128673,0.0,0.0,0.0,0.0,0.0,-0.9029840556521739,-0.5590163940118578,0.0001509268666403701,0.39443067000000004,-0.2576106,9.767934720000001,0.005073,0.000382,0.002152,0.3475830592916326
1757069190.1490872,0.0,0.0,0.0,0.0,0.0,-0.9029840556521739,-0.5590163940118578,0.00012037318105489759,0.40012047,-0.25851312000000004,9.775566900000001,0.003958,-0.000578,0.004452,0.3066779118423283
1757069190.17003,0.0,0.0,0.0,0.0,0.0,-0.9029840556521739,-0.5590163940118578,9.975902525624015e-05,0.38634723000000004,-0.24892875000000003,9.78261048,0.003445,-0.000194,0.003688,0.2790280828120415
1757069190.1912396,0.0,0.0,0.0,0.0,0.0,-0.9029840556521739,-0.5590163940118578,8.488349192057997e-05,0.38933928,-0.25806186000000003,9.76464837,0.004423,0.000814,0.004172,0.2586131882216547
1757069190.2117274,0.0,0.0,0.0,0.0,0.0,-0.9029840556521739,-0.5590163940118578,7.359879882137943e-05,0.40206285,-0.25342173,9.76120506,0.003692,0.000209,0.00256,0.24308943950059972
1757069190.2319057,0.0,0.0,0.0,0.0,0.0,-0.9029840556521739,-0.5590163940118578,6.476010659865274e-05,0.40041477000000003,-0.24788889,9.765246780000002,0.004891,-3.6e-05,0.002745,0.23061409375973063
1757069190.2530594,0.0,0.0,0.0,0.0,0.0,-0.9029840556521739,-0.5590163940118578,5.754209991379443e-05,0.39816828,-0.25925868,9.783208890000001,0.003639,-0.001184,0.003346,0.22116534004506222
1757069190.2756855,0.0,0.0,0.0,0.0,0.0,-0.9029840556521739,-0.5590163940118578,5.164214860758679e-05,0.39996351,-0.25611948,9.77766624,0.00177,-0.001739,0.003267,0.21645394876246127
1757069190.3010647,0.0,0.0,0.0,0.0,0.0,-0.9029840556521739,-0.5590163940118578,4.242182026046487e-05,0.40715424,-0.26315325,9.768238830000001,0.003698,-0.000612,0.004386,0.19988137874515213
1757069190.3218794,0.0,0.0,0.0,0.0,0.0,-0.9029840556521739,-0.5590163940118578,3.8743081748119096e-05,0.39772683000000003,-0.25985709,9.76659075,0.001576,-0.000382,0.004479,0.1948821954275275
1757069190.3426647,0.0,0.0,0.0,0.0,0.0,-0.9029840556521739,-0.5590163940118578,3.550913374960926e-05,0.39876669,-0.26779338,9.77706783,0.002911,0.000951,0.004531,0.190670941167786
1757069190.3651845,0.0,0.0,0.0,0.0,0.0,-0.9029840556521739,-0.5590163940118578,3.263818276757199e-05,0.40280841,-0.25222491,9.77407578,0.001289,-0.001316,0.004321,0.18694585215790824
1757069190.3860562,0.0,0.0,0.0,0.0,0.0,-0.9029840556521739,-0.5590163940118578,3.0109332142188084e-05,0.39756987000000005,-0.2544714,9.7692885,0.002399,-0.001296,0.004115,0.18319319572194315
1757069190.406969,0.0,0.0,0.0,0.0,0.0,-0.9029840556521739,-0.5590163940118578,2.7844379560078723e-05,0.40940073,-0.25387299,9.78574968,0.00291,-0.000224,0.006682,0.18030879081094883
1757069190.4282393,0.0,0.0,0.0,0.0,0.0,-0.9029840556521739,-0.5590163940118578,2.5795967404234133e-05,0.40461345,-0.25581537,9.77781339,0.004103,0.000668,0.003321,0.17776623222072654
1757069190.4484808,0.0,0.0,0.0,0.0,0.0,-0.9029840556521739,-0.5590163940118578,2.394032775742292e-05,0.40925358,-0.25162650000000003,9.76584519,0.003682,0.000272,0.005657,0.1753314178131945
1757069190.4693704,0.0,0.0,0.0,0.0,0.0,-0.9029840556521739,-0.5590163940118578,2.224897173333268e-05,0.41553198,-0.26090676,9.779167170000001,0.002292,-0.000364,0.004253,0.17319619625450097
1757069190.4894767,0.0,0.0,0.0,0.0,0.0,-0.9029840556521739,-0.5590163940118578,2.0691614605477665e-05,0.40371093,-0.24548544000000003,9.77677353,0.00339,0.000812,0.003683,0.17140044075012512
1757069190.510077,0.0,0.0,0.0,0.0,0.0,-0.9029840556521739,-0.5590163940118578,1.927513581846876e-05,0.39472497000000006,-0.26569404,9.780658290000002,0.004108,-0.000642,0.004344,0.16932510741825613
1757069190.5305004,0.0,0.0,0.0,0.0,0.0,-0.9029840556521739,-0.5590163940118578,1.7951252695600472e-05,0.39981636000000004,-0.26061246,9.76809168,0.004006,0.000677,0.003832,0.16813971084656665
1757069190.551772,0.0,0.0,0.0,0.0,0.0,-0.9029840556521739,-0.5590163940118578,1.6755464502375218e-05,0.40985199,-0.25162650000000003,9.7869465,0.004821,4.2e-05,0.003074,0.16598685799851778
1757069190.5740783,0.0,0.0,0.0,0.0,0.0,-0.9029840556521739,-0.5590163940118578,1.5653140453902375e-05,0.4047606,-0.26554689,9.78634809,0.002143,-0.000668,0.003559,0.16884455471457946
1757069190.5954776,0.0,0.0,0.0,0.0,0.0,-0.9029840556521739,-0.5590163940118578,1.4632321610955984e-05,0.40625172,-0.25746345000000004,9.76972995,0.003476,0.000231,0.003541,0.16791651053497803
1757069190.6216362,0.0,0.0,0.0,0.0,0.0,-0.9029840556521739,-0.5590163940118578,1.2801985852946067e-05,0.40565331,-0.26225073,9.78529842,0.003963,-0.000605,0.005036,0.16133901513027588
1757069190.6424108,0.0,0.0,0.0,0.0,0.0,-0.9029840556521739,-0.5590163940118578,1.1982907094648103e-05,0.40581027000000003,-0.26061246,9.771682140000001,0.001783,0.000187,0.004585,0.16035550811597682
1757069190.6632485,0.0,0.0,0.0,0.0,0.0,-0.9029840556521739,-0.5590163940118578,1.1220784543492411e-05,0.39323385000000005,-0.25312743,9.780815250000002,0.003124,-0.000414,0.006578,0.15940146244062978
1757069190.6857958,0.0,0.0,0.0,0.0,0.0,-0.9029840556521739,-0.5590163940118578,1.0501174922523648e-05,0.39727557,-0.26030835,9.76599234,0.003727,0.001206,0.00194,0.15881531872805008
1757069190.7060099,0.0,0.0,0.0,0.0,0.0,-0.9029840556521739,-0.5590163940118578,9.840791073058765e-06,0.40700709,-0.25387299,9.77781339,0.00286,-1.8e-05,0.004625,0.1574943391125406
1757069190.7263222,0.0,0.0,0.0,0.0,0.0,-0.9029840556521739,-0.5590163940118578,9.223956359264938e-06,0.40206285,-0.25207776000000004,9.772133400000001,0.001711,-0.000148,0.003584,0.15689107827416357
1757069190.746617,0.0,0.0,0.0,0.0,0.0,-0.9029840556521739,-0.5590163940118578,8.647438898235334e-06,0.40057173,-0.26779338,9.779314320000001,0.003271,-0.000511,0.003126,0.15622270508307506
1757069190.7677515,0.0,0.0,0.0,0.0,0.0,-0.9029840556521739,-0.5590163940118578,8.1077367062711e-06,0.40835106000000004,-0.26465418,9.77333022,0.002542,-0.000465,0.00499,0.15558940016416622
1757069190.788665,0.0,0.0,0.0,0.0,0.0,-0.9029840556521739,-0.5590163940118578,7.603016315333343e-06,0.40521186000000003,-0.24863445,9.78844743,0.003494,-0.000296,0.005159,0.15494369991362494
1757069190.8099318,0.0,0.0,0.0,0.0,0.0,-0.9029840556521739,-0.5590163940118578,7.127935040644673e-06,0.40416219000000003,-0.24264054000000002,9.77287896,0.002652,0.000198,0.003441,0.15447769596053018
1757069190.8319817,0.0,0.0,0.0,0.0,0.0,-0.9029840556521739,-0.5590163940118578,6.684585300876864e-06,0.39802113,-0.26270199,9.765246780000002,0.00493,0.000562,0.004435,0.15379307469664902
1757069190.8521674,0.0,0.0,0.0,0.0,0.0,-0.9029840556521739,-0.5590163940118578,6.270106150410324e-06,0.40925358,-0.26135802,9.76044969,0.001753,0.000427,0.005201,0.15325062033699818
1757069190.872695,0.0,0.0,0.0,0.0,0.0,-0.9029840556521739,-0.5590163940118578,5.881669629277277e-06,0.40925358,-0.26135802,9.76044969,0.001753,0.000427,0.005201,0.15279118066820577
1757069190.9003851,0.0,0.0,0.0,0.0,0.0,-0.9029840556521739,-0.5590163940118578,5.172870544579968e-06,0.40685013000000003,-0.25193061,9.78215922,0.002916,-0.000216,0.004548,0.1515580050530691
1757069190.9206386,0.0,0.0,0.0,0.0,0.0,-0.9029840556521739,-0.5590163940118578,4.854743897491561e-06,0.40296537000000004,-0.24399432,9.7781175,0.003148,0.000144,0.004018,0.15138556158646552
1757069190.9415314,0.0,0.0,0.0,0.0,0.0,-0.9029840556521739,-0.5590163940118578,4.55556945658142e-06,0.3930867,-0.24624081,9.7692885,0.002755,-0.001055,0.00312,0.1511044623049765
1757069190.9641962,0.0,0.0,0.0,0.0,0.0,-0.9029840556521739,-0.5590163940118578,4.272972716266181e-06,0.40400523,-0.26554689,9.77108373,0.004405,-0.00021,0.006138,0.1508691735705166
1757069190.9852204,0.0,0.0,0.0,0.0,0.0,-0.9029840556521739,-0.5590163940118578,4.009892119302255e-06,0.39892365,-0.26779338,9.76284333,0.001972,-0.001416,0.005581,0.15027869792731108
1757069191.0061457,0.0,0.0,0.0,0.0,0.0,-0.9029840556521739,-0.5590163940118578,3.7627369049697265e-06,0.38844657000000005,-0.25088094,9.77677353,0.00304,-0.000599,0.003155,0.15003973048051
1757069191.0263216,0.0,0.0,0.0,0.0,0.0,-0.9029840556521739,-0.5590163940118578,3.532308232105008e-06,0.39921795000000004,-0.25387299,9.767189160000001,0.003353,-0.000803,0.003635,0.14959017242279346
1757069191.047206,0.0,0.0,0.0,0.0,0.0,-0.9029840556521739,-0.5590163940118578,3.31617233177622e-06,0.39952206,-0.25552107,9.76733631,0.001725,-0.000152,0.004,0.14935294950961675
1757069191.0681412,0.0,0.0,0.0,0.0,0.0,-0.9029840556521739,-0.5590163940118578,3.112726334590867e-06,0.39412656000000007,-0.25387299,9.76988691,0.003987,-0.000238,0.00453,0.14915943509883
1757069191.088191,0.0,0.0,0.0,0.0,0.0,-0.9029840556521739,-0.5590163940118578,3.112726334590867e-06,0.39412656000000007,-0.25387299,9.76988691,0.003987,-0.000238,0.00453,0.14915943509883
1757069191.1096585,0.0,0.0,0.0,0.0,0.0,-0.9029840556521739,-0.5590163940118578,2.911911698117449e-06,0.39292974,-0.24668226000000004,9.78560253,0.001993,0.000117,0.004177,0.15329745899005873
1757069191.133497,0.0,0.0,0.0,0.0,0.0,-0.9029840556521739,-0.5590163940118578,2.5561678754137534e-06,0.40999914,-0.25611948,9.7812567,0.002483,0.00049,0.003948,0.14819389675032657
1757069191.1538796,0.0,0.0,0.0,0.0,0.0,-0.9029840556521739,-0.5590163940118578,2.3985509252334435e-06,0.39667716000000003,-0.25657074,9.78261048,0.003402,-0.000547,0.004277,0.14784316661074562
1757069191.1747243,0.0,0.0,0.0,0.0,0.0,-0.9029840556521739,-0.5590163940118578,2.2496148222734665e-06,0.40505490000000005,-0.25581537,9.77721498,0.003153,-0.000297,0.004043,0.14802751839434905
1757069191.1951797,0.0,0.0,0.0,0.0,0.0,-0.9029840556521739,-0.5590163940118578,2.1115650492517077e-06,0.41029344,-0.25911153,9.76419711,0.001665,-9.7e-05,0.004492,0.15067397036313043
1757069191.2157521,0.0,0.0,0.0,0.0,0.0,-0.9029840556521739,-0.5590163940118578,1.8646326101010627e-06,0.40296537000000004,-0.25896438000000005,9.77437008,0.000902,-1.2e-05,0.003448,0.14703134047755234
1757069191.2384334,0.0,0.0,0.0,0.0,0.0,-0.9029840556521739,-0.5590163940118578,1.7515089285853335e-06,0.39667716000000003,-0.25521696000000005,9.771829290000001,0.004051,-7.4e-05,0.005407,0.14722065171417642
1757069191.2590294,0.0,0.0,0.0,0.0,0.0,-0.9029840556521739,-0.5590163940118578,1.6459139090157067e-06,0.41029344,-0.25327458,9.76209777,0.00422,-0.000199,0.003295,0.14684420578675172
1757069191.2791202,0.0,0.0,0.0,0.0,0.0,-0.9029840556521739,-0.5590163940118578,1.5464718703748662e-06,0.40311252,-0.26105391,9.77766624,0.005508,-0.000577,0.002758,0.1467830873089056
1757069191.2999887,0.0,0.0,0.0,0.0,0.0,-0.9029840556521739,-0.5590163940118578,1.4529201382013282e-06,0.39502908,-0.25162650000000003,9.7695828,0.003942,3.8e-05,0.004359,0.14664748014479706
1757069191.3200033,0.0,0.0,0.0,0.0,0.0,-0.9029840556521739,-0.5590163940118578,1.3649065243839007e-06,0.40117014,-0.26284914,9.77601816,0.004488,-0.001997,0.004084,0.1465144409439599
1757069191.3403645,0.0,0.0,0.0,0.0,0.0,-0.9029840556521739,-0.5590163940118578,1.2817534750674565e-06,0.41149026,-0.26105391,9.77721498,0.003782,-0.000234,0.003634,0.14647641466598793
1757069191.3616304,0.0,0.0,0.0,0.0,0.0,-0.9029840556521739,-0.5590163940118578,1.2026037835551255e-06,0.39832524,-0.25057683000000003,9.77092677,0.002487,-3.5e-05,0.005006,0.14655455995103475
1757069191.381648,0.0,0.0,0.0,0.0,0.0,-0.9029840556521739,-0.5590163940118578,1.12954125333279e-06,0.40117014,-0.26420292,9.77452704,0.002473,-0.001626,0.005595,0.14590313863320478
1757069191.402019,0.0,0.0,0.0,0.0,0.0,-0.9029840556521739,-0.5590163940118578,1.060970556006705e-06,0.39383226000000005,-0.25701219000000003,9.78275763,0.004043,-0.001536,0.00675,0.14591932041336886
1757069191.4220347,0.0,0.0,0.0,0.0,0.0,-0.9029840556521739,-0.5590163940118578,9.964959842539608e-07,0.3990708,-0.2576106,9.77797035,0.002442,-0.000249,0.004783,0.14588428808188045
1757069191.4426365,0.0,0.0,0.0,0.0,0.0,-0.9029840556521739,-0.5590163940118578,9.358304852269381e-07,0.40730139000000004,-0.25461855,9.77077962,0.001374,-0.000129,0.003889,0.1458218705466778
1757069191.4631972,0.0,0.0,0.0,0.0,0.0,-0.9029840556521739,-0.5590163940118578,8.788507075648778e-07,0.40176855,-0.25506981,9.771829290000001,0.003375,-0.000975,0.00508,0.14570648036153724
1757069191.4841323,0.0,0.0,0.0,0.0,0.0,-0.9029840556521739,-0.5590163940118578,8.249787051557923e-07,0.40835106000000004,-0.25552107,9.771682140000001,0.002586,-0.000903,0.003558,0.14574931067152233
1757069191.5049248,0.0,0.0,0.0,0.0,0.0,-0.9029840556521739,-0.5590163940118578,7.747446350778185e-07,0.39772683000000003,-0.25820901,9.780815250000002,0.001567,0.000534,0.00277,0.14543866266713162
1757069191.5252657,0.0,0.0,0.0,0.0,0.0,-0.9029840556521739,-0.5590163940118578,7.275102252570257e-07,0.40325967,-0.25327458,9.771378030000001,0.003351,-0.000527,0.002908,0.14544033855979624
1757069191.5453107,0.0,0.0,0.0,0.0,0.0,-0.9029840556521739,-0.5590163940118578,6.829785411856572e-07,0.38620008,-0.25552107,9.771525180000001,0.003458,-0.000298,0.004265,0.14544986115609573
1757069191.5663004,0.0,0.0,0.0,0.0,0.0,-0.9029840556521739,-0.5590163940118578,6.410437952033414e-07,0.39952206,-0.27153099,9.764942670000002,0.001281,0.000115,0.005332,0.14539790582590426
1757069191.586336,0.0,0.0,0.0,0.0,0.0,-0.9029840556521739,-0.5590163940118578,6.019478583276578e-07,0.39532338,-0.25147935000000005,9.78515127,0.001901,0.000646,0.004526,0.1451353693629987
1757069191.6066792,0.0,0.0,0.0,0.0,0.0,-0.9029840556521739,-0.5590163940118578,6.019478583276578e-07,0.39532338,-0.25147935000000005,9.78515127,0.001901,0.000646,0.004526,0.1451353693629987
1757069191.6269858,0.0,0.0,0.0,0.0,0.0,-0.9029840556521739,-0.5590163940118578,5.620818386541315e-07,0.40356378000000004,-0.25701219000000003,9.78245352,0.004198,-4.5e-05,0.004325,0.1466014774487865
1757069191.6483638,0.0,0.0,0.0,0.0,0.0,-0.9029840556521739,-0.5590163940118578,4.938984409502764e-07,0.39352815,-0.26165232000000005,9.77437008,0.003877,0.001224,0.003796,0.14432752696902496
1757069191.6687765,0.0,0.0,0.0,0.0,0.0,-0.9029840556521739,-0.5590163940118578,4.64213573915548e-07,0.41164722000000004,-0.25282332,9.76972995,0.004507,-0.000709,0.005034,0.14424762200823849
1757069191.689745,0.0,0.0,0.0,0.0,0.0,-0.9029840556521739,-0.5590163940118578,4.3594817650761995e-07,0.40221,-0.25820901,9.76688505,0.002556,-0.001261,0.004516,0.1449821806752143
1757069191.711018,0.0,0.0,0.0,0.0,0.0,-0.9029840556521739,-0.5590163940118578,4.0961988230625427e-07,0.38784816000000005,-0.24892875000000003,9.771525180000001,0.002522,-0.000623,0.004959,0.14867418296740115
1757069191.7316961,0.0,0.0,0.0,0.0,0.0,-0.9029840556521739,-0.5590163940118578,3.849041349766037e-07,0.40057173,-0.26121087000000004,9.77797035,0.003763,-0.001568,0.004696,0.14903196247709635
1757069191.752476,0.0,0.0,0.0,0.0,0.0,-0.9029840556521739,-0.5590163940118578,3.6159116387234566e-07,0.40057173,-0.26121087000000004,9.77797035,0.003763,-0.001568,0.004696,0.14486367195536384
1757069191.776249,0.0,0.0,0.0,0.0,0.0,-0.9029840556521739,-0.5590163940118578,3.187131133735034e-07,0.39952206,-0.26165232000000005,9.7812567,0.002846,-0.001057,0.003821,0.14453476120760528
1757069191.7965944,0.0,0.0,0.0,0.0,0.0,-0.9029840556521739,-0.5590163940118578,3.187131133735034e-07,0.39952206,-0.26165232000000005,9.7812567,0.002846,-0.001057,0.003821,0.14453476120760528
1757069191.822702,0.0,0.0,0.0,0.0,0.0,-0.9029840556521739,-0.5590163940118578,2.8003628609797586e-07,0.40985199,-0.25372584000000004,9.77317326,0.003243,0.000169,0.003805,0.14435597438143022
1757069191.8429606,0.0,0.0,0.0,0.0,0.0,-0.9029840556521739,-0.5590163940118578,2.631673108854974e-07,0.40625172,-0.24758478,9.775419750000001,0.004232,-0.000371,0.003366,0.14412466059817403
1757069191.8629775,0.0,0.0,0.0,0.0,0.0,-0.9029840556521739,-0.5590163940118578,2.4728598475229515e-07,0.40969503,-0.24533829000000001,9.77437008,0.003192,0.001253,0.004704,0.14451748561764396
1757069191.8830175,0.0,0.0,0.0,0.0,0.0,-0.9029840556521739,-0.5590163940118578,2.3224262806401433e-07,0.39532338,-0.24983127000000002,9.77437008,0.003229,5e-06,0.004514,0.14476036701325234
1757069191.9038818,0.0,0.0,0.0,0.0,0.0,-0.9029840556521739,-0.5590163940118578,2.1819750044731632e-07,0.39892365,-0.25267617,9.77632227,0.003627,0.002253,0.00343,0.1445494018026046
1757069191.923993,0.0,0.0,0.0,0.0,0.0,-0.9029840556521739,-0.5590163940118578,2.0497891509470989e-07,0.39952206,-0.25252902000000005,9.78275763,0.004554,0.000183,0.003017,0.14462336808205004
1757069191.9446259,0.0,0.0,0.0,0.0,0.0,-0.9029840556521739,-0.5590163940118578,1.9251412888566698e-07,0.40400523,-0.25925868,9.7667379,0.002607,-0.001012,0.004063,0.14468684883099456
1757069191.9650452,0.0,0.0,0.0,0.0,0.0,-0.9029840556521739,-0.5590163940118578,1.8067319056624496e-07,0.39772683000000003,-0.25506981,9.76568823,0.002846,-0.000305,0.003573,0.1448700347489828
1757069191.985167,0.0,0.0,0.0,0.0,0.0,-0.9029840556521739,-0.5590163940118578,1.696967569000649e-07,0.40804695,-0.25657074,9.77422293,0.002975,0.00021,0.00323,0.14445364569539615
1757069192.0059023,0.0,0.0,0.0,0.0,0.0,-0.9029840556521739,-0.5590163940118578,1.5938444736342129e-07,0.39952206,-0.26704782,9.767493270000001,0.003763,-0.00018,0.004849,0.14456357809905865
1757069192.026048,0.0,0.0,0.0,0.0,0.0,-0.9029840556521739,-0.5590163940118578,1.496851983414021e-07,0.40670298000000005,-0.25177365,9.768690090000002,0.004439,9.9e-05,0.003001,0.14462004003517945
1757069192.0462134,0.0,0.0,0.0,0.0,0.0,-0.9029840556521739,-0.5590163940118578,1.4053851432395553e-07,0.40206285,-0.26121087000000004,9.77317326,0.002354,-0.00123,0.004814,0.14469993816307639
1757069192.0676985,0.0,0.0,0.0,0.0,0.0,-0.9029840556521739,-0.5590163940118578,1.319774928173671e-07,0.39832524,-0.25282332,9.77347737,0.003244,-0.001659,0.004279,0.14458513234005038
1757069192.088304,0.0,0.0,0.0,0.0,0.0,-0.9029840556521739,-0.5590163940118578,1.2393320494174878e-07,0.40012047,-0.25611948,9.77273181,0.003088,-0.000403,0.003438,0.14462479445066295
1757069192.1088507,0.0,0.0,0.0,0.0,0.0,-0.9029840556521739,-0.5590163940118578,1.1634529842068258e-07,0.39742272,-0.25461855,9.768533130000002,0.003283,-0.001839,0.00523,0.14472621440295996
1757069192.1299686,0.0,0.0,0.0,0.0,0.0,-0.9029840556521739,-0.5590163940118578,1.0924752373477688e-07,0.41149026,-0.25102809000000004,9.77077962,0.003727,-0.000304,0.004222,0.14460514353350523
1757069192.150394,0.0,0.0,0.0,0.0,0.0,-0.9029840556521739,-0.5590163940118578,1.0255803609197664e-07,0.40940073,-0.27317907,9.77646942,0.002649,-0.00185,0.003186,0.14472240913211776
1757069192.1748497,0.0,0.0,0.0,0.0,0.0,-0.9029840556521739,-0.5590163940118578,9.036935456387839e-08,0.39832524,-0.25566822,9.775723860000001,0.003563,-0.000138,0.002546,0.1444450838747307
1757069192.1953056,0.0,0.0,0.0,0.0,0.0,-0.9029840556521739,-0.5590163940118578,8.485823321401186e-08,0.39038895,-0.25012557,9.772133400000001,0.00269,0.001033,0.002439,0.144674184967374
1757069192.2163727,0.0,0.0,0.0,0.0,0.0,-0.9029840556521739,-0.5590163940118578,7.967989179007085e-08,0.40640868,-0.24983127000000002,9.77677353,0.003862,3.9e-05,0.003356,0.14471956022675597
1757069192.236809,0.0,0.0,0.0,0.0,0.0,-0.9029840556521739,-0.5590163940118578,7.482113965310542e-08,0.40535900999999996,-0.2544714,9.772280550000001,0.005496,0.00113,0.004473,0.14471847703177437
1757069192.257219,0.0,0.0,0.0,0.0,0.0,-0.9029840556521739,-0.5590163940118578,7.025106560042479e-08,0.39936510000000003,-0.25267617,9.78185511,0.003062,0.0009,0.002702,0.14478158389767984
1757069192.2786148,0.0,0.0,0.0,0.0,0.0,-0.9029840556521739,-0.5590163940118578,6.591461883742852e-08,0.40146444000000003,-0.26315325,9.7724277,0.003307,-0.000278,0.004206,0.1450065184363945
1757069192.2995975,0.0,0.0,0.0,0.0,0.0,-0.9029840556521739,-0.5590163940118578,6.189128706482484e-08,0.40894947000000004,-0.25057683000000003,9.78021684,0.003971,-0.000336,0.004081,0.14465998812361033
1757069192.3205788,0.0,0.0,0.0,0.0,0.0,-0.9029840556521739,-0.5590163940118578,5.811010921847453e-08,0.39832524,-0.25117524,9.771682140000001,0.004436,-0.000811,0.004279,0.14480369189806044
1757069192.3408403,0.0,0.0,0.0,0.0,0.0,-0.9029840556521739,-0.5590163940118578,5.4556117267804934e-08,0.39787398,-0.26360451,9.77302611,0.003108,-0.001406,0.00336,0.14487035269721685
1757069192.3623803,0.0,0.0,0.0,0.0,0.0,-0.9029840556521739,-0.5590163940118578,5.4556117267804934e-08,0.39488193,-0.25806186000000003,9.77333022,0.003108,-0.001406,0.00336,0.15131119761308726
1757069192.3828592,0.0,0.0,0.0,0.0,0.0,-0.9029840556521739,-0.5590163940118578,4.798643633259277e-08,0.4016115900000001,-0.25297047,9.77781339,0.001908,-0.000236,0.004031,0.1444646678516753
1757069192.4035645,0.0,0.0,0.0,0.0,0.0,-0.9029840556521739,-0.5590163940118578,4.506437508004398e-08,0.3905361,-0.26344755000000003,9.78245352,0.004035,-0.000755,0.003426,0.1447324411708894
1757069192.4242573,0.0,0.0,0.0,0.0,0.0,-0.9029840556521739,-0.5590163940118578,4.2312599207012375e-08,0.40325967,-0.25088094,9.780511140000002,0.002427,0.000153,0.003777,0.14496319432254584
1757069192.4451776,0.0,0.0,0.0,0.0,0.0,-0.9029840556521739,-0.5590163940118578,3.972949483061708e-08,0.40461345,-0.26270199,9.775871010000001,0.002553,-0.001202,0.004443,0.14499676821449517
1757069192.4652154,0.0,0.0,0.0,0.0,0.0,-0.9029840556521739,-0.5590163940118578,3.730430759334161e-08,0.40236696,-0.25147935000000005,9.77960862,0.002271,0.000134,0.003486,0.14503238075276603
1757069192.4855728,0.0,0.0,0.0,0.0,0.0,-0.9029840556521739,-0.5590163940118578,3.499415685056999e-08,0.39742272,-0.265851,9.78141366,0.002892,-0.000305,0.004192,0.14536753297209537
1757069192.50651,0.0,0.0,0.0,0.0,0.0,-0.9029840556521739,-0.5590163940118578,3.285748292233079e-08,0.40086603,-0.26135802,9.77960862,0.002402,-0.000238,0.003849,0.14493236147126642
1757069192.5290468,0.0,0.0,0.0,0.0,0.0,-0.9029840556521739,-0.5590163940118578,3.077357678511868e-08,0.39577464,-0.24294465,9.77826465,0.001394,0.000289,0.004286,0.14584812328168123
1757069192.5549812,0.0,0.0,0.0,0.0,0.0,-0.9029840556521739,-0.5590163940118578,2.7133669190855916e-08,0.40864536,-0.25581537,9.77751909,0.004346,0.001448,0.005146,0.14487813353264303
1757069192.5758054,0.0,0.0,0.0,0.0,0.0,-0.9029840556521739,-0.5590163940118578,2.5486047598966808e-08,0.39816828,-0.25312743,9.77437008,0.003123,0.000105,0.003454,0.1451547892073954
1757069192.5968645,0.0,0.0,0.0,0.0,0.0,-0.9029840556521739,-0.5590163940118578,2.3936825104607393e-08,0.41598324,-0.25207776000000004,9.77362452,0.002898,0.000669,0.003779,0.14527642655846973
1757069192.6171496,0.0,0.0,0.0,0.0,0.0,-0.9029840556521739,-0.5590163940118578,2.2479684854028346e-08,0.40655583,-0.25597233,9.77257485,0.00392,0.000416,0.004726,0.14535186791664148
1757069192.6393843,0.0,0.0,0.0,0.0,0.0,-0.9029840556521739,-0.5590163940118578,2.109230499524587e-08,0.39742272,-0.26030835,9.77377167,0.003213,0.000444,0.003234,0.14566290878332383
1757069192.6602767,0.0,0.0,0.0,0.0,0.0,-0.9029840556521739,-0.5590163940118578,1.9808604580387172e-08,0.40789980000000003,-0.24279750000000003,9.79428438,0.003675,-0.000795,0.003609,0.14524091077030055
1757069192.6811945,0.0,0.0,0.0,0.0,0.0,-0.9029840556521739,-0.5590163940118578,1.8598726443887903e-08,0.41463927,-0.25506981,9.78156081,0.003047,-0.000296,0.002529,0.14548531461883968
1757069192.702055,0.0,0.0,0.0,0.0,0.0,-0.9029840556521739,-0.5590163940118578,1.7466026247489962e-08,0.40385808000000006,-0.24653511000000003,9.77287896,0.004116,-0.001584,0.002877,0.14546038836904285
1757069192.7223847,0.0,0.0,0.0,0.0,0.0,-0.9029840556521739,-0.5590163940118578,1.6401408640335157e-08,0.40535900999999996,-0.24952716000000003,9.77677353,0.003536,-0.001723,0.003735,0.1455558844300426
1757069192.7433307,0.0,0.0,0.0,0.0,0.0,-0.9029840556521739,-0.5590163940118578,1.5398000812760386e-08,0.40340682,-0.26360451,9.775871010000001,0.002007,-0.001054,0.0038,0.14567954694842108
1757069192.7642813,0.0,0.0,0.0,0.0,0.0,-0.9029840556521739,-0.5590163940118578,1.4458850514320746e-08,0.40505490000000005,-0.2513322,9.76883724,0.004326,-0.001192,0.00477,0.14561766976471568
1757069192.7844794,0.0,0.0,0.0,0.0,0.0,-0.9029840556521739,-0.5590163940118578,1.3575926583554544e-08,0.40999914,-0.25162650000000003,9.78036399,0.004256,-0.000116,0.003131,0.14571477029467775
1757069192.8052166,0.0,0.0,0.0,0.0,0.0,-0.9029840556521739,-0.5590163940118578,1.2747156743552752e-08,0.3962259,-0.25267617,9.771682140000001,0.00286,-0.00083,0.004068,0.14574974243275612
1757069192.8255246,0.0,0.0,0.0,0.0,0.0,-0.9029840556521739,-0.5590163940118578,1.1968606647651387e-08,0.40521186000000003,-0.25492266,9.764795520000002,0.001484,0.000993,0.003253,0.14581057074870207
1757069192.8463697,0.0,0.0,0.0,0.0,0.0,-0.9029840556521739,-0.5590163940118578,1.123597033990198e-08,0.40236696,-0.26001405,9.779167170000001,0.001418,-0.000251,0.004596,0.14590329152013107
1757069192.8666296,0.0,0.0,0.0,0.0,0.0,-0.9029840556521739,-0.5590163940118578,1.0548915432866088e-08,0.39472497000000006,-0.2576106,9.78290478,0.001434,0.00031,0.00342,0.14590374645009696
1757069192.887459,0.0,0.0,0.0,0.0,0.0,-0.9029840556521739,-0.5590163940118578,9.901754316889826e-09,0.40789980000000003,-0.26180928000000003,9.78170796,0.002297,-0.001074,0.003488,0.14603041152310348
1757069192.9082391,0.0,0.0,0.0,0.0,0.0,-0.9029840556521739,-0.5590163940118578,9.296447723965449e-09,0.39952206,-0.26150517,9.77991273,0.001442,0.001398,0.003584,0.14596943677794633
1757069192.9300041,0.0,0.0,0.0,0.0,0.0,-0.9029840556521739,-0.5590163940118578,8.725787164350542e-09,0.4090966200000001,-0.25820901,9.772280550000001,0.004128,-3.6e-05,0.003981,0.1499065714048433
1757069192.9506,0.0,0.0,0.0,0.0,0.0,-0.9029840556521739,-0.5590163940118578,8.19286360433536e-09,0.4090966200000001,-0.25820901,9.772280550000001,0.004128,-3.6e-05,0.003981,0.14604748279738144
1757069192.974831,0.0,0.0,0.0,0.0,0.0,-0.9029840556521739,-0.5590163940118578,7.216900217752787e-09,0.39772683000000003,-0.26704782,9.77003406,0.003683,0.001141,0.001887,0.14609028269795793
1757069192.995361,0.0,0.0,0.0,0.0,0.0,-0.9029840556521739,-0.5590163940118578,6.775226063387475e-09,0.39742272,-0.25282332,9.78021684,0.00391,0.000148,0.005109,0.1462784645871099
1757069193.0156627,0.0,0.0,0.0,0.0,0.0,-0.9029840556521739,-0.5590163940118578,6.361091504898457e-09,0.38964339,-0.24548544000000003,9.7610481,0.001565,-0.0006,0.003092,0.14631914135053392
1757069193.0366259,0.0,0.0,0.0,0.0,0.0,-0.9029840556521739,-0.5590163940118578,6.361091504898457e-09,0.39502908,-0.26989272000000003,9.78560253,0.002847,0.001425,0.004687,0.15172276850863423
1757069193.0582292,0.0,0.0,0.0,0.0,0.0,-0.9029840556521739,-0.5590163940118578,5.597388828542849e-09,0.40999914,-0.25387299,9.77781339,0.002847,0.001425,0.004687,0.14642095536029437
1757069193.0792723,0.0,0.0,0.0,0.0,0.0,-0.9029840556521739,-0.5590163940118578,5.255772328931442e-09,0.41045040000000005,-0.25746345000000004,9.763893,0.003063,-0.000316,0.003862,0.1463166213947701
1757069193.0997653,0.0,0.0,0.0,0.0,0.0,-0.9029840556521739,-0.5590163940118578,4.935327731345676e-09,0.38784816000000005,-0.26569404,9.75776175,0.002777,-0.001038,0.0044,0.14649292435260103
1757069193.1199048,0.0,0.0,0.0,0.0,0.0,-0.9029840556521739,-0.5590163940118578,4.634226863341766e-09,0.39368511,-0.25866027,9.76898439,0.002254,-0.000713,0.003933,0.146618084011228
1757069193.1405218,0.0,0.0,0.0,0.0,0.0,-0.9029840556521739,-0.5590163940118578,4.351694990682743e-09,0.39502908,-0.2544714,9.775566900000001,0.001551,-0.001474,0.003227,0.1466694198154543
1757069193.1610358,0.0,0.0,0.0,0.0,0.0,-0.9029840556521739,-0.5590163940118578,4.08421414425428e-09,0.40670298000000005,-0.25521696000000005,9.77077962,0.003128,-0.000667,0.004474,0.14691204136509378
1757069193.1811569,0.0,0.0,0.0,0.0,0.0,-0.9029840556521739,-0.5590163940118578,3.833900636865291e-09,0.39742272,-0.2633004,9.77632227,0.003567,0.001293,0.004402,0.14682062341856056
1757069193.201868,0.0,0.0,0.0,0.0,0.0,-0.9029840556521739,-0.5590163940118578,3.5998148795670868e-09,0.40311252,-0.27003987,9.77467419,0.002116,0.000936,0.003187,0.14680812869345777
1757069193.222377,0.0,0.0,0.0,0.0,0.0,-0.9029840556521739,-0.5590163940118578,3.3796530961721247e-09,0.41059755000000003,-0.25416729000000005,9.77287896,0.002077,0.001653,0.002487,0.14695331868077458
1757069193.2438607,0.0,0.0,0.0,0.0,0.0,-0.9029840556521739,-0.5590163940118578,3.3796530961721247e-09,0.40266126,-0.2576106,9.763147440000001,0.001698,0.000457,0.005407,0.1537927962223111
1757069193.2648478,0.0,0.0,0.0,0.0,0.0,-0.9029840556521739,-0.5590163940118578,2.9708909612077805e-09,0.40400523,-0.25461855,9.77976558,0.002039,-0.001195,0.004748,0.14662715428313836
1757069193.2850306,0.0,0.0,0.0,0.0,0.0,-0.9029840556521739,-0.5590163940118578,2.7902829869531454e-09,0.39278259,-0.24129657000000002,9.76943565,0.002967,0.000512,0.002447,0.14681384289736127
1757069193.3052666,0.0,0.0,0.0,0.0,0.0,-0.9029840556521739,-0.5590163940118578,2.6199097807484216e-09,0.41045040000000005,-0.25552107,9.77737194,0.002351,-0.000448,0.004062,0.14718357978514468
1757069193.3254554,0.0,0.0,0.0,0.0,0.0,-0.9029840556521739,-0.5590163940118578,2.4602919381139363e-09,0.40490775,-0.25581537,9.783650340000001,0.00472,-0.000747,0.003808,0.147208467684802
1757069193.3462863,0.0,0.0,0.0,0.0,0.0,-0.9029840556521739,-0.5590163940118578,2.3095003614892658e-09,0.40356378000000004,-0.26165232000000005,9.77826465,0.003777,0.000813,0.002558,0.1474285061299562
1757069193.3664498,0.0,0.0,0.0,0.0,0.0,-0.9029840556521739,-0.5590163940118578,2.1648030197680172e-09,0.40236696,-0.26420292,9.77601816,0.003661,4.2e-05,0.004465,0.14787686383934662
1757069193.3869712,0.0,0.0,0.0,0.0,0.0,-0.9029840556521739,-0.5590163940118578,2.0330009545045156e-09,0.39861954000000005,-0.25237206,9.771378030000001,0.002931,-0.000787,0.00385,0.14703823630538737
1757069193.4076831,0.0,0.0,0.0,0.0,0.0,-0.9029840556521739,-0.5590163940118578,1.9091828991014373e-09,0.40356378000000004,-0.25402014,9.76988691,0.003285,-0.000808,0.003801,0.1473986995324707
1757069193.4280946,0.0,0.0,0.0,0.0,0.0,-0.9029840556521739,-0.5590163940118578,1.7919876140164719e-09,0.39682431,-0.25686504,9.76464837,0.002665,-0.001506,0.003661,0.1477130609038083
1757069193.4496577,0.0,0.0,0.0,0.0,0.0,-0.9029840556521739,-0.5590163940118578,1.6821073799025867e-09,0.39996351,-0.23950134000000003,9.77287896,0.003932,-0.000222,0.003972,0.15116291174121851
1757069193.4696736,0.0,0.0,0.0,0.0,0.0,-0.9029840556521739,-0.5590163940118578,1.5798907656707721e-09,0.42017211000000004,-0.24309180000000002,9.77677353,0.003258,-0.000857,0.003645,0.15166660022742595
1757069193.4901502,0.0,0.0,0.0,0.0,0.0,-0.9029840556521739,-0.5590163940118578,1.4837815013850555e-09,0.40490775,-0.25207776000000004,9.77362452,0.003054,-0.000218,0.004541,0.15195516778408463
1757069193.514446,0.0,0.0,0.0,0.0,0.0,-0.9029840556521739,-0.5590163940118578,1.3083363835796715e-09,0.39936510000000003,-0.25940583,9.76044969,0.003335,-8.1e-05,0.00546,0.14793453054626185
1757069193.5353296,0.0,0.0,0.0,0.0,0.0,-0.9029840556521739,-0.5590163940118578,1.2285415782291254e-09,0.38993769,-0.25327458,9.771829290000001,0.002118,0.000274,0.002136,0.14799168543190572
1757069193.556278,0.0,0.0,0.0,0.0,0.0,-0.9029840556521739,-0.5590163940118578,1.2285415782291254e-09,0.4076055,-0.25193061,9.767189160000001,0.002383,0.000967,0.004412,0.1534107150943384
1757069193.577072,0.0,0.0,0.0,0.0,0.0,-0.9029840556521739,-0.5590163940118578,1.0820903391939243e-09,0.40730139000000004,-0.26989272000000003,9.76943565,0.003059,0.000717,0.005821,0.14783329207078516
1757069193.5979292,0.0,0.0,0.0,0.0,0.0,-0.9029840556521739,-0.5590163940118578,1.0162248258593372e-09,0.40400523,-0.26554689,9.77601816,0.002554,-0.000539,0.001267,0.1481120572448337
1757069193.6183906,0.0,0.0,0.0,0.0,0.0,-0.9029840556521739,-0.5590163940118578,9.538542077622445e-10,0.39772683000000003,-0.25716915,9.783807300000001,0.002554,-0.000539,0.001267,0.1484113035062755
1757069193.6387193,0.0,0.0,0.0,0.0,0.0,-0.9029840556521739,-0.5590163940118578,9.538542077622445e-10,0.39772683000000003,-0.25716915,9.783807300000001,0.002554,-0.000539,0.001267,0.1484113035062755
1757069193.6629465,0.0,0.0,0.0,0.0,0.0,-0.9029840556521739,-0.5590163940118578,8.908529424439806e-10,0.38664153,-0.2633004,9.780815250000002,0.005316,0.001098,0.003203,0.1497079961022867
1757069193.6835775,0.0,0.0,0.0,0.0,0.0,-0.9029840556521739,-0.5590163940118578,7.829378543022643e-10,0.39981636000000004,-0.25851312000000004,9.77721498,0.005214,-0.000796,0.003109,0.14771118016377174
1757069193.7038765,0.0,0.0,0.0,0.0,0.0,-0.9029840556521739,-0.5590163940118578,7.357256810424669e-10,0.3990708,-0.25851312000000004,9.779010210000001,0.003671,-0.000947,0.00397,0.14792444511699643
1757069193.7243187,0.0,0.0,0.0,0.0,0.0,-0.9029840556521739,-0.5590163940118578,6.913450719948917e-10,0.40012047,-0.25342173,9.78964425,0.00337,0.000279,0.003411,0.14842123977864974
1757069193.7451603,0.0,0.0,0.0,0.0,0.0,-0.9029840556521739,-0.5590163940118578,6.494696210956768e-10,0.40041477000000003,-0.24833034,9.77766624,0.004306,-0.00084,0.003657,0.1487023788943253
1757069193.765884,0.0,0.0,0.0,0.0,0.0,-0.9029840556521739,-0.5590163940118578,6.099918825809765e-10,0.40012047,-0.25581537,9.77108373,0.003036,-0.000509,0.004804,0.14883511356593024
1757069193.786675,0.0,0.0,0.0,0.0,0.0,-0.9029840556521739,-0.5590163940118578,5.728657934863981e-10,0.39203703,-0.2456424,9.77092677,0.001933,-0.000237,0.003895,0.14888960568137238
1757069193.8069415,0.0,0.0,0.0,0.0,0.0,-0.9029840556521739,-0.5590163940118578,5.382278642280089e-10,0.41014629,-0.25716915,9.77646942,0.002531,0.000274,0.005665,0.14878934258922782
1757069193.8280425,0.0,0.0,0.0,0.0,0.0,-0.9029840556521739,-0.5590163940118578,5.055518328760893e-10,0.39397941000000003,-0.24758478,9.768690090000002,0.002161,-0.00072,0.004454,0.14901841385401285
1757069193.848111,0.0,0.0,0.0,0.0,0.0,-0.9029840556521739,-0.5590163940118578,4.746928019772245e-10,0.40400523,-0.25851312000000004,9.77826465,0.003158,-0.00174,0.003863,0.1491781967255369
1757069193.8688228,0.0,0.0,0.0,0.0,0.0,-0.9029840556521739,-0.5590163940118578,4.4583763924275277e-10,0.39832524,-0.25581537,9.775272600000001,0.004537,-0.000458,0.00454,0.14909132749472526
1757069193.8894656,0.0,0.0,0.0,0.0,0.0,-0.9029840556521739,-0.5590163940118578,4.186023859957607e-10,0.39712842,-0.24743763,9.78110955,0.003004,0.000745,0.004318,0.15297254579188618
1757069193.9098425,0.0,0.0,0.0,0.0,0.0,-0.9029840556521739,-0.5590163940118578,3.9317841713134924e-10,0.39772683000000003,-0.25970994000000003,9.76568823,0.002784,0.000214,0.004183,0.15337806443691074
1757069193.9304342,0.0,0.0,0.0,0.0,0.0,-0.9029840556521739,-0.5590163940118578,3.69249774023977e-10,0.39218418,-0.25985709,9.77766624,0.003003,4.8e-05,0.002697,0.15360121179404604
1757069193.9545991,0.0,0.0,0.0,0.0,0.0,-0.9029840556521739,-0.5590163940118578,3.2556707414781883e-10,0.39383226000000005,-0.25222491,9.768533130000002,0.004222,0.000694,0.003381,0.14953204737898024
1757069193.9756145,0.0,0.0,0.0,0.0,0.0,-0.9029840556521739,-0.5590163940118578,3.0571060630413986e-10,0.40371093,-0.25297047,9.77377167,0.002727,0.000399,0.003895,0.14959086375035685
1757069193.9964447,0.0,0.0,0.0,0.0,0.0,-0.9029840556521739,-0.5590163940118578,2.870528074646832e-10,0.40325967,-0.24803604,9.78141366,0.005215,0.000181,0.004558,0.14968184397791212
1757069194.0172966,0.0,0.0,0.0,0.0,0.0,-0.9029840556521739,-0.5590163940118578,2.6954073974505835e-10,0.4047606,-0.25102809000000004,9.77991273,0.003654,-0.000395,0.004655,0.14974132672895835
1757069194.0373266,0.0,0.0,0.0,0.0,0.0,-0.9029840556521739,-0.5590163940118578,2.530345325914994e-10,0.40595742000000007,-0.26614530000000003,9.78036399,0.004172,-0.001092,0.002495,0.14990081187990723
1757069194.0581017,0.0,0.0,0.0,0.0,0.0,-0.9029840556521739,-0.5590163940118578,2.3759806036138185e-10,0.39517623,-0.24938001,9.772133400000001,0.003296,-0.001582,0.004507,0.14985139796715077
1757069194.079821,0.0,0.0,0.0,0.0,0.0,-0.9029840556521739,-0.5590163940118578,2.228467699966294e-10,0.39772683000000003,-0.25117524,9.77317326,0.004158,-0.000921,0.00511,0.15032331867976653
1757069194.100614,0.0,0.0,0.0,0.0,0.0,-0.9029840556521739,-0.5590163940118578,2.0925339800872157e-10,0.40700709,-0.24892875000000003,9.772280550000001,0.003266,0.00121,0.003895,0.14982426315182698
1757069194.1211722,0.0,0.0,0.0,0.0,0.0,-0.9029840556521739,-0.5590163940118578,1.964606672496386e-10,0.39772683000000003,-0.25657074,9.783807300000001,0.001518,-0.001997,0.004461,0.15011298374193474
1757069194.1412241,0.0,0.0,0.0,0.0,0.0,-0.9029840556521739,-0.5590163940118578,1.8444548802932076e-10,0.40280841,-0.25312743,9.77392863,0.00309,-0.000326,0.003791,0.15021900880515549
1757069194.161455,0.0,0.0,0.0,0.0,0.0,-0.9029840556521739,-0.5590163940118578,1.7312164169149541e-10,0.40985199,-0.26554689,9.775566900000001,0.002397,-0.000785,0.004981,0.1503803928511036
1757069194.1816857,0.0,0.0,0.0,0.0,0.0,-0.9029840556521739,-0.5590163940118578,1.625185550081503e-10,0.41164722000000004,-0.24908571000000002,9.77347737,0.002527,-0.001322,0.004776,0.15036267230896955
1757069194.2017553,0.0,0.0,0.0,0.0,0.0,-0.9029840556521739,-0.5590163940118578,1.5256792436719712e-10,0.39892365,-0.265851,9.78305193,0.003423,-0.000435,0.003159,0.1504503294727424
1757069194.2222967,0.0,0.0,0.0,0.0,0.0,-0.9029840556521739,-0.5590163940118578,1.4323344762004054e-10,0.41119596,-0.24743763,9.768385980000001,0.003803,-0.000175,0.003953,0.1505210339094871
1757069194.242985,0.0,0.0,0.0,0.0,0.0,-0.9029840556521739,-0.5590163940118578,1.3439844092374831e-10,0.40251411,-0.26135802,9.77257485,0.004697,0.000787,0.005257,0.1507830289564856
1757069194.2634873,0.0,0.0,0.0,0.0,0.0,-0.9029840556521739,-0.5590163940118578,1.262037747384911e-10,0.40325967,-0.25356888,9.77677353,0.003233,0.000133,0.003936,0.15051751244569728
1757069194.2838495,0.0,0.0,0.0,0.0,0.0,-0.9029840556521739,-0.5590163940118578,1.184734591716565e-10,0.40221,-0.25252902000000005,9.775272600000001,0.004123,0.000382,0.004214,0.15080945249554714
1757069194.3043015,0.0,0.0,0.0,0.0,0.0,-0.9029840556521739,-0.5590163940118578,1.1125092656433838e-10,0.3990708,-0.25880742,9.78021684,0.003522,4.8e-05,0.003797,0.15076443855862864
1757069194.324557,0.0,0.0,0.0,0.0,0.0,-0.9029840556521739,-0.5590163940118578,1.0446352612359304e-10,0.41045040000000005,-0.2573163,9.772133400000001,0.003522,4.8e-05,0.003797,0.1509101648120553
1757069194.3456075,0.0,0.0,0.0,0.0,0.0,-0.9029840556521739,-0.5590163940118578,9.805122158504463e-11,0.40461345,-0.26389881000000004,9.77018121,0.004991,0.000473,0.004315,0.1511244398986456
1757069194.3663058,0.0,0.0,0.0,0.0,0.0,-0.9029840556521739,-0.5590163940118578,9.203775678005672e-11,0.39218418,-0.25506981,9.78021684,0.004094,-0.001017,0.004963,0.15111740450065245
1757069194.3868973,0.0,0.0,0.0,0.0,0.0,-0.9029840556521739,-0.5590163940118578,8.641404508589956e-11,0.39428352,-0.25776756,9.77856876,0.005497,1.5e-05,0.005321,0.15110763925375448
1757069194.4093018,0.0,0.0,0.0,0.0,0.0,-0.9029840556521739,-0.5590163940118578,8.114230362639527e-11,0.4128440400000001,-0.26509562999999997,9.7695828,0.003111,-0.00115,0.003576,0.15535512841723348
1757069194.4294918,0.0,0.0,0.0,0.0,0.0,-0.9029840556521739,-0.5590163940118578,7.618608295901746e-11,0.39921795000000004,-0.25072398,9.77467419,0.003708,-8.6e-05,0.003285,0.15548362515949404
1757069194.4543674,0.0,0.0,0.0,0.0,0.0,-0.9029840556521739,-0.5590163940118578,6.714793580850466e-11,0.39996351,-0.25866027,9.77302611,0.00441,-0.000664,0.005362,0.15152944628322426
1757069194.477095,0.0,0.0,0.0,0.0,0.0,-0.9029840556521739,-0.5590163940118578,6.30039491074492e-11,0.39787398,-0.25686504,9.76419711,0.00316,-0.002723,0.004586,0.15175189876119632
1757069194.4981585,0.0,0.0,0.0,0.0,0.0,-0.9029840556521739,-0.5590163940118578,5.915304798740345e-11,0.40176855,-0.24923286000000003,9.787397760000001,0.003178,0.0008,0.005174,0.15152789642801096
1757069194.51897,0.0,0.0,0.0,0.0,0.0,-0.9029840556521739,-0.5590163940118578,5.553863597368949e-11,0.4090966200000001,-0.26539974000000005,9.763147440000001,0.003269,0.000134,0.004537,0.15169143823260256
1757069194.5399194,0.0,0.0,0.0,0.0,0.0,-0.9029840556521739,-0.5590163940118578,5.2137464005913776e-11,0.4016115900000001,-0.24997842000000003,9.77333022,0.003122,0.000182,0.005481,0.15185032254526726
1757069194.5610929,0.0,0.0,0.0,0.0,0.0,-0.9029840556521739,-0.5590163940118578,5.2137464005913776e-11,0.39443067000000004,-0.25327458,9.7692885,0.000663,-0.000316,0.004357,0.1582347642325497
1757069194.581898,0.0,0.0,0.0,0.0,0.0,-0.9029840556521739,-0.5590163940118578,4.5855008652617784e-11,0.40581027000000003,-0.25147935000000005,9.774968490000001,0.002837,-0.00025,0.003878,0.15154673563293977
1757069194.602853,0.0,0.0,0.0,0.0,0.0,-0.9029840556521739,-0.5590163940118578,4.305835749975722e-11,0.39742272,-0.26150517,9.77063247,0.002913,0.000673,0.005335,0.15187418109106005
1757069194.6237004,0.0,0.0,0.0,0.0,0.0,-0.9029840556521739,-0.5590163940118578,4.043287861171593e-11,0.4016115900000001,-0.25657074,9.779167170000001,0.002626,0.000483,0.004397,0.15208131532283634
1757069194.6446695,0.0,0.0,0.0,0.0,0.0,-0.9029840556521739,-0.5590163940118578,3.79369472318522e-11,0.40700709,-0.26135802,9.763598700000001,0.00354,0.001046,0.004853,0.15246212927464342
1757069194.6653426,0.0,0.0,0.0,0.0,0.0,-0.9029840556521739,-0.5590163940118578,3.56263269258776e-11,0.40146444000000003,-0.26674371,9.77422293,0.005172,0.001122,0.004682,0.15212112531041622
1757069194.6866372,0.0,0.0,0.0,0.0,0.0,-0.9029840556521739,-0.5590163940118578,3.3437199826413966e-11,0.38979054,-0.26435007,9.780962400000002,0.00184,0.000887,0.002425,0.15251861412154744
1757069194.7071033,0.0,0.0,0.0,0.0,0.0,-0.9029840556521739,-0.5590163940118578,3.139837326590289e-11,0.40744854,-0.25461855,9.76209777,0.004919,-0.000515,0.003931,0.1523669289196141
1757069194.7338212,0.0,0.0,0.0,0.0,0.0,-0.9029840556521739,-0.5590163940118578,2.768505546320903e-11,0.41045040000000005,-0.2601612,9.77317326,0.004581,-0.000139,0.004267,0.15264704600611245
1757069194.7578459,0.0,0.0,0.0,0.0,0.0,-0.9029840556521739,-0.5590163940118578,2.597475557321567e-11,0.40490775,-0.25387299,9.768238830000001,0.005724,-0.001118,0.003169,0.15297969318961058
1757069194.7785103,0.0,0.0,0.0,0.0,0.0,-0.9029840556521739,-0.5590163940118578,2.4393029645387914e-11,0.40191570000000004,-0.25776756,9.77287896,0.002738,-0.001719,0.004086,0.15260668177202363
1757069194.7995353,0.0,0.0,0.0,0.0,0.0,-0.9029840556521739,-0.5590163940118578,2.290698298013624e-11,0.40640868,-0.26929431000000004,9.76913154,0.003891,-0.000376,0.003793,0.15283373277804618
1757069194.8198328,0.0,0.0,0.0,0.0,0.0,-0.9029840556521739,-0.5590163940118578,2.1505724538356015e-11,0.39697146000000005,-0.25566822,9.76539393,0.001259,-0.00095,0.004592,0.1530387292892057
1757069194.8406131,0.0,0.0,0.0,0.0,0.0,-0.9029840556521739,-0.5590163940118578,2.018255246761428e-11,0.40445649000000006,-0.26344755000000003,9.77467419,0.003285,0.000318,0.004498,0.15320681158995422
1757069194.8611763,0.0,0.0,0.0,0.0,0.0,-0.9029840556521739,-0.5590163940118578,1.8950574857598304e-11,0.40550616,-0.26989272000000003,9.77077962,0.002543,-0.001024,0.0041,0.15304160916382709
1757069194.8812728,0.0,0.0,0.0,0.0,0.0,-0.9029840556521739,-0.5590163940118578,1.779264239999455e-11,0.39892365,-0.26270199,9.76300029,0.001203,-0.001218,0.004239,0.15321993011689716
1757069194.9022856,0.0,0.0,0.0,0.0,0.0,-0.9029840556521739,-0.5590163940118578,1.6705437948624946e-11,0.40461345,-0.25641378000000004,9.76149936,0.001972,0.000237,0.003344,0.1533135604695349
1757069194.9226668,0.0,0.0,0.0,0.0,0.0,-0.9029840556521739,-0.5590163940118578,1.6705437948624946e-11,0.40461345,-0.25641378000000004,9.76149936,0.001972,0.000237,0.003344,0.1533135604695349
1757069194.9429512,0.0,0.0,0.0,0.0,0.0,-0.9029840556521739,-0.5590163940118578,1.6705437948624946e-11,0.40461345,-0.25641378000000004,9.76149936,0.001972,0.000237,0.003344,0.1533135604695349
1757069194.9655683,0.0,0.0,0.0,0.0,0.0,-0.9029840556521739,-0.5590163940118578,1.4538391350654905e-11,0.39876669,-0.25282332,9.77377167,0.001375,0.001371,0.002846,0.1534945628440209
1757069194.9864523,0.0,0.0,0.0,0.0,0.0,-0.9029840556521739,-0.5590163940118578,1.2785365197584546e-11,0.38874087000000007,-0.2544714,9.7610481,0.004866,0.000483,0.004027,0.15274140869211877
1757069195.0072773,0.0,0.0,0.0,0.0,0.0,-0.9029840556521739,-0.5590163940118578,1.2025445199610705e-11,0.4107447,-0.26180928000000003,9.77317326,0.004761,0.00048,0.002441,0.15276635975114192
1757069195.0282102,0.0,0.0,0.0,0.0,0.0,-0.9029840556521739,-0.5590163940118578,1.1307986289022383e-11,0.39113451,-0.2630061,9.7866522,0.004924,0.000621,0.004035,0.15354924524427763
1757069195.04821,0.0,0.0,0.0,0.0,0.0,-0.9029840556521739,-0.5590163940118578,1.0627980528676181e-11,0.40775265,-0.25880742,9.78485697,0.004725,0.000473,0.005906,0.15394511894827922
1757069195.069699,0.0,0.0,0.0,0.0,0.0,-0.9029840556521739,-0.5590163940118578,9.969274867315713e-12,0.40086603,-0.26150517,9.77407578,0.003059,0.000675,0.005338,0.15457549306148705
1757069195.0935662,0.0,0.0,0.0,0.0,0.0,-0.9029840556521739,-0.5590163940118578,8.806707837345695e-12,0.40430934,-0.26614530000000003,9.77766624,0.002117,-0.000694,0.003679,0.1539241311214411
1757069195.1139948,0.0,0.0,0.0,0.0,0.0,-0.9029840556521739,-0.5590163940118578,8.806707837345695e-12,0.40430934,-0.26614530000000003,9.77766624,0.002117,-0.000694,0.003679,0.1539241311214411
1757069195.1350346,0.0,0.0,0.0,0.0,0.0,-0.9029840556521739,-0.5590163940118578,7.761068847263243e-12,0.40385808000000006,-0.26449722000000003,9.78829047,0.00296,-0.000289,0.004198,0.15387881196030925
1757069195.1554666,0.0,0.0,0.0,0.0,0.0,-0.9029840556521739,-0.5590163940118578,7.29494753027609e-12,0.41089185,-0.26465418,9.774968490000001,0.003133,-0.000101,0.005685,0.15419049280855557
1757069195.175849,0.0,0.0,0.0,0.0,0.0,-0.9029840556521739,-0.5590163940118578,6.856511579964215e-12,0.39861954000000005,-0.26629245,9.77287896,0.001536,-0.000708,0.004398,0.15441929657793757
1757069195.196521,0.0,0.0,0.0,0.0,0.0,-0.9029840556521739,-0.5590163940118578,6.442928597753473e-12,0.39532338,-0.26195643,9.77751909,0.002777,0.000721,0.004478,0.15460985636006755
1757069195.217457,0.0,0.0,0.0,0.0,0.0,-0.9029840556521739,-0.5590163940118578,6.052382115308692e-12,0.41134311000000007,-0.24668226000000004,9.792783450000002,0.002304,0.000105,0.00509,0.15476377607516903
1757069195.2408373,0.0,0.0,0.0,0.0,0.0,-0.9029840556521739,-0.5590163940118578,5.677869706293893e-12,0.39861954000000005,-0.26225073,9.77287896,0.002865,-0.001393,0.003144,0.1551995480662644
1757069195.261486,0.0,0.0,0.0,0.0,0.0,-0.9029840556521739,-0.5590163940118578,5.333674396118511e-12,0.39861954000000005,-0.26225073,9.775871010000001,0.002569,-0.000441,0.004278,0.15458788748413987
1757069195.2821403,0.0,0.0,0.0,0.0,0.0,-0.9029840556521739,-0.5590163940118578,5.010313501970029e-12,0.40176855,-0.25597233,9.77677353,0.002862,0.000245,0.00383,0.15485705411583411
1757069195.3029852,0.0,0.0,0.0,0.0,0.0,-0.9029840556521739,-0.5590163940118578,4.7064350544217936e-12,0.39368511,-0.2576106,9.771829290000001,0.004965,0.001105,0.005857,0.15500282262041115
1757069195.323358,0.0,0.0,0.0,0.0,0.0,-0.9029840556521739,-0.5590163940118578,4.4202438566802754e-12,0.40236696,-0.24683922000000003,9.77871591,0.004062,0.000153,0.004769,0.15515406482007982
1757069195.3436196,0.0,0.0,0.0,0.0,0.0,-0.9029840556521739,-0.5590163940118578,4.150261984700307e-12,0.41208867000000005,-0.25820901,9.763451550000001,0.003437,-0.000515,0.002992,0.1553066146725344
1757069195.3647742,0.0,0.0,0.0,0.0,0.0,-0.9029840556521739,-0.5590163940118578,3.897495648803593e-12,0.38319822000000003,-0.26344755000000003,9.77706783,0.002533,-0.00021,0.003525,0.15527238577465868
1757069195.3851693,0.0,0.0,0.0,0.0,0.0,-0.9029840556521739,-0.5590163940118578,3.66033626462914e-12,0.4047606,-0.24833034,9.764942670000002,0.003821,0.001236,0.003731,0.15535616280616094
1757069195.4052145,0.0,0.0,0.0,0.0,0.0,-0.9029840556521739,-0.5590163940118578,3.4355347939214e-12,0.39996351,-0.26449722000000003,9.77347737,0.00437,0.000142,0.004785,0.15565335999074906
1757069195.425577,0.0,0.0,0.0,0.0,0.0,-0.9029840556521739,-0.5590163940118578,3.226230399124766e-12,0.40954788000000003,-0.24938001,9.77991273,0.002752,-0.001899,0.003707,0.1554642689543029
1757069195.4459512,0.0,0.0,0.0,0.0,0.0,-0.9029840556521739,-0.5590163940118578,3.0296185219141867e-12,0.40101318,-0.25282332,9.77751909,0.002947,-0.001965,0.003985,0.15562465056519212
1757069195.4660006,0.0,0.0,0.0,0.0,0.0,-0.9029840556521739,-0.5590163940118578,2.8449973413839092e-12,0.38993769,-0.26405577,9.77003406,0.002578,0.001619,0.005367,0.15572615868577785
1757069195.4864628,0.0,0.0,0.0,0.0,0.0,-0.9029840556521739,-0.5590163940118578,2.8449973413839092e-12,0.38993769,-0.26405577,9.77003406,0.002578,0.001619,0.005367,0.15572615868577785
1757069195.5067255,0.0,0.0,0.0,0.0,0.0,-0.9029840556521739,-0.5590163940118578,2.8449973413839092e-12,0.38993769,-0.26405577,9.77003406,0.002578,0.001619,0.005367,0.15572615868577785
1757069195.5269892,0.0,0.0,0.0,0.0,0.0,-0.9029840556521739,-0.5590163940118578,2.8449973413839092e-12,0.38993769,-0.26405577,9.77003406,0.002578,0.001619,0.005367,0.15572615868577785
1757069195.5472674,0.0,0.0,0.0,0.0,0.0,-0.9029840556521739,-0.5590163940118578,2.8449973413839092e-12,0.38993769,-0.26405577,9.77003406,0.002578,0.001619,0.005367,0.15572615868577785
1757069195.5675352,0.0,0.0,0.0,0.0,0.0,-0.9029840556521739,-0.5590163940118578,2.8449973413839092e-12,0.38993769,-0.26405577,9.77003406,0.002578,0.001619,0.005367,0.15572615868577785
1757069195.587795,0.0,0.0,0.0,0.0,0.0,-0.9029840556521739,-0.5590163940118578,2.8449973413839092e-12,0.38993769,-0.26405577,9.77003406,0.002578,0.001619,0.005367,0.15572615868577785
1757069195.6087208,0.0,0.0,0.0,0.0,0.0,-0.9029840556521739,-0.5590163940118578,2.605426845512153e-12,0.4047606,-0.25657074,9.77467419,0.00376,-0.000287,0.003487,0.1597882261321721
1757069195.6293564,0.0,0.0,0.0,0.0,0.0,-0.9029840556521739,-0.5590163940118578,2.2193743990425273e-12,0.41493357000000003,-0.25701219000000003,9.77766624,0.003362,-0.00075,0.003277,0.15608914571930005
1757069195.6550858,0.0,0.0,0.0,0.0,0.0,-0.9029840556521739,-0.5590163940118578,1.794231103082436e-12,0.41239278,-0.26465418,9.77273181,0.002496,-0.000849,0.005141,0.15576267861561088
1757069195.6756136,0.0,0.0,0.0,0.0,0.0,-0.9029840556521739,-0.5590163940118578,1.5779471748074323e-12,0.39637305000000006,-0.26674371,9.77737194,0.004469,0.000496,0.003379,0.15577686108269806
1757069195.6965177,0.0,0.0,0.0,0.0,0.0,-0.9029840556521739,-0.5590163940118578,1.3987760960021099e-12,0.3905361,-0.25102809000000004,9.77317326,0.001905,0.000951,0.001784,0.15582537532036866
1757069195.7172768,0.0,0.0,0.0,0.0,0.0,-0.9029840556521739,-0.5590163940118578,1.247461871844024e-12,0.40311252,-0.25566822,9.7781175,0.003808,0.000612,0.00255,0.15782582119318872
1757069195.7383373,0.0,0.0,0.0,0.0,0.0,-0.9029840556521739,-0.5590163940118578,1.117295080960492e-12,0.40581027000000003,-0.2576106,9.77706783,0.004511,-0.000312,0.004551,0.1562872102419825
1757069195.7584157,0.0,0.0,0.0,0.0,0.0,-0.9029840556521739,-0.5590163940118578,1.0570022832007214e-12,0.40101318,-0.24309180000000002,9.77856876,0.00508,-0.000692,0.0032,0.1568002180590895
1757069195.7784638,0.0,0.0,0.0,0.0,0.0,-0.9029840556521739,-0.5590163940118578,9.99099945686563e-13,0.40296537000000004,-0.26509562999999997,9.7667379,0.003769,0.000274,0.002986,0.15714369190169633
1757069195.7994666,0.0,0.0,0.0,0.0,0.0,-0.9029840556521739,-0.5590163940118578,9.428704561608007e-13,0.39472497000000006,-0.24743763,9.76659075,0.003017,0.000747,0.004,0.15756771107978998
1757069195.8198323,0.0,0.0,0.0,0.0,0.0,-0.9029840556521739,-0.5590163940118578,8.901391905009659e-13,0.39203703,-0.26284914,9.771525180000001,0.002915,-0.00097,0.003652,0.15717576990957513
1757069195.8399227,0.0,0.0,0.0,0.0,0.0,-0.9029840556521739,-0.5590163940118578,8.394257122538854e-13,0.40236696,-0.25566822,9.75865446,0.003229,-0.00105,0.003782,0.15759408430610525
1757069195.8606458,0.0,0.0,0.0,0.0,0.0,-0.9029840556521739,-0.5590163940118578,7.913785367230984e-13,0.39188987999999997,-0.25657074,9.77092677,0.002225,0.000438,0.00533,0.15755426887066795
1757069195.8812814,0.0,0.0,0.0,0.0,0.0,-0.9029840556521739,-0.5590163940118578,7.454852472660036e-13,0.40296537000000004,-0.25836597,9.77706783,0.003033,-0.001408,0.004608,0.15778270461260083
1757069195.9021146,0.0,0.0,0.0,0.0,0.0,-0.9029840556521739,-0.5590163940118578,7.022896125240835e-13,0.39113451,-0.2601612,9.77856876,0.002517,0.000455,0.005028,0.1576651337133811
1757069195.922249,0.0,0.0,0.0,0.0,0.0,-0.9029840556521739,-0.5590163940118578,6.607786347185687e-13,0.4076055,-0.2513322,9.772133400000001,0.002174,0.000863,0.004978,0.15810448439834743
1757069195.9422708,0.0,0.0,0.0,0.0,0.0,-0.9029840556521739,-0.5590163940118578,6.216602763559913e-13,0.40820391000000006,-0.25117524,9.77377167,0.001999,0.000633,0.003467,0.15798926826050894
1757069195.962576,0.0,0.0,0.0,0.0,0.0,-0.9029840556521739,-0.5590163940118578,5.850392154391479e-13,0.40371093,-0.26748927,9.779010210000001,0.003375,0.000876,0.004442,0.15788037172863587
1757069195.98318,0.0,0.0,0.0,0.0,0.0,-0.9029840556521739,-0.5590163940118578,5.504629779567249e-13,0.41433516000000004,-0.24818319,9.775723860000001,0.003044,0.001175,0.005841,0.15806483472130023
1757069196.0042999,0.0,0.0,0.0,0.0,0.0,-0.9029840556521739,-0.5590163940118578,5.172801268994752e-13,0.39952206,-0.25402014,9.76599234,0.003731,0.000951,0.002559,0.158522661923129
1757069196.024714,0.0,0.0,0.0,0.0,0.0,-0.9029840556521739,-0.5590163940118578,4.864697961132052e-13,0.38904498,-0.25521696000000005,9.77677353,0.00309,0.001353,0.004161,0.15812331720862788
1757069196.0450752,0.0,0.0,0.0,0.0,0.0,-0.9029840556521739,-0.5590163940118578,4.573933064090989e-13,0.40057173,-0.25791471,9.77976558,0.004168,0.000408,0.001819,0.1583599276752316
1757069196.065339,0.016447419318142434,0.019918220863510104,0.0,0.0006272726431591668,0.0007596422761776544,-0.9029840556521739,-0.5590163940118578,4.3002182866721766e-13,0.39457782,-0.26284914,9.772280550000001,0.00228,0.000365,0.003955,0.15845242785355337
1757069196.0859377,0.032811749334911926,0.0397358185821895,0.0,0.001070566632005497,0.001296481971604402,-0.9029840556521739,-0.5590163940118578,4.0344649196549385e-13,0.39397941000000003,-0.25372584000000004,9.764491410000002,0.002163,0.000375,0.003827,0.15915488362142127
1757069196.1064758,0.04904903864955291,0.05939956695133233,0.0,0.0012226563405091796,0.0014806662710647844,-0.9029840556521739,-0.5590163940118578,3.7909002686943815e-13,0.38979054,-0.26375166,9.7781175,0.004012,-0.00021,0.003307,0.15838227933487695
1757069196.127035,0.06521307711852238,0.0789746067824181,0.0,0.0013445855049133263,0.001628325425326519,-0.9029840556521739,-0.5590163940118578,3.555322631502254e-13,0.39532338,-0.24608385000000002,9.772133400000001,0.004626,0.000354,0.005502,0.1592498900275502
1757069196.147696,0.08123854332769369,0.09838183226993867,0.0,0.0013632945841800343,0.001650982570850629,-0.9029840556521739,-0.5590163940118578,3.341389221037205e-13,0.40026762,-0.26494848000000004,9.75760479,0.00296,-0.001252,0.004572,0.1583372327286082
1757069196.1724515,0.09720187695801243,0.11771381370825819,0.0,0.0013512871859692197,0.0016364413224679538,-0.9029840556521739,-0.5590163940118578,3.1383964862553193e-13,0.3962259,-0.25387299,9.768238830000001,0.003253,-1.7e-05,0.004356,0.1622689792846773
1757069196.1886172,0.11300713352615718,0.13685436001764148,0.0,0.0013302721427290404,0.0016109915990422008,-0.9029840556521739,-0.5590163940118578,2.9497208914849043e-13,0.3962259,-0.25387299,9.768238830000001,0.003253,-1.7e-05,0.004356,0.1588085382496895
1757069196.2133434,0.12878421397632958,0.155960784369653,0.0,0.0014439232277957254,0.0017486257998823767,-0.9029840556521739,-0.5590163940118578,2.9497208914849043e-13,0.40730139000000004,-0.25851312000000004,9.780658290000002,0.003162,-0.001341,0.004925,0.16005213982187644
1757069196.234243,0.14443030002997656,0.1749085713530046,0.0,0.0014641627800171498,0.0017731363850098682,-0.9029840556521739,-0.5590163940118578,2.590007909353656e-13,0.40430934,-0.25372584000000004,9.779010210000001,0.00287,-0.00045,0.003822,0.15929233368827006
1757069196.2617536,0.17541636211706846,0.21243343871382764,0.0,0.0013727571213053764,0.0016624419311761613,-0.9029840556521739,-0.5590163940118578,2.2828137206915045e-13,0.3930867,-0.27018702,9.775419750000001,0.001619,-0.000165,0.004772,0.15905641670452214
1757069196.2816875,0.19075817196579048,0.2310127398857596,0.0,0.001316022184907421,0.0015937345569679079,-0.9029840556521739,-0.5590163940118578,2.1453737364921945e-13,0.39742272,-0.26225073,9.77077962,0.001291,-9.5e-05,0.005321,0.15920249128377278
1757069196.302406,0.2060059643866027,0.24947818368846522,0.0,0.0012839997634585584,0.0015549546334634782,-0.9029840556521739,-0.5590163940118578,2.0159737868955606e-13,0.39697146000000005,-0.24428862,9.7695828,0.003176,-0.001272,0.004474,0.15950506819737026
1757069196.3239448,0.22118097663520617,0.26785548895001143,0.0,0.00133657392696672,0.001618623211506889,-0.9029840556521739,-0.5590163940118578,1.8906562392469544e-13,0.40266126,-0.25611948,9.78859458,0.003326,0.001534,0.004241,0.16022588367376273
1757069196.3449988,0.23622619141231832,0.28607560634793716,0.0,0.0013326580548665603,0.0016138809960957333,-0.9029840556521739,-0.5590163940118578,1.7769047293213379e-13,0.39428352,-0.24548544000000003,9.78036399,0.004009,0.000318,0.003356,0.15925735536074132
1757069196.3652089,0.25119823517350875,0.3042071118835551,0.0,0.0013129950612632355,0.0015900686373388313,-0.9029840556521739,-0.5590163940118578,1.6687820571433183e-13,0.4016115900000001,-0.26748927,9.775871010000001,0.003574,-7.9e-05,0.003211,0.15991475924407444
1757069196.3853037,0.26606382018733715,0.3222096933124915,0.0,0.0012887121241162364,0.001560661415697978,-0.9029840556521739,-0.5590163940118578,1.5684334061065548e-13,0.40940073,-0.25626663,9.77632227,0.002144,4.6e-05,0.002777,0.15970280327914899
1757069196.4055176,0.28084401186947294,0.3401088613603968,0.0,0.00127378927986471,0.0015425894919533331,-0.9029840556521739,-0.5590163940118578,1.4737024535678476e-13,0.39038895,-0.25057683000000003,9.77692068,0.004651,-0.00029,0.00362,0.1600184308107469
1757069196.4261374,0.29553587036336215,0.3579010557901897,0.0,0.0012784324551875798,0.0015482124890813327,-0.9029840556521739,-0.5590163940118578,1.3841129851956812e-13,0.41389371,-0.25746345000000004,9.77482134,0.00329,-0.001078,0.003734,0.16023123197018027
1757069196.4472654,0.31015067467599644,0.3755999357509462,0.0,0.0013169323637436962,0.0015948368054565947,-0.9029840556521739,-0.5590163940118578,1.2983973134755413e-13,0.39143862,-0.26958861,9.78485697,0.003137,-0.001091,0.00341,0.16061893772958805
1757069196.4685497,0.3246799165462399,0.3931951975335437,0.0,0.0013097855660015613,0.0015861818612892956,-0.9029840556521739,-0.5590163940118578,1.2196911662168204e-13,0.39352815,-0.25597233,9.77257485,0.003534,-0.00021,0.004844,0.16401713596234396
1757069196.491458,0.35340961154377365,0.42798755001348204,0.0,0.0012605778892431161,0.0015265901797679414,-0.9029840556521739,-0.5590163940118578,1.0765588875888496e-13,0.39113451,-0.2604555,9.77092677,0.00315,-0.00101,0.005223,0.16036910028029508
1757069196.511971,0.35340961154377365,0.42798755001348204,0.0,0.0012605778892431161,0.0015265901797679414,-0.9029840556521739,-0.5590163940118578,1.0765588875888496e-13,0.39113451,-0.2604555,9.77092677,0.00315,-0.00101,0.005223,0.16036910028029508
1757069196.5348017,0.38184298490627416,0.46242104985769295,0.0,0.00132441187853949,0.0016038946779880123,-0.9029840556521739,-0.5590163940118578,9.47555680975521e-14,0.40086603,-0.27557271000000005,9.77287896,0.001398,-0.001287,0.005704,0.16032089410196806
1757069196.557456,0.3959317994464046,0.4794829435376216,0.0,0.0013002059551680517,0.0015745807218839273,-0.9029840556521739,-0.5590163940118578,8.893946420959554e-14,0.39816828,-0.25506981,9.775566900000001,0.004527,-0.000491,0.003895,0.16082891841175445
1757069196.5779536,0.4099234992780232,0.4964272289669294,0.0,0.0012684856685587513,0.001536166690945897,-0.9029840556521739,-0.5590163940118578,8.355316767621528e-14,0.39203703,-0.25207776000000004,9.77362452,0.002432,0.000131,0.00356,0.16060565549364056
1757069196.5981138,0.42383521614699604,0.5132746531024087,0.0,0.0012397150406214153,0.0015013247676901543,-0.9029840556521739,-0.5590163940118578,7.849622793307157e-14,0.39832524,-0.25925868,9.767493270000001,0.001768,0.000427,0.005205,0.16084179301279525
1757069196.618279,0.4376691286789569,0.5300278543121654,0.0,0.0012361739994314806,0.00149703648153756,-0.9029840556521739,-0.5590163940118578,7.370848249219889e-14,0.40071888000000006,-0.26121087000000004,9.771829290000001,0.002735,-8.1e-05,0.003362,0.16115032097748722
1757069196.6407552,0.45143341599205716,0.5466967377052414,0.0,0.0012724260341436591,0.0015409385685569087,-0.9029840556521739,-0.5590163940118578,6.912740918156581e-14,0.40461345,-0.24729048000000003,9.76764042,0.004901,0.000562,0.00459,0.16154990762742422
1757069196.6609879,0.4650905130345482,0.5632358110993676,0.0,0.0012625965287651896,0.0015290348008398995,-0.9029840556521739,-0.5590163940118578,6.494857658145994e-14,0.39383226000000005,-0.26420292,9.775871010000001,0.003652,-0.001381,0.003801,0.16078556381948972
1757069196.681022,0.4786824936380011,0.5796960269177538,0.0,0.0012407834644675058,0.0015026186546964154,-0.9029840556521739,-0.5590163940118578,6.099078305932842e-14,0.40535900999999996,-0.25851312000000004,9.78156081,0.003623,0.000661,0.003282,0.1613346335680839
1757069196.7014303,0.49219721863313953,0.5960626843340839,0.0,0.0012410883336033446,0.0015029878585614501,-0.9029840556521739,-0.5590163940118578,5.724608840302551e-14,0.40026762,-0.24803604,9.77960862,0.005304,-0.000164,0.00447,0.16157293982449228
1757069196.721451,0.5056216378646807,0.6123199792960505,0.0,0.001226659489300311,0.001485514180650411,-0.9029840556521739,-0.5590163940118578,5.377471088198378e-14,0.39637305000000006,-0.26344755000000003,9.76972995,0.003196,0.000204,0.003847,0.16130063590856578
1757069196.741878,0.5189736455341316,0.6284895821125877,0.0,0.0012130393787158646,0.0014690198987476453,-0.9029840556521739,-0.5590163940118578,5.0504530962273684e-14,0.40999914,-0.25820901,9.77766624,0.001735,-0.000361,0.003179,0.1615777411606897
1757069196.7624006,0.532257476043225,0.6445766207461621,0.0,0.001229620512238009,0.0014891000507321651,-0.9029840556521739,-0.5590163940118578,4.738913338699495e-14,0.40086603,-0.25402014,9.77452704,0.003717,-0.000257,0.00319,0.161967179049139
1757069196.7825363,0.5454490110490864,0.6605518873027606,0.0,0.0012209113700237927,0.0014785530697864597,-0.9029840556521739,-0.5590163940118578,4.4511110061461516e-14,0.40071888000000006,-0.26764623000000004,9.76659075,0.003951,-0.000647,0.006199,0.16155604428197567
1757069196.802804,0.5585712332286762,0.6764432143576266,0.0,0.001206229395830365,0.0014607728454825485,-0.9029840556521739,-0.5590163940118578,4.180135780339371e-14,0.38484630000000003,-0.25416729000000005,9.767493270000001,0.002741,-0.001863,0.003568,0.16184336849702322
1757069196.8238122,0.5716170127436181,0.6922419675047929,0.0,0.0011978507837684925,0.0014506261445108063,-0.9029840556521739,-0.5590163940118578,3.925558548167061e-14,0.39203703,-0.24908571000000002,9.767493270000001,0.003684,0.000118,0.003977,0.16195599500111119
1757069196.8446944,0.5846053726702569,0.7079711841478069,0.0,0.0012339075351715512,0.0014942917387402064,-0.9029840556521739,-0.5590163940118578,3.680930196452422e-14,0.40804695,-0.24803604,9.76434426,0.001476,-0.001292,0.004212,0.16251269172453728
1757069196.8653119,0.5974951804154544,0.7235810517258666,0.0,0.0012263878242510758,0.0014851851877338389,-0.9029840556521739,-0.5590163940118578,3.457134068252719e-14,0.40041477000000003,-0.26225073,9.76764042,0.001694,0.000124,0.005482,0.16180198245631855
1757069196.8914044,0.6103446236383051,0.739142036895349,0.0,0.001202318874402886,0.0014560371098648582,-0.9029840556521739,-0.5590163940118578,3.246392201329067e-14,0.4107447,-0.2513322,9.7781175,0.003433,-0.001091,0.005591,0.16606740907050804
1757069196.9073303,0.6230964387139502,0.7545847920275884,0.0,0.0011837855654162192,0.0014335928263825906,-0.9029840556521739,-0.5590163940118578,3.049012894215466e-14,0.40461345,-0.25611948,9.77063247,0.002565,-0.000221,0.005301,0.1664085192356425
1757069196.9273524,0.6357523547973886,0.769911411170928,0.0,0.0011743265446598327,0.0014221377244645402,-0.9029840556521739,-0.5590163940118578,2.8633566179708694e-14,0.40461345,-0.25611948,9.77063247,0.002565,-0.000221,0.005301,0.16242311666671394
1757069196.9484782,0.6483652960571774,0.785185986767954,0.0,0.0011810737900833778,0.001430308801152434,-0.9029840556521739,-0.5590163940118578,2.6876865727859728e-14,0.39682431,-0.25222491,9.76508982,0.00237,-0.001071,0.005197,0.16266829175939118
1757069196.971541,0.6733738941164327,0.8154720012481427,0.0,0.0011860684262200239,0.0014363574257894214,-0.9029840556521739,-0.5590163940118578,2.368062606343974e-14,0.40266126,-0.2576106,9.775419750000001,0.004491,0.000421,0.004362,0.16245369680480412
1757069196.9924765,0.6857718203464515,0.8304861884663541,0.0,0.0011655285224245835,0.00141148310767305,-0.9029840556521739,-0.5590163940118578,2.224013178767703e-14,0.40565331,-0.24309180000000002,9.765246780000002,0.003802,-0.000274,0.004894,0.16270995067663746
1757069197.013017,0.6981043441728326,0.8454211717988095,0.0,0.001161405076861476,0.0014064895157997013,-0.9029840556521739,-0.5590163940118578,2.0879039395434207e-14,0.40550616,-0.27363033000000003,9.7692885,0.003292,-0.000294,0.003148,0.16298181875644624
1757069197.0333586,0.6981043441728326,0.8454211717988095,0.0,0.001161405076861476,0.0014064895157997013,-0.9029840556521739,-0.5590163940118578,2.0879039395434207e-14,0.40550616,-0.27363033000000003,9.7692885,0.003292,-0.000294,0.003148,0.16298181875644624
1757069197.0537996,0.7165885114396875,0.8678011800030948,0.0,0.0009415246682711416,0.0011400131052797958,-0.9029840556521739,-0.5590163940118578,1.83847797024329e-14,0.40985199,-0.24444558,9.7695828,0.004806,0.000778,0.004484,0.16268770288297668
1757069197.0745811,0.72277168466166,0.8752844123174901,0.0,0.0007736000869178617,0.0009365352964891106,-0.9029840556521739,-0.5590163940118578,1.7259290305965886e-14,0.39966921,-0.25252902000000005,9.77482134,0.003791,-0.000584,0.003669,0.1631897881277034
1757069197.0949903,0.7289157877701365,0.8827203570916777,0.0,0.0006825368060845884,0.0008261978189687123,-0.9029840556521739,-0.5590163940118578,1.620898998031648e-14,0.3990708,-0.25521696000000005,9.76464837,0.00455,-0.000566,0.005551,0.16314970021906777
1757069197.115753,0.735027190592131,0.8901167259782586,0.0,0.0006310265535970807,0.0007637862162819148,-0.9029840556521739,-0.5590163940118578,1.5221575387901127e-14,0.38529756,-0.26210358,9.77706783,0.00334,-0.00054,0.004739,0.16333521955945046
1757069197.1357827,0.7411071641501119,0.8974750571150005,0.0,0.0006081496573463265,0.0007360600516730571,-0.9029840556521739,-0.5590163940118578,1.4287706705440737e-14,0.40131729000000005,-0.26061246,9.78574968,0.003757,-0.000824,0.002954,0.16358594509884308
1757069197.156569,0.7471558368819772,0.9047955059498141,0.0,0.0006028095841764838,0.0007295764362326851,-0.9029840556521739,-0.5590163940118578,1.3404131512171921e-14,0.39697146000000005,-0.25312743,9.783807300000001,0.004453,-0.001149,0.003546,0.16376647728685695
1757069197.177368,0.7531646722012953,0.9120677410059752,0.0,0.0005907012314846521,0.0007149125981969405,-0.9029840556521739,-0.5590163940118578,1.2589230237126342e-14,0.39667716000000003,-0.26360451,9.76195062,0.002862,-9.7e-05,0.004616,0.16336682619480764
1757069197.1978867,0.7591443178670826,0.9193046491452824,0.0,0.0005782201133712633,0.0006998015639057707,-0.9029840556521739,-0.5590163940118578,1.1822274465626563e-14,0.40416219000000003,-0.2630061,9.759409830000001,0.002925,-0.001231,0.003365,0.16368221201804614
1757069197.2187943,0.7650945432337879,0.9265059511402611,0.0,0.0005785873756763762,0.0007002428433764766,-0.9029840556521739,-0.5590163940118578,1.1094883214388042e-14,0.40894947000000004,-0.25671789,9.76568823,0.003438,-0.000106,0.005043,0.16401002289752126
1757069197.2410614,0.7710178033253564,0.9336746182032651,0.0,0.0005939767778304333,0.0007188662505707252,-0.9029840556521739,-0.5590163940118578,1.040066993839295e-14,0.40117014,-0.25791471,9.775272600000001,0.003602,-0.000327,0.003184,0.16434095013109606
1757069197.261493,0.7768975557912594,0.9407906298234024,0.0,0.0005881541450118042,0.0007118186523649987,-0.9029840556521739,-0.5590163940118578,9.767731347290681e-15,0.40385808000000006,-0.25701219000000003,9.771525180000001,0.00214,-0.000116,0.004203,0.163589599033999
1757069197.2816758,0.7827518458853588,0.947875825440805,0.0,0.0005745993771044124,0.0006954134485818576,-0.9029840556521739,-0.5590163940118578,9.170759246053776e-15,0.39787398,-0.24608385000000002,9.77377167,0.00214,-0.000116,0.004203,0.16406690781655264
1757069197.3021245,0.7885723093090538,0.9549200820890822,0.0,0.0005640864915395651,0.0006826899157413438,-0.9029840556521739,-0.5590163940118578,8.61292204277539e-15,0.40985199,-0.26869590000000004,9.78605379,0.003165,0.001484,0.003306,0.16408899823696824
1757069197.322382,0.7943627673847236,0.9619280245542072,0.0,0.0005585951941441007,0.000676043901294685,-0.9029840556521739,-0.5590163940118578,8.088180404889927e-15,0.40804695,-0.26150517,9.77512545,0.003227,-0.000234,0.002426,0.1642821708331937
1757069197.3429775,0.800121931289835,0.9688980930293021,0.0,0.0005561144502529776,0.0006730414924509783,-0.9029840556521739,-0.5590163940118578,7.595573684360832e-15,0.39278259,-0.25866027,9.76209777,0.002842,-0.000286,0.00389,0.16436767556121873
1757069197.3635361,0.8058567869158907,0.9758387422393408,0.0,0.000568880083627526,0.0006884911487984082,-0.9029840556521739,-0.5590163940118578,7.124730630124617e-15,0.40894947000000004,-0.24743763,9.78230637,0.00488,0.00091,0.004654,0.1648278019097345
1757069197.3839586,0.8115536896655176,0.9827334587139922,0.0,0.0005668468653995942,0.0006860304138891667,-0.9029840556521739,-0.5590163940118578,6.6901309574953646e-15,0.40400523,-0.26121087000000004,9.78934014,0.0036,0.000539,0.003721,0.1643728068036985
1757069197.4043498,0.8172237554769411,0.989595695596235,0.0,0.000559950975557729,0.0006776846043361231,-0.9029840556521739,-0.5590163940118578,6.281406225524084e-15,0.40356378000000004,-0.26210358,9.78156081,0.004172,0.000362,0.004231,0.16464036358016818
1757069197.4244328,0.8228632579117532,0.996420942937689,0.0,0.0005543911227406454,0.0006709557478468847,-0.9029840556521739,-0.5590163940118578,5.898180693583055e-15,0.40101318,-0.24773193000000002,9.775871010000001,0.004671,-0.001745,0.003805,0.1647256449628967
1757069197.4445302,0.8284830244174685,1.00322230473267,0.0,0.0005735964802347438,0.000694199162955089,-0.9029840556521739,-0.5590163940118578,5.5285691907625295e-15,0.38484630000000003,-0.24938001,9.77287896,0.001549,-7.9e-05,0.004201,0.16538108516717412
1757069197.4648051,0.8340605299920837,1.0099725199395537,0.0,0.0005703775214382254,0.0006903033941558998,-0.9029840556521739,-0.5590163940118578,5.1916834478515414e-15,0.40236696,-0.27273762,9.77737194,0.003491,-0.000946,0.002913,0.16456125140822644
1757069197.4850018,0.8340818505564886,1.0099983233021004,0.0,0.0005703775214382254,0.0006903033941558998,-0.9029840556521739,-0.5590163940118578,5.1916834478515414e-15,0.39667716000000003,-0.24578955000000002,9.775723860000001,0.003017,-0.00065,0.00439,0.1722482918733987
1757069197.5061052,0.8451556935772422,1.023400519419559,0.0,0.0005992456253742106,0.0007252412178956626,-0.9029840556521739,-0.5590163940118578,4.559049842888843e-15,0.40744854,-0.25492266,9.77721498,0.001899,-0.001312,0.003492,0.16474398086845907
1757069197.5266087,0.8506621406516331,1.0300647355786086,0.0,0.0005744172188297441,0.0006951924646833394,-0.9029840556521739,-0.5590163940118578,4.281739877146695e-15,0.4107447,-0.26344755000000003,9.77108373,0.00098,0.000319,0.003906,0.16844142793103517
1757069197.5473082,0.8561200517311711,1.0366702107097552,0.0,0.0005481523951972951,0.0006634052777048429,-0.9029840556521739,-0.5590163940118578,4.0228036222278686e-15,0.4107447,-0.26344755000000003,9.77108373,0.00098,0.000319,0.003906,0.16506298515687234
1757069197.5709622,0.866975772830305,1.0498084232430944,0.0,0.0005383323785282675,0.0006515205336041942,-0.9029840556521739,-0.5590163940118578,3.5466697946151666e-15,0.41104881000000004,-0.26030835,9.77826465,0.001746,-3e-05,0.003648,0.16524267525396655
1757069197.591545,0.8723602209591084,1.0563249893233153,0.0,0.0005300071666827903,0.0006414448876076519,-0.9029840556521739,-0.5590163940118578,3.3320054027766625e-15,0.39502908,-0.25267617,9.7724277,0.00414,0.00173,0.004674,0.16550852312466965
1757069197.6118937,0.8723602209591084,1.0563249893233153,0.0,0.0005300071666827903,0.0006414448876076519,-0.9029840556521739,-0.5590163940118578,3.3320054027766625e-15,0.39502908,-0.25267617,9.7724277,0.00414,0.00173,0.004674,0.16550852312466965
1757069197.6321948,0.8777364800258683,1.0628316445338122,0.0,0.000580809251274648,0.0007029284664748001,-0.9029840556521739,-0.5590163940118578,3.119163397841395e-15,0.40804695,-0.25028253,9.78275763,0.002122,-0.00086,0.003907,0.16666519891212994
1757069197.6534753,0.8830799952989563,1.0692986713385602,0.0,0.0006005642517858343,0.0007268370942742099,-0.9029840556521739,-0.5590163940118578,2.919780278513775e-15,0.4047606,-0.25911153,9.77302611,0.002924,-0.000138,0.002549,0.16625163089704278
1757069197.67419,0.8936645246522857,1.0821086721611208,0.0,0.0005634424873684728,0.0006819102187482224,-0.9029840556521739,-0.5590163940118578,2.573422949615484e-15,0.40117014,-0.26913735,9.75102228,0.003743,0.000347,0.003832,0.16526413342327956
1757069197.6951509,0.8989192114349163,1.0884681936628136,0.0,0.0005326436985128803,0.0006446357687077184,-0.9029840556521739,-0.5590163940118578,2.417888857943118e-15,0.39727557,-0.26284914,9.77003406,0.00322,-0.000489,0.003157,0.1658818538229173
1757069197.7153986,0.9041457195334122,1.0947936117145658,0.0,0.0005164360263034242,0.0006250203198380269,-0.9029840556521739,-0.5590163940118578,2.271966345265817e-15,0.40416219000000003,-0.25297047,9.77960862,0.004045,0.001093,0.003997,0.16606442415649558
1757069197.735658,0.9093464220284008,1.1010877983538367,0.0,0.0005120910837566066,0.0006197618226726305,-0.9029840556521739,-0.5590163940118578,2.1344377501607257e-15,0.40191570000000004,-0.26405577,9.771682140000001,0.003635,0.000899,0.004949,0.16627385505382436
1757069197.7564855,0.9093464220284008,1.1010877983538367,0.0,0.0005120910837566066,0.0006197618226726305,-0.9029840556521739,-0.5590163940118578,2.1344377501607257e-15,0.40191570000000004,-0.26405577,9.771682140000001,0.003635,0.000899,0.004949,0.16627385505382436
1757069197.7765434,0.9196752141164906,1.1135882913590236,0.0,0.0005405577073630348,0.0006542137533762696,-0.9029840556521739,-0.5590163940118578,1.880079813367684e-15,0.40251411,-0.26554689,9.77437008,0.004793,-0.000288,0.004177,0.16596156704052015
1757069197.7970543,0.924799802186919,1.1197903599825871,0.0,0.0005276883309917901,0.0006386385004388263,-0.9029840556521739,-0.5590163940118578,1.7660551974062378e-15,0.40041477000000003,-0.24683922000000003,9.78919299,0.003628,0.000604,0.004126,0.16646138131363117
1757069197.8176463,0.9298965833405928,1.1259587750902873,0.0,0.0005168311003159729,0.0006254984609297078,-0.9029840556521739,-0.5590163940118578,1.659439329276958e-15,0.40041477000000003,-0.25432425000000003,9.78455286,0.005087,-0.000562,0.004237,0.16650700270901878
1757069197.8416154,0.9349787348616642,1.1321094845826112,0.0,0.0005353144977142557,0.0006478681221561753,-0.9029840556521739,-0.5590163940118578,1.5560554242801482e-15,0.39517623,-0.2749743,9.76464837,0.003271,-0.00164,0.00351,0.1673011053146403
1757069197.8625617,0.9400226962524991,1.138213974202193,0.0,0.0005329148031372199,0.000644963874978089,-0.9029840556521739,-0.5590163940118578,1.4618659896356876e-15,0.41449212,-0.23531247000000002,9.76704201,0.002306,-0.002632,0.004024,0.16642950653475153
1757069197.8840315,0.9450481671362523,1.1442960855560045,0.0,0.0005230725115196715,0.0006330521725765973,-0.9029840556521739,-0.5590163940118578,1.3727786559419893e-15,0.39488193,-0.2630061,9.78230637,0.002484,-0.000849,0.00353,0.16694001339489398
1757069197.9045923,0.950045319059033,1.1503439236888493,0.0,0.0005131326540008076,0.0006210223903593324,-0.9029840556521739,-0.5590163940118578,1.2897829310809198e-15,0.40206285,-0.25492266,9.77976558,0.004236,-0.001177,0.003744,0.1668564918886528
1757069197.92557,0.9550193484368558,1.156363777599624,0.0,0.0005066845801482072,0.0006132185637933668,-0.9029840556521739,-0.5590163940118578,1.2116507934114934e-15,0.40206285,-0.25492266,9.77976558,0.004236,-0.001177,0.003744,0.16708691746091406
1757069197.946197,0.9599701424962461,1.1623555108034411,0.0,0.0005070675236900257,0.000613682023898387,-0.9029840556521739,-0.5590163940118578,1.137854868716592e-15,0.40715424,-0.26689086,9.771976440000001,0.002459,-0.000564,0.003624,0.16729859945310235
1757069197.9669034,0.9649087117373352,1.1683324488352418,0.0,0.0005208945465740472,0.0006304162752387326,-0.9029840556521739,-0.5590163940118578,1.0673167956607808e-15,0.40430934,-0.25312743,9.7695828,0.00293,-2.2e-05,0.003829,0.17041334146396162
1757069197.9901278,0.9746789686115149,1.180156970683774,0.0,0.0005070949012888841,0.0006137151578292575,-0.9029840556521739,-0.5590163940118578,9.41784962337325e-16,0.40655583,-0.25896438000000005,9.76733631,0.003136,0.000862,0.004828,0.16734985029324453
1757069198.010758,0.9795340764567161,1.1860328989763327,0.0,0.0005011657808762537,0.0006065393983006613,-0.9029840556521739,-0.5590163940118578,8.845608867808563e-16,0.39742272,-0.27003987,9.76568823,0.003099,0.001956,0.004203,0.16759335415411294
1757069198.0313993,0.9795340764567161,1.1860328989763327,0.0,0.0005011657808762537,0.0006065393983006613,-0.9029840556521739,-0.5590163940118578,8.845608867808563e-16,0.39742272,-0.27003987,9.76568823,0.003099,0.001956,0.004203,0.16759335415411294
1757069198.0522106,0.9891796502932663,1.1977065223048384,0.0,0.0005214505864604125,0.0006310892264077394,-0.9029840556521739,-0.5590163940118578,7.788202305317258e-16,0.39787398,-0.26180928000000003,9.779010210000001,0.004702,0.00144,0.003454,0.16734194383467543
1757069198.0742931,0.9939689153971311,1.2035027639582923,0.0,0.000512463924015391,0.000620213055208253,-0.9029840556521739,-0.5590163940118578,7.310536804111348e-16,0.38185425,-0.27228636,9.77632227,0.00406,-0.000644,0.004325,0.16795851315998414
1757069198.095105,0.9987308498240316,1.2092659284684257,0.0,0.0005025641694674282,0.0006082318078925505,-0.9029840556521739,-0.5590163940118578,6.866508924060812e-16,0.39952206,-0.26075961000000003,9.77063247,0.00432,-0.001114,0.002545,0.1678055199542648
1757069198.1152773,1.0034717408850675,1.215003625097557,0.0,0.0004952898874354278,0.0005994280570876878,-0.9029840556521739,-0.5590163940118578,6.448711995773949e-16,0.40026762,-0.2456424,9.76659075,0.004483,-0.00145,0.00293,0.16804567334897386
1757069198.136117,1.0081904688435896,1.2207144986765601,0.0,0.0004933215227327901,0.0005970458299127066,-0.9029840556521739,-0.5590163940118578,6.055230806385807e-16,0.39921795000000004,-0.26689086,9.76539393,0.003412,-0.00025,0.003693,0.16821011927660873
1757069198.1578135,1.012892037390509,1.2264046049574233,0.0,0.0005053065662906243,0.0006115508128655848,-0.9029840556521739,-0.5590163940118578,5.679124365088579e-16,0.40625172,-0.25476570000000004,9.7664436,0.003082,-0.001264,0.004111,0.168639380759397
1757069198.1787596,1.0175632449261756,1.2320579666116585,0.0,0.0005021180938470029,0.0006076919417469882,-0.9029840556521739,-0.5590163940118578,5.33356905521886e-16,0.40251411,-0.26090676,9.77302611,0.003217,-0.001629,0.003711,0.1680713137835385
1757069198.199529,1.0222162404801216,1.2376892870873932,0.0,0.0004944338913339403,0.0005983920818073402,-0.9029840556521739,-0.5590163940118578,5.008004461947245e-16,0.39772683000000003,-0.26240768999999997,9.76568823,0.0025,-0.00103,0.00378,0.1684305921387006
1757069198.2201595,1.0268455703317276,1.2432919659810298,0.0,0.0004877240648799691,0.0005902714673212957,-0.9029840556521739,-0.5590163940118578,4.703530573207194e-16,0.40221,-0.25237206,9.76240188,0.00227,-0.001055,0.004392,0.16845628929522471
1757069198.2412043,1.03146239402175,1.2488795092049711,0.0,0.0005044997806198064,0.0006105743948538048,-0.9029840556521739,-0.5590163940118578,4.4093825969151657e-16,0.41119596,-0.25461855,9.77617512,0.002275,-0.000787,0.003991,0.16917207716953164
1757069198.2620597,1.0360461341542078,1.2544270128215318,0.0,0.0005020157624072873,0.0006075680944049695,-0.9029840556521739,-0.5590163940118578,4.1411019639208973e-16,0.39756987000000005,-0.24339591000000002,9.76898439,0.002135,0.00017,0.005551,0.16835983225035683
1757069198.2828808,1.0406149483141267,1.2599564521752313,0.0,0.0004944563655716627,0.0005984192814110356,-0.9029840556521739,-0.5590163940118578,3.8869757672248077e-16,0.40101318,-0.25312743,9.771682140000001,0.002825,-0.000656,0.003621,0.16890234507789273
1757069198.3028727,1.0451588142972068,1.2654556978230838,0.0,0.0004861619802279581,0.0005883809434246546,-0.9029840556521739,-0.5590163940118578,3.650442468429363e-16,0.39607875000000003,-0.25432425000000003,9.767493270000001,0.002456,-0.000236,0.005586,0.16878680275286786
1757069198.3234313,1.049685205867093,1.2709337949399135,0.0,0.0004847700541180833,0.0005866963550960455,-0.9029840556521739,-0.5590163940118578,3.426288077542345e-16,0.39876669,-0.24144372,9.78230637,0.002572,0.000538,0.004036,0.1691676971304913
1757069198.343787,1.054189687903035,1.2763853758897532,0.0,0.00048528275944222435,0.0005873168603074474,-0.9029840556521739,-0.5590163940118578,3.2158006904206375e-16,0.39637305000000006,-0.25626663,9.77692068,0.003679,-9.9e-05,0.00453,0.16919589865781048
1757069198.3644788,1.0586755042263254,1.2818143665300532,0.0,0.0004885019250122468,0.0005912128779973579,-0.9029840556521739,-0.5590163940118578,3.016962486510689e-16,0.39996351,-0.25806186000000003,9.76060665,0.003693,-0.000987,0.003859,0.16940164685492512
1757069198.385973,1.0631445573421434,1.2872230693810394,0.0,0.0004821374853902902,0.0005835102703451096,-0.9029840556521739,-0.5590163940118578,2.8335254410066582e-16,0.38560167000000006,-0.26375166,9.75356307,0.004211,-6.1e-05,0.003945,0.17300826326992047
1757069198.4062026,1.067585849301682,1.2925981740980979,0.0,0.0004729942509486631,0.000572444606789529,-0.9029840556521739,-0.5590163940118578,2.6614265901016794e-16,0.4090966200000001,-0.25716915,9.77317326,0.004225,0.001131,0.004945,0.17345599671044995
1757069198.427017,1.0719972130602526,1.297937058000208,0.0,0.0004688154592509473,0.0005673871948538522,-0.9029840556521739,-0.5590163940118578,2.4994905396384404e-16,0.4090966200000001,-0.25716915,9.77317326,0.004225,0.001131,0.004945,0.16949242403863907
1757069198.451296,1.0807842620252859,1.3085716455867171,0.0,0.0004908502646133544,0.000594054972455944,-0.9029840556521739,-0.5590163940118578,2.2001436242708063e-16,0.41104881000000004,-0.2576106,9.77048532,0.003717,0.001502,0.003112,0.16924831657319026
1757069198.4743533,1.0851487943816327,1.313853851456108,0.0,0.0004826123354702897,0.0005840849609820128,-0.9029840556521739,-0.5590163940118578,2.0650215834286697e-16,0.39682431,-0.25461855,9.791439480000001,0.004176,-0.002088,0.003769,0.16986644917739596
1757069198.495067,1.0894891268530713,1.3191067692452043,0.0,0.0004730761452865758,0.0005725437199858746,-0.9029840556521739,-0.5590163940118578,1.939539947125013e-16,0.3962259,-0.25611948,9.767934720000001,0.004244,-0.000396,0.002877,0.1696983421546792
1757069198.5150766,1.0938112934171929,1.3243377016176696,0.0,0.0004656770921933939,0.0005635889641298652,-0.9029840556521739,-0.5590163940118578,1.8215504665369828e-16,0.39952206,-0.26525259,9.7781175,0.003479,-0.000836,0.004018,0.16993807847101416
1757069198.5366642,1.0981187816262914,1.3295508694081073,0.0,0.000473858615455514,0.0005734907099911105,-0.9029840556521739,-0.5590163940118578,1.7087445018887087e-16,0.4076055,-0.26719497000000003,9.76404996,0.002919,-0.001559,0.003282,0.17042212056126166
1757069198.5573637,1.102405286970625,1.334738642539423,0.0,0.00047938551838441756,0.0005801796829914261,-0.9029840556521739,-0.5590163940118578,1.6028619594725718e-16,0.39936510000000003,-0.25581537,9.78110955,0.002349,-1.9e-05,0.005337,0.1703395146039221
1757069198.5777018,1.1066667996418098,1.3398961681129207,0.0,0.0004717484150165462,0.0005709368251223005,-0.9029840556521739,-0.5590163940118578,1.5056764367376979e-16,0.40849821,-0.25012557,9.78230637,0.002912,-0.001455,0.00331,0.16988033385446133
1757069198.5979125,1.110913188122713,1.3450353895291445,0.0,0.0004624498641537144,0.0005596831887795537,-0.9029840556521739,-0.5590163940118578,1.4139309928918056e-16,0.40461345,-0.26509562999999997,9.75685923,0.002255,-0.000862,0.003819,0.17033909075310116
1757069198.6180937,1.1151391345183714,1.3501498707684503,0.0,0.00045715144967546027,0.000553270745527804,-0.9029840556521739,-0.5590163940118578,1.3279422630876054e-16,0.40595742000000007,-0.25506981,9.77422293,0.002371,0.00039,0.003963,0.17040753872674233
1757069198.6409998,1.1193551316384642,1.3552523108272811,0.0,0.000476117057605195,0.0005762240054291377,-0.9029840556521739,-0.5590163940118578,1.2447492616003313e-16,0.39667716000000003,-0.26284914,9.78574968,0.002072,-0.000675,0.003389,0.1711236854206127
1757069198.6619031,1.1235414166336302,1.3603187915787076,0.0,0.0004749034916237195,0.0005747552786958092,-0.9029840556521739,-0.5590163940118578,1.1688759308832076e-16,0.39936510000000003,-0.25566822,9.77003406,0.004274,-0.000641,0.004334,0.1702950053816205
1757069198.6823611,1.1277143043094537,1.3653690581305158,0.0,0.00046633893814952785,0.0005643899678362621,-0.9029840556521739,-0.5590163940118578,1.0972666097819541e-16,0.40311252,-0.24473988000000002,9.77048532,0.00278,6.1e-05,0.002811,0.17075543300259227
1757069198.7026982,1.1318664019573332,1.3703941634053158,0.0,0.0004582606447474296,0.0005546131566365074,-0.9029840556521739,-0.5590163940118578,1.0304242998613329e-16,0.40505490000000005,-0.26121087000000004,9.775272600000001,0.003697,0.001017,0.004858,0.17074005353409888
1757069198.7230644,1.1360006677465118,1.375397687548163,0.0,0.00045245375619033454,0.0005475853290676314,-0.9029840556521739,-0.5590163940118578,9.676629460498449e-17,0.39084021,-0.26989272000000003,9.76943565,0.003878,0.000832,0.004699,0.1709035357362657
1757069198.743155,1.140117743946211,1.3803804078698847,0.0,0.00045180614337000534,0.0005468015511135829,-0.9029840556521739,-0.5590163940118578,9.084689054383344e-17,0.40071888000000006,-0.24923286000000003,9.77721498,0.002724,-0.000472,0.003586,0.1711133165698686
1757069198.76352,1.140117743946211,1.3803804078698847,0.0,0.00045180614337000534,0.0005468015511135829,-0.9029840556521739,-0.5590163940118578,9.084689054383344e-17,0.40071888000000006,-0.24923286000000003,9.77721498,0.002724,-0.000472,0.003586,0.1711133165698686
1757069198.7843156,1.1442470629457813,1.3853779451259438,0.0,0.0005433981225735791,0.0006576513857893856,-0.9029840556521739,-0.5590163940118578,8.479011933775388e-17,0.40131729000000005,-0.25746345000000004,9.76809168,0.004375,0.000357,0.004379,0.17266135062558483
1757069198.8044174,1.152403947766805,1.3952498721411948,0.0,0.000535636055087549,0.0006482572892205528,-0.9029840556521739,-0.5590163940118578,7.443376190376957e-17,0.41045040000000005,-0.24324876,9.779010210000001,0.003083,-0.000652,0.003542,0.17060579698480563
1757069198.8246946,1.1564588621373595,1.4001573606735853,0.0,0.0004960118211237556,0.0006003017823930463,-0.9029840556521739,-0.5590163940118578,6.984452950026835e-17,0.39682431,-0.25461855,9.78574968,0.002725,0.000934,0.003502,0.17119547129804916
1757069198.8460329,1.160498570992929,1.4050464466249102,0.0,0.0004719729231718194,0.0005712085376904944,-0.9029840556521739,-0.5590163940118578,6.550365027369272e-17,0.40894947000000004,-0.26284914,9.779314320000001,0.003214,-0.001137,0.003891,0.17169461115470724
1757069198.8668847,1.1645108563555908,1.4099023431017699,0.0,0.00045315893609394823,0.0005484387779876347,-0.9029840556521739,-0.5590163940118578,6.15640715997051e-17,0.40266126,-0.2630061,9.7695828,0.003425,-0.001608,0.005143,0.170981684819614
1757069198.8897269,1.1724881825712186,1.4195569580565557,0.0,0.0004235348492897066,0.0005125860193375225,-0.9029840556521739,-0.5590163940118578,5.439165473332179e-17,0.39847239000000007,-0.25162650000000003,9.783208890000001,0.001936,0.000218,0.004582,0.17145985210514403
1757069198.910275,1.1764506054632033,1.4243525081288595,0.0,0.0004192652479513025,0.0005074187043978403,-0.9029840556521739,-0.5590163940118578,5.113042102703563e-17,0.40236696,-0.25207776000000004,9.77302611,0.00191,-0.002526,0.004701,0.17185191754565973
1757069198.932801,1.1803971690424147,1.4291288643567424,0.0,0.0004257263890712693,0.000515238345715706,-0.9029840556521739,-0.5590163940118578,4.803496125985786e-17,0.39892365,-0.26824464000000003,9.77302611,0.002666,-1.4e-05,0.005105,0.17214019461120156
1757069198.9539423,1.180408082438619,1.4291420723709758,0.0,0.0004257263890712693,0.000515238345715706,-0.9029840556521739,-0.5590163940118578,4.803496125985786e-17,0.39188987999999997,-0.25028253,9.77886306,0.002805,-0.000247,0.002892,0.17741027794119407
1757069198.9747524,1.1882387982653586,1.4386192510752154,0.0,0.0004417836489425985,0.0005346717569986647,-0.9029840556521739,-0.5590163940118578,4.236231991323359e-17,0.40221,-0.25356888,9.77257485,0.002952,0.000559,0.005336,0.1718214129087725
1757069198.9952831,1.1921333022683587,1.4433326018361736,0.0,0.0004337529313307408,0.000524952524732443,-0.9029840556521739,-0.5590163940118578,3.981118693021189e-17,0.40266126,-0.26465418,9.779314320000001,0.003301,-4e-05,0.003997,0.1721565478188532
1757069199.0157201,1.1960115023480689,1.4480262206597179,0.0,0.00043004481741346654,0.0005204647538788914,-0.9029840556521739,-0.5590163940118578,3.740546631799135e-17,0.40280841,-0.26539974000000005,9.78170796,0.004773,-0.000796,0.00447,0.1723825942262629
1757069199.0370152,1.1960248366673252,1.4480423586130402,0.0,0.00043004481741346654,0.0005204647538788914,-0.9029840556521739,-0.5590163940118578,3.740546631799135e-17,0.40191570000000004,-0.25042968,9.779167170000001,0.004439,0.000243,0.002995,0.1787580613125926
1757069199.0571864,1.2037235644345357,1.4573597978433084,0.0,0.00045147406040514643,0.0005463996453782403,-0.9029840556521739,-0.5590163940118578,3.29490478261323e-17,0.40026762,-0.26853894,9.755211150000001,0.002927,-0.001261,0.003788,0.17210169651580245
1757069199.0778873,1.2075565325116093,1.4619986743186917,0.0,0.00044424930923096985,0.0005376558396411541,-0.9029840556521739,-0.5590163940118578,3.0931637635204065e-17,0.39457782,-0.24788889,9.76809168,0.003343,0.00045,0.004153,0.17278859247045544
1757069199.0989552,1.2113676382333776,1.4666110917253627,0.0,0.00043425133097966395,0.0005255557164001631,-0.9029840556521739,-0.5590163940118578,2.906680530553137e-17,0.39832524,-0.25836597,9.76704201,0.003988,-0.000213,0.004334,0.17247879447282694
1757069199.1196055,1.2151657680016206,1.471207804893349,0.0,0.0004275397011423675,0.0005174329193568117,-0.9029840556521739,-0.5590163940118578,2.7303277515479484e-17,0.39742272,-0.26270199,9.77960862,0.004401,0.00104,0.003085,0.17288204295399692
1757069199.1398685,1.218946684395838,1.4757836854547954,0.0,0.0004244624767063437,0.000513708686918997,-0.9029840556521739,-0.5590163940118578,2.564803815872678e-17,0.39936510000000003,-0.25611948,9.771230880000001,0.002306,0.000584,0.003839,0.17293553530668143
1757069199.1599817,1.2227169435201495,1.4803466679806556,0.0,0.00043470399494782393,0.00052610355613974,-0.9029840556521739,-0.5590163940118578,2.4062116950403206e-17,0.41104881000000004,-0.24892875000000003,9.77886306,0.003327,0.000271,0.004577,0.1734367272266477
1757069199.1800032,1.2264637885389582,1.4848813134212535,0.0,0.00043195742724697327,0.0005227795033327961,-0.9029840556521739,-0.5590163940118578,2.2606370780566464e-17,0.38964339,-0.25806186000000003,9.78589683,0.002538,-0.001995,0.005467,0.17282849398053007
1757069199.2010021,1.2301993944007688,1.4894023565933339,0.0,0.00042710045681061324,0.0005169013208262349,-0.9029840556521739,-0.5590163940118578,2.1228288490577072e-17,0.40221,-0.26539974000000005,9.77392863,0.004174,0.000545,0.004082,0.17329433254518922
1757069199.2214096,1.233918840652156,1.4939038424836584,0.0,0.0004254300381792724,0.0005148796849719429,-0.9029840556521739,-0.5590163940118578,1.9932010980390817e-17,0.3962259,-0.2576106,9.77797035,0.001369,-0.000975,0.003814,0.17339727698929258
1757069199.2414448,1.2376294003453157,1.498394573354614,0.0,0.00043974824931295646,0.0005322084003335189,-0.9029840556521739,-0.5590163940118578,1.868486124728424e-17,0.3990708,-0.24698637000000004,9.78170796,0.001327,-0.000661,0.004528,0.1739561738149359
1757069199.262474,1.2413143719157214,1.502854336020694,0.0,0.0004367374057554473,0.0005285645058191008,-0.9029840556521739,-0.5590163940118578,1.7550448023671475e-17,0.40685013000000003,-0.25177365,9.77706783,0.003206,-0.000479,0.004825,0.17309642629
1757069199.2828395,1.2449898830161514,1.5073026490866905,0.0,0.0004280838436560255,0.0005180914716471277,-0.9029840556521739,-0.5590163940118578,1.6475993327762233e-17,0.39787398,-0.25581537,9.77452704,0.002779,0.00043,0.00356,0.17367794929789576
1757069199.3039203,1.248648415788608,1.5117304140122787,0.0,0.00042213424464599797,0.0005108909277525251,-0.9029840556521739,-0.5590163940118578,1.5469981917527863e-17,0.40296537000000004,-0.26001405,9.77077962,0.0024,-0.001429,0.002263,0.17370650331149343
1757069199.3260598,1.2522999571532043,1.5161497175375112,0.0,0.00041850638277214847,0.000506500282496907,-0.9029840556521739,-0.5590163940118578,1.4524683470760204e-17,0.39592179,-0.26629245,9.77991273,0.002647,0.00031,0.00338,0.17760889210589478
1757069199.34671,1.2559198985534443,1.5205307769844398,0.0,0.00041433933338730616,0.0005014570817776713,-0.9029840556521739,-0.5590163940118578,1.3641197469366936e-17,0.39592179,-0.26629245,9.77991273,0.002647,0.00031,0.00338,0.1738422652215007
1757069199.3694384,1.263134464215287,1.529262255633848,0.0,0.00042305381164112036,0.0005120038401523772,-0.9029840556521739,-0.5590163940118578,1.201652322012054e-17,0.3905361,-0.25506981,9.77362452,0.003344,0.001703,0.002818,0.1736858162801484
1757069199.3912745,1.2631455688251085,1.5292756950657016,0.0,0.00042305381164112036,0.0005120038401523772,-0.9029840556521739,-0.5590163940118578,1.201652322012054e-17,0.41134311000000007,-0.26405577,9.76613949,0.003758,0.000498,0.003132,0.17908111907211371
1757069199.4119594,1.2667230696232452,1.5336053904765259,0.0,0.00042228094277351104,0.0005110684701893571,-0.9029840556521739,-0.5590163940118578,1.1274513084747538e-17,0.41134311000000007,-0.26405577,9.76613949,0.003758,0.000498,0.003132,0.17448013046715705
1757069199.4333138,1.2738545557935008,1.5422363215890476,0.0,0.0004342796635558838,0.0005255900060990782,-0.9029840556521739,-0.5590163940118578,9.917226582990337e-18,0.40744854,-0.25851312000000004,9.77467419,0.003556,-0.000976,0.004548,0.17393027513923054
1757069199.4539793,1.2773949310831116,1.5465210855930156,0.0,0.0004174778578141145,0.0005052555029589013,-0.9029840556521739,-0.5590163940118578,9.317865786901645e-18,0.40849821,-0.2573163,9.75910572,0.003594,0.000182,0.004251,0.17413673436141652
1757069199.4759936,1.2809264384176238,1.550795117092182,0.0,0.0004138596123706995,0.0005008764960556049,-0.9029840556521739,-0.5590163940118578,8.743691724154733e-18,0.39412656000000007,-0.26105391,9.77422293,0.002901,-0.001532,0.003684,0.17487996022731453
1757069199.4963918,1.2844385800091263,1.5550457110651625,0.0,0.00040946661487593325,0.0004955598400529683,-0.9029840556521739,-0.5590163940118578,8.211194163837165e-18,0.40146444000000003,-0.24624081,9.76568823,0.002955,-0.002033,0.005917,0.17456789841712603
1757069199.5170875,1.287937784360718,1.5592806476528818,0.0,0.00040459195213938225,0.0004896602453161195,-0.9029840556521739,-0.5590163940118578,7.711178769299565e-18,0.40715424,-0.25492266,9.77512545,0.003582,0.000371,0.004503,0.17475925247977075
1757069199.53764,1.2914225350895459,1.5634980916423644,0.0,0.0004014077867310493,0.0004858065868171627,-0.9029840556521739,-0.5590163940118578,7.241992046707295e-18,0.40296537000000004,-0.27961443,9.75910572,0.001991,-0.002516,0.002883,0.17486670633847862
1757069199.5579484,1.294894469172017,1.5677000241957797,0.0,0.0004021922974217831,0.0004867560463782009,-0.9029840556521739,-0.5590163940118578,6.799107745674785e-18,0.40206285,-0.24758478,9.77347737,0.002878,-0.001201,0.004595,0.17508875273875024
1757069199.5786436,1.2983502113898748,1.5718823604315793,0.0,0.0003999203033616532,0.0004840063496455858,-0.9029840556521739,-0.5590163940118578,6.386268571492745e-18,0.3930867,-0.26180928000000003,9.7664436,0.002191,0.000986,0.004515,0.17497482704966372
1757069199.5992424,1.3017980916865788,1.5760551817222093,0.0,0.0004091491209956004,0.000495175590859409,-0.9029840556521739,-0.5590163940118578,5.990257680818018e-18,0.41268708000000004,-0.25581537,9.77797035,0.002537,0.000256,0.003605,0.1755729449639746
1757069199.6199913,1.3052243490203432,1.5802018336704151,0.0,0.00040611408319768025,0.0004915024150959887,-0.9029840556521739,-0.5590163940118578,5.627646268808882e-18,0.41208867000000005,-0.26509562999999997,9.77407578,0.003911,0.000112,0.004074,0.17491460444638435
1757069199.6409843,1.308642692706734,1.5843389080714307,0.0,0.000403604423730558,0.0004884650821390849,-0.9029840556521739,-0.5590163940118578,5.282540274208347e-18,0.41224563,-0.25402014,9.77273181,0.002658,0.000344,0.004051,0.17552697052190294
1757069199.661618,1.3120436891219511,1.588454987815945,0.0,0.00039908810978865996,0.0004829991815421483,-0.9029840556521739,-0.5590163940118578,4.961691756113689e-18,0.40655583,-0.26853894,9.76584519,0.003988,0.000395,0.003997,0.17533155513606355
1757069199.6823127,1.3154358618141955,1.5925603885878983,0.0,0.0004023854114121569,0.00048698976393832645,-0.9029840556521739,-0.5590163940118578,4.655723531420846e-18,0.39921795000000004,-0.25461855,9.767493270000001,0.004686,0.000425,0.003438,0.17583725236860462
1757069199.7027082,1.3154358618141955,1.5925603885878983,0.0,0.0004023854114121569,0.00048698976393832645,-0.9029840556521739,-0.5590163940118578,4.655723531420846e-18,0.39921795000000004,-0.25461855,9.767493270000001,0.004686,0.000425,0.003438,0.17583725236860462
1757069199.7230084,1.3188373506225444,1.596677064254651,0.0,0.0004735994390389509,0.000573177039916747,-0.9029840556521739,-0.5590163940118578,4.345952513511187e-18,0.40849821,-0.26284914,9.77960862,0.003722,0.001324,0.003999,0.17712357306242643
1757069199.743512,1.3255601134413748,1.60481333506692,0.0,0.0004645727320942928,0.0005622524045809573,-0.9029840556521739,-0.5590163940118578,3.8167059935995185e-18,0.40146444000000003,-0.25088094,9.79398027,0.004626,3.1e-05,0.002623,0.1751314877193252
1757069199.763944,1.328898843140208,1.6088540560815874,0.0,0.0004331261819857399,0.0005241939969456147,-0.9029840556521739,-0.5590163940118578,3.587318556062832e-18,0.40206285,-0.25521696000000005,9.78605379,0.003676,-0.001643,0.00518,0.17513062725933468
1757069199.7844088,1.3322299913271665,1.6128856015183797,0.0,0.0004042543256686878,0.0004892516305139928,-0.9029840556521739,-0.5590163940118578,3.3688063264057167e-18,0.41104881000000004,-0.25776756,9.78634809,0.002817,0.000732,0.003578,0.17608025711467906
1757069199.8046477,1.335550931447327,1.6169047925707953,0.0,0.00039136738911078216,0.00047365512523762617,-0.9029840556521739,-0.5590163940118578,3.1639755741408348e-18,0.38948643000000005,-0.25028253,9.784248750000001,0.004039,-0.001113,0.004143,0.17902428868459663
1757069199.8256752,1.3388440932837542,1.620890364760662,0.0,0.0003803578148573315,0.00046033071084612714,-0.9029840556521739,-0.5590163940118578,2.9747596726123336e-18,0.38948643000000005,-0.25028253,9.784248750000001,0.004039,-0.001113,0.004143,0.1758835072780012
1757069199.8494039,1.3454077211205488,1.6288340413457598,0.0,0.0003780755275014057,0.00045756855658014335,-0.9029840556521739,-0.5590163940118578,2.6261131271885457e-18,0.40670298000000005,-0.25297047,9.77601816,0.002326,-0.000809,0.005119,0.17626136721675684
1757069199.8707771,1.3454174982707425,1.6288458742102967,0.0,0.0003780755275014057,0.00045756855658014335,-0.9029840556521739,-0.5590163940118578,2.6261131271885457e-18,0.40535900999999996,-0.25162650000000003,9.78859458,0.002266,-0.000646,0.00616,0.18157702901175737
1757069199.8908782,1.3519210944409126,1.6367168970501806,0.0,0.0003847479821446501,0.00046564394157036715,-0.9029840556521739,-0.5590163940118578,2.3165309576847136e-18,0.40505490000000005,-0.24294465,9.77991273,0.003022,-0.000102,0.00375,0.1764127133377228
1757069199.9139714,1.3551608632141738,1.6406378499111904,0.0,0.00038683668417404695,0.0004681718078383408,-0.9029840556521739,-0.5590163940118578,2.174837087702835e-18,0.39653001,-0.2456424,9.77617512,0.002913,-0.000672,0.005423,0.17694156857581303
1757069199.934101,1.358383809478755,1.644538443213184,0.0,0.00038365995076287696,0.0004643271439660315,-0.9029840556521739,-0.5590163940118578,2.043444782516202e-18,0.39352815,-0.26315325,9.7784118,0.00158,-0.000374,0.00325,0.17664424820381983
1757069199.954133,1.361598836195844,1.648429451827328,0.0,0.0003858182118345013,0.0004669391945523065,-0.9029840556521739,-0.5590163940118578,1.918183338386063e-18,0.41164722000000004,-0.25746345000000004,9.772280550000001,0.003104,-0.000352,0.003788,0.1771592581606259
1757069199.9745202,1.3647981156611042,1.652301402219595,0.0,0.00038411964718904854,0.0004648834947871982,-0.9029840556521739,-0.5590163940118578,1.8015764825623445e-18,0.41104881000000004,-0.24758478,9.774968490000001,0.00563,0.00144,0.00557,0.17694243653255481
1757069199.9947782,1.3679878337156244,1.6561617808475104,0.0,0.00038437931166275096,0.0004651977555361347,-0.9029840556521739,-0.5590163940118578,1.6911758580734254e-18,0.39653001,-0.25492266,9.759252870000001,0.003149,0.000451,0.002778,0.17727063324420755
1757069200.015423,1.3711614444718827,1.6600026655048306,0.0,0.0003795362288132136,0.000459336380578845,-0.9029840556521739,-0.5590163940118578,1.5889384547125872e-18,0.41179437,-0.27123669,9.77407578,0.003321,4.6e-05,0.004094,0.17699029387328058
1757069200.0357594,1.3711614444718827,1.6600026655048306,0.0,0.0003795362288132136,0.000459336380578845,-0.9029840556521739,-0.5590163940118578,1.5889384547125872e-18,0.41179437,-0.27123669,9.77407578,0.003321,4.6e-05,0.004094,0.17699029387328058
1757069200.057133,1.3774890503267867,1.6676606948323853,0.0,0.00041286122954530897,0.0004996681962448576,-0.9029840556521739,-0.5590163940118578,1.3958334980184965e-18,0.40026762,-0.25297047,9.78485697,0.003614,0.000516,0.005004,0.17709303900275364
1757069200.0772815,1.3806317183149686,1.6713171698664115,0.0,0.0003994373841267818,0.00047537038417130704,-0.9029840556521739,-0.5590163940118578,1.3100882560660561e-18,0.41538483,-0.25072398,9.77946147,0.003845,-6.5e-05,0.003948,0.17739288683880255
1757069200.0979395,1.3837582066492757,1.6749547428932476,0.0,0.0003832370538160147,0.0004520800905233938,-0.9029840556521739,-0.5590163940118578,1.2312394930767372e-18,0.39278259,-0.25476570000000004,9.768533130000002,0.004874,-0.001015,0.004828,0.177142666121151
1757069200.1189144,1.3868749813909762,1.6785810527398877,0.0,0.00036974586081839014,0.00043357497771050315,-0.9029840556521739,-0.5590163940118578,1.1569603763204033e-18,0.40400523,-0.26150517,9.779010210000001,0.004501,-0.000184,0.003675,0.1775891388914994
1757069200.1393073,1.389979779707619,1.6821934099651312,0.0,0.000365151569212008,0.0004266528215426004,-0.9029840556521739,-0.5590163940118578,1.086955209867379e-18,0.40954788000000003,-0.26344755000000003,9.76164651,0.004404,-0.001635,0.002982,0.17780798698510733
1757069200.1625693,1.3930816162257256,1.6858023267177267,0.0,0.0003891591890269385,0.00045362031645528435,-0.9029840556521739,-0.5590163940118578,1.0186100566995873e-18,0.39068325000000004,-0.25506981,9.76898439,0.003564,-0.000944,0.005131,0.17863357024330542
1757069200.1826315,1.3961605330166242,1.6893845477514136,0.0,0.000390442660053862,0.000454759101900816,-0.9029840556521739,-0.5590163940118578,9.566909893144427e-19,0.40969503,-0.25402014,9.75895857,0.001749,-0.001253,0.005806,0.17756360800957144
1757069200.2035925,1.39923262922248,1.6929588406592666,0.0,0.0003812217280203283,0.0004438049315812529,-0.9029840556521739,-0.5590163940118578,8.982927180171011e-19,0.40581027000000003,-0.25476570000000004,9.77646942,0.002715,-0.001819,0.004621,0.1780650696135952
1757069200.2239397,1.39923262922248,1.6929588406592666,0.0,0.0003812217280203283,0.0004438049315812529,-0.9029840556521739,-0.5590163940118578,8.982927180171011e-19,0.40581027000000003,-0.25476570000000004,9.77646942,0.002715,-0.001819,0.004621,0.1780650696135952
1757069200.2456067,1.4023187928566312,1.6965495044200558,0.0,0.00044970971181562745,0.0005233282438989137,-0.9029840556521739,-0.5590163940118578,8.383601407951554e-19,0.39742272,-0.26061246,9.76972995,0.001791,-0.000951,0.003047,0.17975542602052744
1757069200.2661932,1.4084161308541392,1.7036435693470797,0.0,0.00043994519704951865,0.000511898379176573,-0.9029840556521739,-0.5590163940118578,7.359083803573594e-19,0.38933928,-0.25836597,9.77737194,0.002735,-0.001103,0.004219,0.17772316345879563
1757069200.2888384,1.4144632783160722,1.710679240383455,0.0,0.0003791164013195452,0.00044110330412934707,-0.9029840556521739,-0.5590163940118578,6.499991415436028e-19,0.39787398,-0.24908571000000002,9.76374585,0.00197,-7.7e-05,0.003262,0.17774174602312884
1757069200.3132713,1.4174727977159276,1.7141807242284945,0.0,0.00035938977298999525,0.00041814592019168357,-0.9029840556521739,-0.5590163940118578,6.108359706534869e-19,0.39158577000000006,-0.25012557,9.76733631,0.003194,0.001564,0.004755,0.17871973588485185
1757069200.3338435,1.4204662081539208,1.7176634656717182,0.0,0.0003492070901718864,0.00040629565264595956,-0.9029840556521739,-0.5590163940118578,5.744776656190758e-19,0.41194152000000006,-0.25686504,9.772133400000001,0.003745,-0.000798,0.004929,0.1785070643123766
1757069200.3572245,1.4234551213723223,1.7211409747697055,0.0,0.00035944479569827956,0.00041820494056688673,-0.9029840556521739,-0.5590163940118578,5.392894779060682e-19,0.41433516000000004,-0.25597233,9.7724277,0.002734,0.000473,0.005169,0.17931954837170444
1757069200.3771453,1.4264250203257207,1.724596361302188,0.0,0.00035873484253723327,0.0004173781127015331,-0.9029840556521739,-0.5590163940118578,5.070597446340265e-19,0.4016115900000001,-0.25506981,9.78110955,0.004801,-0.00027,0.003999,0.1785920303989333
1757069200.3981209,1.429389278812594,1.7280451853382301,0.0,0.0003592245111637056,0.0004179472979374012,-0.9029840556521739,-0.5590163940118578,4.762875574104675e-19,0.40191570000000004,-0.25102809000000004,9.78005988,0.005566,-0.000626,0.00414,0.17923666778038178
1757069200.4187589,1.4323389470191061,1.731477034021279,0.0,0.0003567780098141659,0.000415100610755339,-0.9029840556521739,-0.5590163940118578,4.476516657882467e-19,0.39861954000000005,-0.27018702,9.77032836,0.004371,-0.000691,0.004094,0.17901719581792447
1757069200.4390013,1.4352818097093594,1.7349009646959719,0.0,0.0003605801080258245,0.0004195240814799392,-0.9029840556521739,-0.5590163940118578,4.203109639985206e-19,0.40685013000000003,-0.25028253,9.77976558,0.00341,-0.001661,0.005126,0.17951936402009877
1757069200.4591384,1.438209850467115,1.7383076505033839,0.0,0.0003588144606347356,0.00041746973230827127,-0.9029840556521739,-0.5590163940118578,3.9493706627264083e-19,0.38814245999999997,-0.26435007,9.774968490000001,0.005263,0.001437,0.004483,0.1792067840159454
1757069200.4792283,1.4411320214955612,1.7417075070609802,0.0,0.0003629694840695879,0.0004223039310268665,-0.9029840556521739,-0.5590163940118578,3.706720065228221e-19,0.40057173,-0.25566822,9.77452704,0.002408,-0.000328,0.004386,0.17976329050612266
1757069200.4992466,1.4440384825907793,1.7450890855912924,0.0,0.0003600160785066214,0.0004188677140518223,-0.9029840556521739,-0.5590163940118578,3.4825477744634357e-19,0.3873969,-0.26165232000000005,9.79053696,0.001124,-0.001557,0.002748,0.17934106243867476
1757069200.5200186,1.4469422411187332,1.7484675197675914,0.0,0.00036882138752564777,0.00042911240871869034,-0.9029840556521739,-0.5590163940118578,3.2658385480853307e-19,0.40685013000000003,-0.25566822,9.77706783,0.00327,-0.000734,0.003225,0.18016072712005157
1757069200.540763,1.4498261824986856,1.7518228972983643,0.0,0.00036541091063339864,0.000425144418094722,-0.9029840556521739,-0.5590163940118578,3.068781157417768e-19,0.40640868,-0.26824464000000003,9.77632227,0.002219,-3.8e-05,0.004348,0.17928463824268448
1757069200.5609918,1.4527049942251358,1.7551723066343885,0.0,0.0003588442862672783,0.0004175043482280196,-0.9029840556521739,-0.5590163940118578,2.8815352964564387e-19,0.39278259,-0.27153099,9.78500412,0.001315,-0.000188,0.003778,0.17993497512307804
1757069200.581742,1.4555708271815138,1.7585066155686118,0.0,0.0003535303573422319,0.0004113217528283833,-0.9029840556521739,-0.5590163940118578,2.7067375311737842e-19,0.39787398,-0.24908571000000002,9.75356307,0.002529,0.000492,0.002695,0.17986413136662827
1757069200.6022546,1.4584288588201006,1.7618318479083521,0.0,0.00035397607529955217,0.00041184033103353567,-0.9029840556521739,-0.5590163940118578,2.5408576827969206e-19,0.40670298000000005,-0.26689086,9.763294590000001,0.001872,-0.000386,0.004818,0.18023408780539474
1757069200.6225452,1.4612735211065475,1.7651415254160419,0.0,0.00035120680331858435,0.00040861836735499345,-0.9029840556521739,-0.5590163940118578,2.386661209167875e-19,0.40086603,-0.25282332,9.77467419,0.00306,-0.000685,0.003139,0.18001631689152334
1757069200.6439326,1.4641163611478178,1.7684490827972468,0.0,0.00035216317502239746,0.0004097310762787299,-0.9029840556521739,-0.5590163940118578,2.2402734197564913e-19,0.40535900999999996,-0.25506981,9.772133400000001,0.003201,0.000679,0.004832,0.18354983538385156
1757069200.665121,1.4669343468980185,1.7717277229714592,0.0,0.0003483799601448712,0.00040532942142134477,-0.9029840556521739,-0.5590163940118578,2.1047782697989973e-19,0.40535900999999996,-0.25506981,9.772133400000001,0.003201,0.000679,0.004832,0.18011591847854957
1757069200.6858306,1.4697511475106433,1.7750049842743794,0.0,0.00034849678471079206,0.00040546534314653943,-0.9029840556521739,-0.5590163940118578,1.9759627079127164e-19,0.39892365,-0.25956279,9.76284333,0.002933,0.000165,0.003117,0.180606146223542
1757069200.7064486,1.4725572018953579,1.7782697426700196,0.0,0.00035036875223418227,0.00040764332002531003,-0.9029840556521739,-0.5590163940118578,1.8547584531571141e-19,0.39667716000000003,-0.23980545000000003,9.77706783,0.003063,0.001223,0.004636,0.18065609051938075
1757069200.729089,1.478137858196666,1.784762665477263,0.0,0.00034900666430787006,0.0004060585723776961,-0.9029840556521739,-0.5590163940118578,1.6346702345613028e-19,0.40371093,-0.26734212,9.771829290000001,0.004142,0.000571,0.004084,0.18045968330467405
1757069200.750669,1.4781468996765246,1.784773184962359,0.0,0.00034900666430787006,0.0004060585723776961,-0.9029840556521739,-0.5590163940118578,1.6346702345613028e-19,0.40340682,-0.24952716000000003,9.77422293,0.001708,-0.001423,0.002949,0.1857847700928646
1757069200.7709143,1.483680489033995,1.791211346820958,0.0,0.00034689175343355236,0.0004035979382938511,-0.9029840556521739,-0.5590163940118578,1.4404332336172889e-19,0.40640868,-0.24729048000000003,9.77766624,0.004218,-0.00119,0.005775,0.1807110634368723
1757069200.7930229,1.4864380843507679,1.7944197245741664,0.0,0.0003455330091421956,0.0004020170808942074,-0.9029840556521739,-0.5590163940118578,1.3519844462620073e-19,0.39472497000000006,-0.26674371,9.78021684,0.004401,-0.001176,0.004911,0.1811775673858943
1757069200.8136492,1.4891820728956526,1.7976122712647264,0.0,0.00034083240652261283,0.00039654807361019887,-0.9029840556521739,-0.5590163940118578,1.270117503550646e-19,0.40340682,-0.25432425000000003,9.77467419,0.002261,-0.000211,0.004735,0.18089242806350103
1757069200.8345847,1.4919202663270645,1.8007980755181239,0.0,0.00034171229225057014,0.00039757179372470683,-0.9029840556521739,-0.5590163940118578,1.1921440310937242e-19,0.40835106000000004,-0.26090676,9.78170796,0.002936,-0.000134,0.003944,0.1814291746021055
1757069200.855756,1.4946449653045961,1.8039681793874374,0.0,0.0003389750100561853,0.0003943870496674442,-0.9029840556521739,-0.5590163940118578,1.1198623708570163e-19,0.40117014,-0.27542556,9.77661657,0.003769,0.000282,0.003298,0.18113812245251898
1757069200.8762271,1.4973655690329137,1.8071335185596282,0.0,0.0003452761994535118,0.0004017182906793983,-0.9029840556521739,-0.5590163940118578,1.0505018227227625e-19,0.41299119,-0.26435007,9.775566900000001,0.002613,-0.002715,0.005351,0.18179255806120195
1757069200.8967822,1.5000729775552617,1.8102835055135205,0.0,0.00034580779359419964,0.00040233678419225805,-0.9029840556521739,-0.5590163940118578,9.860212630789139e-20,0.40595742000000007,-0.25432425000000003,9.78545538,0.002999,-0.000569,0.004458,0.1814933907170909
1757069200.9178038,1.502771857810184,1.8134235700892758,0.0,0.0003431677231407056,0.00039926514302051545,-0.9029840556521739,-0.5590163940118578,9.25511868718944e-20,0.40385808000000006,-0.25237206,9.78170796,0.003078,0.000828,0.004938,0.1816369229117283
1757069200.9383724,1.5054591276638534,1.8165501263185164,0.0,0.000337209787769129,0.0003923332675618469,-0.9029840556521739,-0.5590163940118578,8.693220791332559e-20,0.41119596,-0.25342173,9.779167170000001,0.002209,-0.001075,0.003167,0.18151193360076678
1757069200.958953,1.5081408243919991,1.8196701983867791,0.0,0.0003384068554060221,0.0003937260191203874,-0.9029840556521739,-0.5590163940118578,8.157540848192365e-20,0.41313834,-0.27303192,9.77856876,0.003477,0.001396,0.003818,0.1820575964687642
1757069200.9793725,1.5108088870332377,1.8227744076122048,0.0,0.0003353245531975287,0.00039013985483650514,-0.9029840556521739,-0.5590163940118578,7.662157119497585e-20,0.39952206,-0.25342173,9.76972995,0.003135,0.000919,0.005159,0.18170214324591402
1757069201.0003388,1.5134733256894068,1.8258744004419165,0.0,0.0003407770375510852,0.0003964836535053145,-0.9029840556521739,-0.5590163940118578,7.186830409935766e-20,0.40191570000000004,-0.26344755000000003,9.78110955,0.004288,-0.000725,0.002331,0.18238145405258055
1757069201.0205054,1.516122270206808,1.8289563663153787,0.0,0.00033780969964946917,0.00039303124667393677,-0.9029840556521739,-0.5590163940118578,6.750656203189954e-20,0.40371093,-0.26121087000000004,9.78005988,0.003808,0.000148,0.003792,0.18179055588241158
1757069201.040976,1.5187670201875134,1.832033451973772,0.0,0.0003373180692394011,0.00039245924973846467,-0.9029840556521739,-0.5590163940118578,6.334769459716334e-20,0.3905361,-0.24818319,9.77692068,0.004505,0.000401,0.003471,0.18242104749008908
1757069201.0619824,1.5214005142068623,1.8350974416656223,0.0,0.0003363885377644381,0.0003913777683162125,-0.9029840556521739,-0.5590163940118578,5.945970170636806e-20,0.40969503,-0.25746345000000004,9.76135221,0.003237,0.001276,0.0037,0.1823282013777936
1757069201.0821736,1.5240258541727056,1.8381519443657788,0.0,0.0003355462879334949,0.0003903978364154704,-0.9029840556521739,-0.5590163940118578,5.580121068611315e-20,0.40461345,-0.26270199,9.77826465,0.00247,-0.002292,0.004583,0.1824935414577688
1757069201.1027613,1.526639076909741,1.8411923490410724,0.0,0.0003301837413488322,0.00038415867758816586,-0.9029840556521739,-0.5590163940118578,5.241724678469368e-20,0.40461345,-0.26270199,9.77826465,0.00247,-0.002292,0.004583,0.1822408413120214
1757069201.123641,1.5292516014809225,1.8442319414217627,0.0,0.000327547024278082,0.00038109093797465324,-0.9029840556521739,-0.5590163940118578,4.921375935301678e-20,0.40775265,-0.24324876,9.78036399,0.00247,0.001459,0.005096,0.18625529283657086
1757069201.1443896,1.531841503920731,1.8472452136449642,0.0,0.00032461898350041337,0.0003776842521442778,-0.9029840556521739,-0.5590163940118578,4.6227518503862356e-20,0.40775265,-0.24324876,9.78036399,0.00247,0.001459,0.005096,0.18257443644293136
1757069201.168909,1.5370114705253244,1.8532603115594835,0.0,0.00033931667854920206,0.0003947845705017819,-0.9029840556521739,-0.5590163940118578,4.070045783614992e-20,0.39936510000000003,-0.26629245,9.77482134,0.001683,-0.000987,0.006488,0.1823853130544394
1757069201.1889787,1.5395815837476583,1.8562505596338141,0.0,0.0003296615492001162,0.0003835511230051381,-0.9029840556521739,-0.5590163940118578,3.823342435175506e-20,0.40041477000000003,-0.2513322,9.77617512,0.002648,0.001096,0.005094,0.18282316266587578
1757069201.209353,1.5421428496752858,1.8592305141515308,0.0,0.00032367649565664155,0.00037658769638345443,-0.9029840556521739,-0.5590163940118578,3.5912293652650696e-20,0.38784816000000005,-0.26240768999999997,9.77257485,0.001394,-0.000504,0.002234,0.18305624176908358
1757069201.2337584,1.5446984125418035,1.8622038333321917,0.0,0.0003285836682242455,0.0003822970414789055,-0.9029840556521739,-0.5590163940118578,3.369491785859764e-20,0.4090966200000001,-0.25970994000000003,9.78021684,0.002198,-9.9e-05,0.005078,0.18351289551305702
1757069201.2542393,1.5472411584977595,1.8651622404296833,0.0,0.0003271972473003045,0.0003806839831661431,-0.9029840556521739,-0.5590163940118578,3.16435820435408e-20,0.40311252,-0.24160068,9.771976440000001,0.003586,-0.001331,0.003397,0.18311704760769695
1757069201.2754421,1.5472411584977595,1.8651622404296833,0.0,0.0003271972473003045,0.0003806839831661431,-0.9029840556521739,-0.5590163940118578,3.16435820435408e-20,0.40311252,-0.24160068,9.771976440000001,0.003586,-0.001331,0.003397,0.18311704760769695
1757069201.2961645,1.5523103306032755,1.8710600670294022,0.0,0.0003439455239167248,0.0004001700904183091,-0.9029840556521739,-0.5590163940118578,2.7824393261055643e-20,0.40804695,-0.25851312000000004,9.775272600000001,0.00255,0.001083,0.004277,0.18303685126819325
1757069201.31691,1.5523103306032755,1.8710600670294022,0.0,0.0003439455239167248,0.0004001700904183091,-0.9029840556521739,-0.5590163940118578,2.7824393261055643e-20,0.40804695,-0.25851312000000004,9.775272600000001,0.00255,0.001083,0.004277,0.18303685126819325
1757069201.3380818,1.5548424490325108,1.874006109324816,0.0,0.00035987846543381014,0.00041870758023621816,-0.9029840556521739,-0.5590163940118578,2.603020025394971e-20,0.40371093,-0.25985709,9.76584519,0.003994,0.000763,0.002365,0.18450175771780358
1757069201.3581839,1.5573634494978688,1.8769392162095309,0.0,0.00035942355946568384,0.00041817831106497283,-0.9029840556521739,-0.5590163940118578,2.4381745203353122e-20,0.38993769,-0.25521696000000005,9.77692068,0.001809,0.000383,0.003394,0.18693796923480674
1757069201.3822937,1.562360877535503,1.8827535707820395,0.0,0.00033206280574764313,0.0003863449115062904,-0.9029840556521739,-0.5590163940118578,2.1458561222280654e-20,0.39592179,-0.25836597,9.765246780000002,0.003919,0.001821,0.00305,0.1836105417116214
1757069201.4035912,1.5648479587493695,1.8856472136557634,0.0,0.0003174007897341523,0.00036928610461437714,-0.9029840556521739,-0.5590163940118578,2.0156723667562978e-20,0.40146444000000003,-0.2630061,9.764491410000002,0.003919,0.001821,0.00305,0.1836565612782005
