timestamp,accel_x,accel_y,accel_z,gyro_x,gyro_y,gyro_z,mag_x,mag_y,mag_z,gps_lat,gps_lon,gps_alt,gps_accuracy,gps_speed,gps_course,pressure,altitude,roll,pitch,yaw
879745.229556,-0.08876088000000001,-0.14954364,-9.78934014,0.003561,4.3e-05,0.004448,-77.079605,96.819672,-209.362961,60.187683,24.830152,13.169112,9.283682,-1.0,-1.0,100.074387,0.161186,-0.008929,0.01507,0.312063
879745.269529,-0.08801532000000001,-0.1588239,-9.80820477,0.00172,-0.000979,0.004566,-76.981613,96.928192,-209.185135,60.187683,24.830152,13.169112,9.283682,-1.0,-1.0,100.074387,0.161186,-0.00893,0.015074,0.312051
879745.269529,-0.08801532000000001,-0.1588239,-9.80820477,0.00172,-0.000979,0.004566,-76.981613,96.928192,-209.185135,60.187683,24.830152,13.169112,9.283682,-1.0,-1.0,100.074387,0.161186,-0.00893,0.015074,0.312051
879745.309502,-0.09729558,-0.16136469,-9.81987867,0.003126,0.000186,0.004933,-77.093201,96.795044,-209.238968,60.187683,24.830152,13.169112,9.283682,-1.0,-1.0,100.074387,0.161186,-0.008942,0.01509,0.31206
879745.329489,-0.09475478999999999,-0.16046217000000002,-9.80626239,0.002524,0.000253,0.002773,-77.093903,96.573944,-209.01532,60.187683,24.830152,13.169112,9.283682,-1.0,-1.0,100.074387,0.161186,-0.008923,0.015091,0.312056
879745.349476,-0.0868185,-0.14983794,-9.825715620000002,0.003578,0.000333,0.004987,-77.190475,96.603104,-208.961304,60.187683,24.830152,13.169112,9.283682,-1.0,-1.0,100.074387,0.161186,-0.008918,0.015093,0.312056
879745.349476,-0.0868185,-0.14983794,-9.825715620000002,0.003578,0.000333,0.004987,-77.190475,96.603104,-208.961304,60.187683,24.830152,13.169112,9.283682,-1.0,-1.0,100.074387,0.161186,-0.008918,0.015093,0.312056
879745.389449,-0.09475478999999999,-0.16794720000000002,-9.80909748,0.004011,0.001052,0.003992,-76.98967,97.013245,-209.324646,60.187683,24.830152,13.169112,9.283682,-1.0,-1.0,100.074387,0.161186,-0.008887,0.015076,0.312052
879745.389449,-0.09475478999999999,-0.16794720000000002,-9.80909748,0.004011,0.001052,0.003992,-76.98967,97.013245,-209.324646,60.187683,24.830152,13.169112,9.283682,-1.0,-1.0,100.074387,0.161186,-0.008887,0.015076,0.312052
879745.409435,-0.10642868999999999,-0.14654178,-9.82332198,0.003856,-0.001078,0.004266,-76.977737,96.84639,-209.204559,60.187683,24.830152,13.169112,9.283682,-1.0,-1.0,100.074387,0.161186,-0.008862,0.015089,0.312043
879745.429422,-0.0953532,-0.15687171,-9.80206371,0.003335,0.000698,0.003161,-76.989212,96.726776,-209.115677,60.187683,24.830152,13.169112,9.283682,-1.0,-1.0,100.074387,0.161186,-0.00886,0.015096,0.312054
879745.469395,-0.0868185,-0.16046217000000002,-9.79712928,0.003846,-0.000323,0.00513,-77.270859,96.738388,-209.269226,60.187683,24.830152,13.169112,9.283682,-1.0,-1.0,100.074387,0.161186,-0.008873,0.015087,0.312047
879745.489382,-0.09504909,-0.14265702,-9.8159841,0.002247,-0.001181,0.004083,-76.778152,96.816055,-209.175003,60.187683,24.830152,13.169112,9.283682,-1.0,-1.0,100.074387,0.161186,-0.00888,0.015097,0.312039
879745.509369,-0.09864936,-0.15074046,-9.81868185,0.003434,0.000311,0.002258,-77.039429,96.71759,-209.218124,60.187683,24.830152,13.169112,9.283682,-1.0,-1.0,100.074387,0.161186,-0.00889,0.015098,0.312031
879745.529355,-0.0896634,-0.15313410000000002,-9.81868185,0.00419,-0.000426,0.003029,-77.082993,96.826874,-209.222183,60.187683,24.830152,13.169112,9.283682,-1.0,-1.0,100.074387,0.161186,-0.008886,0.015094,0.312021
879745.549342,-0.0953532,-0.14998509000000002,-9.82721655,0.002275,0.000316,0.003136,-76.714157,96.914429,-208.898788,60.187683,24.830152,13.169112,9.283682,-1.0,-1.0,100.074387,0.161186,-0.008873,0.015103,0.312015
879745.569329,-0.10269108,-0.13426947,-9.80909748,0.003999,0.000157,0.004252,-76.852356,96.969269,-208.934113,60.187683,24.830152,13.169112,9.283682,-1.0,-1.0,100.074387,0.161186,-0.008867,0.015106,0.311994
879745.589315,-0.10193571,-0.15717582000000002,-9.832602240000002,0.002754,0.001637,0.004079,-76.935226,96.821075,-208.980515,60.187683,24.830152,13.169112,9.283682,-1.0,-1.0,100.074387,0.161186,-0.00887,0.015118,0.312002
879745.609302,-0.09116433,-0.15148602000000003,-9.81868185,0.004156,-0.000553,0.006508,-77.127853,96.87442,-209.067398,60.187683,24.830152,13.169112,9.283682,-1.0,-1.0,100.074387,0.161186,-0.00887,0.015118,0.312
879745.629288,-0.09714843000000001,-0.14714019,-9.81239364,0.004434,-0.000602,0.005147,-76.983704,96.800613,-209.270645,60.187683,24.830152,13.169112,9.283682,-1.0,-1.0,100.074387,0.161186,-0.008871,0.015133,0.312012
879745.649275,-0.09205704,-0.15642045000000002,-9.81808344,0.002203,0.001052,0.004229,-77.017044,96.768692,-209.016083,60.187683,24.830152,13.169112,9.283682,-1.0,-1.0,100.074387,0.161186,-0.00886,0.015152,0.312015
879745.669262,-0.09310671,-0.1474443,-9.80581113,0.003108,0.000712,0.004578,-76.955612,96.994522,-208.919434,60.187683,24.830152,13.169112,9.283682,-1.0,-1.0,100.074387,0.161186,-0.008846,0.015134,0.312017
879745.689248,-0.10373094000000001,-0.15358536,-9.831101310000001,0.002786,0.000786,0.004222,-77.264084,96.738052,-209.250931,60.187683,24.830152,13.169112,9.283682,-1.0,-1.0,100.074387,0.161186,-0.008837,0.015133,0.312021
879745.709235,-0.08517042000000001,-0.14594337000000002,-9.80281908,0.003114,-0.000257,0.004641,-76.956665,96.866776,-209.251678,60.187683,24.830152,13.169112,9.283682,-1.0,-1.0,100.074387,0.161186,-0.008825,0.015134,0.312023
879745.709235,-0.08517042000000001,-0.14594337000000002,-9.80281908,0.003114,-0.000257,0.004641,-76.956665,96.866776,-209.251678,60.187683,24.830152,13.169112,9.283682,-1.0,-1.0,100.074387,0.161186,-0.008825,0.015134,0.312023
879745.729222,-0.09684432000000001,-0.13981212,-9.808803180000002,0.004153,-0.000708,0.005162,-76.879776,96.779037,-208.921265,60.187683,24.830152,13.169112,9.283682,-1.0,-1.0,100.074387,0.161186,-0.008831,0.015129,0.31201
879745.769195,-0.1038879,-0.13517199,-9.811343970000001,0.004499,-0.000902,0.003973,-77.300583,96.794769,-209.189514,60.187683,24.830152,13.169112,9.283682,-1.0,-1.0,100.074387,0.161186,-0.008831,0.015142,0.312036
879745.789181,-0.08203122,-0.15402681000000001,-9.82586277,0.002394,4.2e-05,0.004441,-77.090088,96.784698,-208.815384,60.187683,24.830152,13.169112,9.283682,-1.0,-1.0,100.074387,0.161186,-0.008834,0.015156,0.312035
879745.829155,-0.09430353000000001,-0.14025357000000002,-9.828109260000002,0.002776,0.000302,0.004183,-77.120575,97.010193,-208.804916,60.187683,24.830152,13.169112,9.283682,-1.0,-1.0,100.074387,0.161186,-0.008824,0.015163,0.312042
879745.829155,-0.09430353000000001,-0.14025357000000002,-9.828109260000002,0.002776,0.000302,0.004183,-77.120575,97.010193,-208.804916,60.187683,24.830152,13.169112,9.283682,-1.0,-1.0,100.074387,0.161186,-0.008824,0.015163,0.312042
879745.869128,-0.08188407,-0.15507648,-9.80760636,0.005159,3.6e-05,0.003837,-77.102768,96.941025,-208.911316,60.187683,24.830152,13.169112,9.283682,-1.0,-1.0,100.074387,0.161186,-0.008823,0.015164,0.312019
879745.869128,-0.08188407,-0.15507648,-9.80760636,0.005159,3.6e-05,0.003837,-77.102768,96.941025,-208.911316,60.187683,24.830152,13.169112,9.283682,-1.0,-1.0,100.074387,0.161186,-0.008823,0.015164,0.312019
879745.909101,-0.09595161,-0.15777423000000002,-9.81373761,0.003143,-0.00039,0.004356,-77.12793,96.756226,-209.111145,60.187683,24.830152,13.169112,9.283682,-1.0,-1.0,100.074387,0.161186,-0.00882,0.015202,0.312007
879745.909101,-0.09595161,-0.15777423000000002,-9.81373761,0.003143,-0.00039,0.004356,-77.12793,96.756226,-209.111145,60.187683,24.830152,13.169112,9.283682,-1.0,-1.0,100.074387,0.161186,-0.00882,0.015202,0.312007
879745.949074,-0.09550035000000001,-0.14969079000000002,-9.82272357,0.004059,0.000481,0.004417,-77.183456,96.655777,-209.230927,60.187683,24.830152,13.169112,9.283682,-1.0,-1.0,100.074387,0.161186,-0.008832,0.015201,0.312003
879745.949074,-0.09550035000000001,-0.14969079000000002,-9.82272357,0.004059,0.000481,0.004417,-77.183456,96.655777,-209.230927,60.187683,24.830152,13.169112,9.283682,-1.0,-1.0,100.074387,0.161186,-0.008832,0.015201,0.312003
879745.989048,-0.08786817,-0.15253569,-9.81987867,0.001645,-0.00194,0.004371,-77.124786,96.8004,-208.661423,60.187683,24.830152,13.169112,9.283682,-1.0,-1.0,100.074387,0.161186,-0.008806,0.015222,0.312004
879745.989048,-0.08786817,-0.15253569,-9.81987867,0.001645,-0.00194,0.004371,-77.124786,96.8004,-208.661423,60.187683,24.830152,13.169112,9.283682,-1.0,-1.0,100.074387,0.161186,-0.008806,0.015222,0.312004
879746.009034,-0.08397360000000001,-0.16151184,-9.8014653,0.003378,-0.000958,0.00522,-77.174469,96.651718,-209.08197,60.187683,24.830152,13.169112,9.283682,-1.0,-1.0,100.074387,0.161186,-0.00881,0.015219,0.312021
879746.009034,-0.08397360000000001,-0.16151184,-9.8014653,0.003378,-0.000958,0.00522,-77.174469,96.651718,-209.08197,60.187683,24.830152,13.169112,9.283682,-1.0,-1.0,100.074387,0.161186,-0.00881,0.015219,0.312021
879746.068994,-0.10193571,-0.14130324,-9.82556847,0.002047,-0.000615,0.00394,-77.175079,96.719315,-208.832947,60.187683,24.830152,13.169112,9.283682,-1.0,-1.0,100.074387,0.161186,-0.008789,0.015226,0.312004
879746.068994,-0.10193571,-0.14130324,-9.82556847,0.002047,-0.000615,0.00394,-77.175079,96.719315,-208.832947,60.187683,24.830152,13.169112,9.283682,-1.0,-1.0,100.074387,0.161186,-0.008789,0.015226,0.312004
879746.108968,-0.09325386000000001,-0.14714019,-9.81688662,0.003361,8.9e-05,0.00462,-77.214676,96.751831,-208.760483,60.187683,24.830152,13.169112,9.283682,-1.0,-1.0,100.074387,0.161186,-0.00877,0.015209,0.312012
879746.128954,-0.09714843000000001,-0.14564907000000002,-9.81823059,0.001529,-9.9e-05,0.005984,-77.047455,96.815125,-209.343445,60.187683,24.830152,13.169112,9.283682,-1.0,-1.0,100.07415,0.18232,-0.00877,0.015218,0.31201
879746.148941,-0.08412075,-0.15897105,-9.812246490000001,0.003312,-0.00055,0.002125,-77.263,96.919724,-209.034943,60.187683,24.830152,13.169112,9.283682,-1.0,-1.0,100.07415,0.18232,-0.008774,0.015193,0.312018
879746.148941,-0.08412075,-0.15897105,-9.812246490000001,0.003312,-0.00055,0.002125,-77.263,96.919724,-209.034943,60.187683,24.830152,13.169112,9.283682,-1.0,-1.0,100.07415,0.18232,-0.008774,0.015193,0.312018
879746.188914,-0.08337519,-0.14579622,-9.81628821,0.00398,-0.00072,0.005159,-76.989029,96.94429,-209.011948,60.187683,24.830152,13.169112,9.283682,-1.0,-1.0,100.07415,0.18232,-0.008768,0.015185,0.312013
879746.188914,-0.08337519,-0.14579622,-9.81628821,0.00398,-0.00072,0.005159,-76.989029,96.94429,-209.011948,60.187683,24.830152,13.169112,9.283682,-1.0,-1.0,100.07415,0.18232,-0.008768,0.015185,0.312013
879746.228887,-0.08772102000000001,-0.14490351,-9.81269775,0.002873,0.00013,0.004806,-76.853119,96.807999,-209.07753,60.187683,24.830152,13.169112,9.283682,-1.0,-1.0,100.07415,0.18232,-0.008783,0.015183,0.312004
879746.228887,-0.08772102000000001,-0.14490351,-9.81269775,0.002873,0.00013,0.004806,-76.853119,96.807999,-209.07753,60.187683,24.830152,13.169112,9.283682,-1.0,-1.0,100.07415,0.18232,-0.008783,0.015183,0.312004
879746.268861,-0.09220419,-0.14624748,-9.81987867,0.003273,-0.000514,0.003182,-77.027359,96.628555,-209.325272,60.187683,24.830152,13.169112,9.283682,-1.0,-1.0,100.07415,0.18232,-0.008779,0.015193,0.312005
879746.268861,-0.09220419,-0.14624748,-9.81987867,0.003273,-0.000514,0.003182,-77.027359,96.628555,-209.325272,60.187683,24.830152,13.169112,9.283682,-1.0,-1.0,100.07415,0.18232,-0.008779,0.015193,0.312005
879746.308834,-0.08667135000000001,-0.15178032,-9.81928026,0.002955,-0.000459,0.004714,-76.984238,96.67804,-208.929428,60.187683,24.830152,13.169112,9.283682,-1.0,-1.0,100.07415,0.18232,-0.008783,0.015191,0.311983
879746.308834,-0.08667135000000001,-0.15178032,-9.81928026,0.002955,-0.000459,0.004714,-76.984238,96.67804,-208.929428,60.187683,24.830152,13.169112,9.283682,-1.0,-1.0,100.07415,0.18232,-0.008783,0.015191,0.311983
879746.308834,-0.08667135000000001,-0.15178032,-9.81928026,0.002955,-0.000459,0.004714,-76.984238,96.67804,-208.929428,60.187683,24.830152,13.169112,9.283682,-1.0,-1.0,100.07415,0.18232,-0.008783,0.015191,0.311983
879746.32882,-0.08846658,-0.14550192,-9.808351920000002,0.004269,-0.000941,0.005864,-77.061691,96.631073,-208.671692,60.187683,24.830152,13.169112,9.283682,-1.0,-1.0,100.07415,0.18232,-0.008773,0.01518,0.31199
879746.38878,-0.10119015,-0.15088761,-9.81059841,0.003039,0.000513,0.005361,-76.963287,96.458923,-209.340378,60.187683,24.830152,13.169112,9.283682,-1.0,-1.0,100.07415,0.18232,-0.008766,0.015188,0.311974
879746.408767,-0.10912644,-0.14354973000000001,-9.82197801,0.001873,-0.001584,0.003892,-76.933716,96.701248,-209.329697,60.187683,24.830152,13.169112,9.283682,-1.0,-1.0,100.07415,0.18232,-0.008761,0.015205,0.311986
879746.428754,-0.08801532000000001,-0.15687171,-9.80086689,0.004433,-0.001263,0.004235,-77.028625,96.737625,-209.385513,60.187683,24.830152,13.169112,9.283682,-1.0,-1.0,100.07415,0.18232,-0.008777,0.015206,0.311978
879746.44874,-0.10448631000000001,-0.14115609,-9.79682517,0.005002,-0.001097,0.004378,-76.946838,96.632477,-209.024475,60.187683,24.830152,13.169112,9.283682,-1.0,-1.0,100.07415,0.18232,-0.00878,0.015226,0.311984
879746.468727,-0.09520605,-0.14804271000000002,-9.83484873,0.003937,9.1e-05,0.005135,-76.865158,96.631989,-209.167664,60.187683,24.830152,13.169112,9.283682,-1.0,-1.0,100.07415,0.18232,-0.00878,0.015281,0.311995
879746.488714,-0.09445068,-0.14594337000000002,-9.80041563,0.004293,-0.000814,0.00543,-76.77594,96.897659,-209.274887,60.187683,24.830152,13.169112,9.283682,-1.0,-1.0,100.07415,0.18232,-0.008791,0.015319,0.312005
879746.5087,-0.07844076,-0.13845834,-9.82616688,0.004449,0.000794,0.004897,-77.131332,96.444962,-209.483185,60.187683,24.830152,13.169112,9.283682,-1.0,-1.0,100.07415,0.18232,-0.00881,0.01535,0.312006
879746.548673,-0.08741691000000001,-0.15178032,-9.82122264,0.003532,-0.000138,0.004847,-76.829529,96.811905,-209.118484,60.187683,24.830152,13.169112,9.283682,-1.0,-1.0,100.07415,0.18232,-0.008825,0.015376,0.312006
879746.548673,-0.08741691000000001,-0.15178032,-9.82122264,0.003532,-0.000138,0.004847,-76.829529,96.811905,-209.118484,60.187683,24.830152,13.169112,9.283682,-1.0,-1.0,100.07415,0.18232,-0.008825,0.015376,0.312006
879746.588647,-0.08576883000000002,-0.1502892,-9.80266212,0.003546,-0.000919,0.004017,-77.121124,96.602829,-209.155182,60.187683,24.830152,13.169112,9.283682,-1.0,-1.0,100.07415,0.18232,-0.008827,0.015379,0.312001
879746.588647,-0.08576883000000002,-0.1502892,-9.80266212,0.003546,-0.000919,0.004017,-77.121124,96.602829,-209.155182,60.187683,24.830152,13.169112,9.283682,-1.0,-1.0,100.07415,0.18232,-0.008827,0.015379,0.312001
879746.608633,-0.08996751000000001,-0.15133887000000001,-9.821821049999999,0.004031,-0.000232,0.002579,-77.070312,96.630081,-209.364807,60.187683,24.830152,13.169112,9.283682,-1.0,-1.0,100.07415,0.18232,-0.008823,0.015396,0.312002
879746.608633,-0.08996751000000001,-0.15133887000000001,-9.821821049999999,0.004031,-0.000232,0.002579,-77.070312,96.630081,-209.364807,60.187683,24.830152,13.169112,9.283682,-1.0,-1.0,100.07415,0.18232,-0.008823,0.015396,0.312002
879746.668593,-0.09520605,-0.15014205,-9.80222067,0.004707,-0.001025,0.004261,-77.100388,96.56337,-209.333252,60.187683,24.830152,13.169112,9.283682,-1.0,-1.0,100.07415,0.18232,-0.008812,0.015411,0.312008
879746.668593,-0.09520605,-0.15014205,-9.80222067,0.004707,-0.001025,0.004261,-77.100388,96.56337,-209.333252,60.187683,24.830152,13.169112,9.283682,-1.0,-1.0,100.07415,0.18232,-0.008812,0.015411,0.312008
879746.708567,-0.09550035000000001,-0.15358536,-9.804015900000001,0.002249,0.001585,0.004236,-76.965164,96.776428,-209.007248,60.187683,24.830152,13.169112,9.283682,-1.0,-1.0,100.07415,0.18232,-0.008824,0.015413,0.312022
879746.708567,-0.09550035000000001,-0.15358536,-9.804015900000001,0.002249,0.001585,0.004236,-76.965164,96.776428,-209.007248,60.187683,24.830152,13.169112,9.283682,-1.0,-1.0,100.07415,0.18232,-0.008824,0.015413,0.312022
879746.728553,-0.09595161,-0.14400099,-9.81434583,0.002249,0.001585,0.004236,-76.991486,96.710083,-209.060196,60.187683,24.830152,13.169112,9.283682,-1.0,-1.0,100.07415,0.18232,-0.008825,0.015401,0.312012
879746.74854,-0.10044459,-0.14385384,-9.82556847,0.002966,0.001385,0.005231,-77.26355,96.531189,-209.05687,60.187683,24.830152,13.169112,9.283682,-1.0,-1.0,100.07415,0.18232,-0.008826,0.015402,0.312009
879746.788513,-0.09924777,-0.15223158,-9.83918475,0.001345,-8.4e-05,0.004931,-77.065582,96.617905,-209.080978,60.187683,24.830152,13.169112,9.283682,-1.0,-1.0,100.07415,0.18232,-0.008825,0.015408,0.312017
879746.788513,-0.09924777,-0.15223158,-9.83918475,0.001345,-8.4e-05,0.004931,-77.065582,96.617905,-209.080978,60.187683,24.830152,13.169112,9.283682,-1.0,-1.0,100.07415,0.18232,-0.008825,0.015408,0.312017
879746.828486,-0.10373094000000001,-0.15373251000000002,-9.80940159,0.00237,-0.00156,0.003065,-76.886765,96.572418,-209.06369,60.187683,24.830152,13.169112,9.283682,-1.0,-1.0,100.07415,0.18232,-0.008829,0.015405,0.312023
879746.828486,-0.10373094000000001,-0.15373251000000002,-9.80940159,0.00237,-0.00156,0.003065,-76.886765,96.572418,-209.06369,60.187683,24.830152,13.169112,9.283682,-1.0,-1.0,100.07415,0.18232,-0.008829,0.015405,0.312023
879746.86846,-0.09640287000000002,-0.14833701000000002,-9.78964425,0.005094,0.00055,0.004233,-76.71524,96.688507,-209.206619,60.187683,24.830152,13.169112,9.283682,-1.0,-1.0,100.07415,0.18232,-0.008837,0.015403,0.311984
879746.86846,-0.09640287000000002,-0.14833701000000002,-9.78964425,0.005094,0.00055,0.004233,-76.71524,96.688507,-209.206619,60.187683,24.830152,13.169112,9.283682,-1.0,-1.0,100.07415,0.18232,-0.008837,0.015403,0.311984
879746.908433,-0.08756406,-0.15732297,-9.78305193,0.003651,-0.000679,0.004806,-76.668564,96.629044,-209.199905,60.187683,24.830152,13.169112,9.283682,-1.0,-1.0,100.07415,0.18232,-0.008832,0.015421,0.311974
879746.908433,-0.08756406,-0.15732297,-9.78305193,0.003651,-0.000679,0.004806,-76.668564,96.629044,-209.199905,60.187683,24.830152,13.169112,9.283682,-1.0,-1.0,100.07415,0.18232,-0.008832,0.015421,0.311974
879746.908433,-0.08756406,-0.15732297,-9.78305193,0.003651,-0.000679,0.004806,-76.668564,96.629044,-209.199905,60.187683,24.830152,13.169112,9.283682,-1.0,-1.0,100.07415,0.18232,-0.008832,0.015421,0.311974
879746.908433,-0.08756406,-0.15732297,-9.78305193,0.003651,-0.000679,0.004806,-76.668564,96.629044,-209.199905,60.187683,24.830152,13.169112,9.283682,-1.0,-1.0,100.07415,0.18232,-0.008832,0.015421,0.311974
879746.98838,-0.09475478999999999,-0.15837263999999998,-9.828266220000001,0.003229,-0.001226,0.004339,-76.441818,96.644073,-208.866806,60.187683,24.830152,13.169112,9.283682,-1.0,-1.0,100.07415,0.18232,-0.008855,0.015419,0.311957
879746.98838,-0.09475478999999999,-0.15837263999999998,-9.828266220000001,0.003229,-0.001226,0.004339,-76.441818,96.644073,-208.866806,60.187683,24.830152,13.169112,9.283682,-1.0,-1.0,100.07415,0.18232,-0.008855,0.015419,0.311957
879747.028353,-0.09655002,-0.14864112000000002,-9.82766781,0.00346,0.000496,0.004807,-76.32341,96.840027,-209.006851,60.187683,24.830152,13.169112,9.283682,-1.0,-1.0,100.07415,0.18232,-0.008854,0.015401,0.31194
879747.028353,-0.09655002,-0.14864112000000002,-9.82766781,0.00346,0.000496,0.004807,-76.32341,96.840027,-209.006851,60.187683,24.830152,13.169112,9.283682,-1.0,-1.0,100.07415,0.18232,-0.008854,0.015401,0.31194
879747.028353,-0.09655002,-0.14864112000000002,-9.82766781,0.00346,0.000496,0.004807,-76.32341,96.840027,-209.006851,60.187683,24.830152,13.169112,9.283682,-1.0,-1.0,100.07415,0.18232,-0.008854,0.015401,0.31194
879747.028353,-0.09655002,-0.14864112000000002,-9.82766781,0.00346,0.000496,0.004807,-76.32341,96.840027,-209.006851,60.187683,24.830152,13.169112,9.283682,-1.0,-1.0,100.07415,0.18232,-0.008854,0.015401,0.31194
879747.108299,-0.09864936,-0.14938668000000002,-9.80251497,0.00281,-3.5e-05,0.00334,-76.237823,96.669586,-209.229645,60.187683,24.830152,13.169112,9.283682,-1.0,-1.0,100.07415,0.18232,-0.008853,0.015373,0.311951
879747.128286,-0.10178856,-0.16286562,-9.82601973,0.00323,-0.001708,0.0037,-76.165421,96.75502,-209.168533,60.187683,24.830152,13.169112,9.283682,-1.0,-1.0,100.07415,0.18232,-0.008852,0.015377,0.311941
879747.148273,-0.09640287000000002,-0.15297714,-9.81344331,0.003652,-0.001345,0.004383,-76.352905,96.710281,-209.274399,60.187683,24.830152,13.169112,9.283682,-1.0,-1.0,100.07415,0.18232,-0.008865,0.015372,0.311941
879747.168259,-0.08262963000000001,-0.15418377,-9.8213796,0.002389,-0.000812,0.004303,-76.185471,96.833282,-209.17775,60.187683,24.830152,13.169112,9.283682,-1.0,-1.0,100.07415,0.18232,-0.00887,0.015378,0.311952
879747.188245,-0.10193571,-0.15163317,-9.813139200000002,0.00386,-0.001381,0.002975,-75.910278,96.710297,-209.22467,60.187683,24.830152,13.169112,9.283682,-1.0,-1.0,100.07415,0.18232,-0.008877,0.015383,0.311941
879747.188245,-0.10193571,-0.15163317,-9.813139200000002,0.00386,-0.001381,0.002975,-75.910278,96.710297,-209.22467,60.187683,24.830152,13.169112,9.283682,-1.0,-1.0,100.07415,0.18232,-0.008877,0.015383,0.311941
879747.188245,-0.10193571,-0.15163317,-9.813139200000002,0.00386,-0.001381,0.002975,-75.910278,96.710297,-209.22467,60.187683,24.830152,13.169112,9.283682,-1.0,-1.0,100.07415,0.18232,-0.008877,0.015383,0.311941
879747.228218,-0.09640287000000002,-0.16226721000000002,-9.836045550000001,0.002892,-0.000646,0.00578,-76.240952,96.58342,-209.166397,60.187683,24.830152,13.169112,9.283682,-1.0,-1.0,100.073593,0.227242,-0.008891,0.015398,0.311937
879747.268192,-0.08801532000000001,-0.15178032,-9.829158930000002,0.004809,-0.000751,0.0052,-76.04715,96.777252,-208.864182,60.187683,24.830152,13.169112,9.283682,-1.0,-1.0,100.073593,0.227242,-0.008893,0.015396,0.311934
879747.288178,-0.09056592000000001,-0.14789556,-9.81239364,0.003068,-0.002139,0.00403,-76.225388,96.550446,-208.978378,60.187683,24.830152,13.169112,9.283682,-1.0,-1.0,100.073593,0.227242,-0.008883,0.015407,0.311935
879747.288178,-0.09056592000000001,-0.14789556,-9.81239364,0.003068,-0.002139,0.00403,-76.225388,96.550446,-208.978378,60.187683,24.830152,13.169112,9.283682,-1.0,-1.0,100.073593,0.227242,-0.008883,0.015407,0.311935
879747.288178,-0.09056592000000001,-0.14789556,-9.81239364,0.003068,-0.002139,0.00403,-76.225388,96.550446,-208.978378,60.187683,24.830152,13.169112,9.283682,-1.0,-1.0,100.073593,0.227242,-0.008883,0.015407,0.311935
879747.288178,-0.09056592000000001,-0.14789556,-9.81239364,0.003068,-0.002139,0.00403,-76.225388,96.550446,-208.978378,60.187683,24.830152,13.169112,9.283682,-1.0,-1.0,100.073593,0.227242,-0.008883,0.015407,0.311935
879747.368125,-0.09894366,-0.15358536,-9.811343970000001,0.003627,-0.000413,0.005141,-75.908401,96.724564,-209.185547,60.187683,24.830152,13.169112,9.283682,-1.0,-1.0,100.073593,0.227242,-0.008867,0.015413,0.311949
879747.388112,-0.09834525,-0.14699304000000002,-9.82377324,0.003688,-0.003017,0.004601,-76.118835,96.794327,-208.767883,60.187683,24.830152,13.169112,9.283682,-1.0,-1.0,100.073593,0.227242,-0.008867,0.015401,0.31195
879747.408098,-0.0865242,-0.14684589,-9.81928026,0.003321,-0.000169,0.004111,-76.10582,96.692307,-209.128586,60.187683,24.830152,13.169112,9.283682,-1.0,-1.0,100.073593,0.227242,-0.008875,0.0154,0.311958
879747.428085,-0.08636724,-0.16136469,-9.80895033,0.003884,3.9e-05,0.004026,-76.11937,96.774323,-208.919708,60.187683,24.830152,13.169112,9.283682,-1.0,-1.0,100.073593,0.227242,-0.008871,0.015392,0.311963
879747.428085,-0.08636724,-0.16136469,-9.80895033,0.003884,3.9e-05,0.004026,-76.11937,96.774323,-208.919708,60.187683,24.830152,13.169112,9.283682,-1.0,-1.0,100.073593,0.227242,-0.008871,0.015392,0.311963
879747.428085,-0.08636724,-0.16136469,-9.80895033,0.003884,3.9e-05,0.004026,-76.11937,96.774323,-208.919708,60.187683,24.830152,13.169112,9.283682,-1.0,-1.0,100.073593,0.227242,-0.008871,0.015392,0.311963
879747.508032,-0.08576883000000002,-0.14474655,-9.81554265,0.003177,-0.00072,0.002713,-76.265701,96.807373,-209.122665,60.187683,24.830152,13.169112,9.283682,-1.0,-1.0,100.073593,0.227242,-0.008861,0.015357,0.31195
879747.508032,-0.08576883000000002,-0.14474655,-9.81554265,0.003177,-0.00072,0.002713,-76.265701,96.807373,-209.122665,60.187683,24.830152,13.169112,9.283682,-1.0,-1.0,100.073593,0.227242,-0.008861,0.015357,0.31195
879747.548005,-0.09999333,-0.15342840000000002,-9.80909748,0.0041,-0.000827,0.004018,-76.212936,96.912506,-208.841614,60.187683,24.830152,13.169112,9.283682,-1.0,-1.0,100.073593,0.227242,-0.008879,0.015358,0.311961
879747.548005,-0.09999333,-0.15342840000000002,-9.80909748,0.0041,-0.000827,0.004018,-76.212936,96.912506,-208.841614,60.187683,24.830152,13.169112,9.283682,-1.0,-1.0,100.073593,0.227242,-0.008879,0.015358,0.311961
879747.548005,-0.09999333,-0.15342840000000002,-9.80909748,0.0041,-0.000827,0.004018,-76.212936,96.912506,-208.841614,60.187683,24.830152,13.169112,9.283682,-1.0,-1.0,100.073593,0.227242,-0.008879,0.015358,0.311961
879747.548005,-0.09999333,-0.15342840000000002,-9.80909748,0.0041,-0.000827,0.004018,-76.212936,96.912506,-208.841614,60.187683,24.830152,13.169112,9.283682,-1.0,-1.0,100.073593,0.227242,-0.008879,0.015358,0.311961
879747.548005,-0.09999333,-0.15342840000000002,-9.80909748,0.0041,-0.000827,0.004018,-76.212936,96.912506,-208.841614,60.187683,24.830152,13.169112,9.283682,-1.0,-1.0,100.073593,0.227242,-0.008879,0.015358,0.311961
879747.548005,-0.09999333,-0.15342840000000002,-9.80909748,0.0041,-0.000827,0.004018,-76.212936,96.912506,-208.841614,60.187683,24.830152,13.169112,9.283682,-1.0,-1.0,100.073593,0.227242,-0.008879,0.015358,0.311961
879747.548005,-0.09999333,-0.15342840000000002,-9.80909748,0.0041,-0.000827,0.004018,-76.212936,96.912506,-208.841614,60.187683,24.830152,13.169112,9.283682,-1.0,-1.0,100.073593,0.227242,-0.008879,0.015358,0.311961
879747.548005,-0.09999333,-0.15342840000000002,-9.80909748,0.0041,-0.000827,0.004018,-76.212936,96.912506,-208.841614,60.187683,24.830152,13.169112,9.283682,-1.0,-1.0,100.073593,0.227242,-0.008879,0.015358,0.311961
879747.567992,-0.09310671,-0.14954364,-9.8358984,0.002529,-0.00168,0.002863,-76.380463,96.588943,-209.105331,60.187683,24.830152,13.169112,9.283682,-1.0,-1.0,100.073593,0.227242,-0.008878,0.015358,0.311954
879747.627952,-0.08772102000000001,-0.1591182,-9.82406754,0.00314,0.000503,0.00436,-76.308868,96.666763,-209.309601,60.187683,24.830152,13.169112,9.283682,-1.0,-1.0,100.073593,0.227242,-0.008876,0.015349,0.311959
879747.707898,-0.09176274,-0.15148602000000003,-9.82406754,0.002879,-0.00037,0.004895,-76.300507,96.550537,-209.035431,60.187683,24.830152,13.169112,9.283682,-1.0,-1.0,100.073593,0.227242,-0.008874,0.015339,0.311927
879747.747872,-0.08696565,-0.15297714,-9.8068608,0.00478,5.4e-05,0.004936,-76.392441,96.439407,-209.023972,60.187689,24.830159,14.416528,8.553891,-1.0,-1.0,100.073593,0.227242,-0.008881,0.015332,0.311935
879747.787845,-0.0928026,-0.14235291,-9.823027680000001,0.003804,-0.000378,0.004832,-76.055573,96.566315,-209.037186,60.187689,24.830159,14.416528,8.553891,-1.0,-1.0,100.073593,0.227242,-0.008893,0.015334,0.311948
879747.807832,-0.09100737,-0.16151184,-9.80131815,0.002781,-0.001162,0.004715,-76.066803,96.559662,-208.839615,60.187689,24.830159,14.416528,8.553891,-1.0,-1.0,100.073593,0.227242,-0.008901,0.015333,0.311959
879747.827818,-0.09864936,-0.15552774,-9.820025820000001,0.00502,-0.001097,0.004369,-75.957199,96.484177,-208.836472,60.187689,24.830159,14.416528,8.553891,-1.0,-1.0,100.073593,0.227242,-0.0089,0.015341,0.311965
879747.827818,-0.09864936,-0.15552774,-9.820025820000001,0.00502,-0.001097,0.004369,-75.957199,96.484177,-208.836472,60.187689,24.830159,14.416528,8.553891,-1.0,-1.0,100.073593,0.227242,-0.0089,0.015341,0.311965
879747.867792,-0.08292393,-0.14340258,-9.82272357,0.002239,0.000202,0.002252,-76.11026,96.501038,-208.776733,60.187689,24.830159,14.416528,8.553891,-1.0,-1.0,100.073593,0.227242,-0.008889,0.015324,0.311957
879747.887778,-0.1013373,-0.16780005,-9.81643536,0.002768,-0.001625,0.005441,-75.943207,96.821228,-209.037094,60.187689,24.830159,14.416528,8.553891,-1.0,-1.0,100.073593,0.227242,-0.008881,0.015321,0.311954
879747.907765,-0.10373094000000001,-0.14998509000000002,-9.81418887,0.003586,-6.1e-05,0.004186,-76.088776,96.642868,-209.115173,60.187689,24.830159,14.416528,8.553891,-1.0,-1.0,100.073593,0.227242,-0.008881,0.015304,0.311961
879747.947739,-0.08576883000000002,-0.14789556,-9.81074556,0.003888,-0.001248,0.00308,-76.213333,96.524216,-209.07756,60.187689,24.830159,14.416528,8.553891,-1.0,-1.0,100.073593,0.227242,-0.008873,0.015318,0.311966
879747.947739,-0.08576883000000002,-0.14789556,-9.81074556,0.003888,-0.001248,0.00308,-76.213333,96.524216,-209.07756,60.187689,24.830159,14.416528,8.553891,-1.0,-1.0,100.073593,0.227242,-0.008873,0.015318,0.311966
879747.987712,-0.09295956000000001,-0.14654178,-9.82990449,0.003938,0.001044,0.005039,-76.209579,96.404495,-208.915695,60.187689,24.830159,14.416528,8.553891,-1.0,-1.0,100.073593,0.227242,-0.008863,0.015348,0.31198
879747.987712,-0.09295956000000001,-0.14654178,-9.82990449,0.003938,0.001044,0.005039,-76.209579,96.404495,-208.915695,60.187689,24.830159,14.416528,8.553891,-1.0,-1.0,100.073593,0.227242,-0.008863,0.015348,0.31198
879748.027685,-0.08712261,-0.15342840000000002,-9.818534699999999,0.004603,-0.003556,0.002717,-76.310501,96.628754,-208.745209,60.187689,24.830159,14.416528,8.553891,-1.0,-1.0,100.073593,0.227242,-0.008855,0.015342,0.311993
879748.047672,-0.0981981,-0.1474443,-9.830502899999999,0.000179,-0.001401,0.002985,-76.307343,96.676987,-208.837036,60.187689,24.830159,14.416528,8.553891,-1.0,-1.0,100.073593,0.227242,-0.008843,0.015334,0.311989
879748.047672,-0.0981981,-0.1474443,-9.830502899999999,0.000179,-0.001401,0.002985,-76.307343,96.676987,-208.837036,60.187689,24.830159,14.416528,8.553891,-1.0,-1.0,100.073593,0.227242,-0.008843,0.015334,0.311989
879748.087645,-0.10014048,-0.15582204,-9.819133110000001,0.004176,0.00216,0.00439,-76.302094,96.436218,-209.196274,60.187689,24.830159,14.416528,8.553891,-1.0,-1.0,100.073593,0.227242,-0.008849,0.015335,0.311991
879748.107632,-0.08532738,-0.16839846000000003,-9.82107549,0.004439,0.002743,0.005275,-76.111176,96.529205,-209.086594,60.187689,24.830159,14.416528,8.553891,-1.0,-1.0,100.073593,0.227242,-0.008838,0.015354,0.311987
879748.127619,-0.09490194,-0.16121754000000002,-9.795334050000001,0.00579,-0.00142,0.002901,-76.191956,96.508652,-209.063766,60.187689,24.830159,14.416528,8.553891,-1.0,-1.0,100.073593,0.227242,-0.008817,0.015367,0.311984
879748.147605,-0.07589016,-0.14474655,-9.81509139,0.002697,-0.000696,0.004428,-76.09375,96.447388,-209.041611,60.187689,24.830159,14.416528,8.553891,-1.0,-1.0,100.073593,0.227242,-0.008815,0.015367,0.311972
879748.167592,-0.08756406,-0.15282999000000003,-9.82721655,0.004526,-0.002019,0.003821,-76.117584,96.490219,-208.919022,60.187689,24.830159,14.416528,8.553891,-1.0,-1.0,100.073593,0.227242,-0.008803,0.015354,0.311976
879748.187579,-0.09355797,-0.14445225,-9.81494424,0.004526,-0.002019,0.003821,-76.245193,96.348618,-209.220428,60.187689,24.830159,14.416528,8.553891,-1.0,-1.0,100.073593,0.227242,-0.0088,0.015354,0.311974
879748.207566,-0.09116433,-0.15672456,-9.82556847,0.002038,0.001354,0.003433,-76.467331,96.528503,-209.299103,60.187689,24.830159,14.416528,8.553891,-1.0,-1.0,100.073593,0.227242,-0.008787,0.015364,0.311981
879748.227552,-0.09265545000000001,-0.14818986,-9.81090252,0.005244,3.3e-05,0.00356,-76.10231,96.537491,-209.1539,60.187689,24.830159,14.416528,8.553891,-1.0,-1.0,100.073593,0.227242,-0.008784,0.015355,0.31198
879748.247539,-0.08741691000000001,-0.15342840000000002,-9.81464013,0.004567,-0.000122,0.003706,-76.25708,96.564117,-209.11145,60.187689,24.830159,14.416528,8.553891,-1.0,-1.0,100.073593,0.227242,-0.008796,0.015373,0.311978
879748.267526,-0.08412075,-0.17198892,-9.80565417,0.002529,5e-06,0.002508,-76.401306,96.373123,-209.212234,60.187689,24.830159,14.416528,8.553891,-1.0,-1.0,100.073143,0.266876,-0.00879,0.015369,0.311983
879748.287512,-0.10747836000000001,-0.15088761,-9.818377739999999,0.004057,-0.003211,0.003123,-76.301132,96.487579,-209.047241,60.187689,24.830159,14.416528,8.553891,-1.0,-1.0,100.073143,0.266876,-0.008793,0.015368,0.311972
879748.307499,-0.08951625,-0.15103476000000002,-9.8213796,0.002064,-0.001438,0.004245,-76.257233,96.471024,-208.996292,60.187689,24.830159,14.416528,8.553891,-1.0,-1.0,100.073143,0.266876,-0.00881,0.015364,0.311969
879748.327486,-0.09100737,-0.15538058999999999,-9.82062423,0.0026,0.000355,0.002576,-76.361069,96.454529,-208.984741,60.187689,24.830159,14.416528,8.553891,-1.0,-1.0,100.073143,0.266876,-0.008828,0.015356,0.311953
879748.347472,-0.08576883000000002,-0.16390548000000002,-9.815689800000001,0.004516,-0.000425,0.003439,-76.276535,96.468781,-208.940338,60.187689,24.830159,14.416528,8.553891,-1.0,-1.0,100.073143,0.266876,-0.008828,0.015377,0.311939
879748.347472,-0.08576883000000002,-0.16390548000000002,-9.815689800000001,0.004516,-0.000425,0.003439,-76.276535,96.468781,-208.940338,60.187689,24.830159,14.416528,8.553891,-1.0,-1.0,100.073143,0.266876,-0.008828,0.015377,0.311939
879748.387446,-0.08712261,-0.1502892,-9.819584370000001,0.0042,0.000634,0.003361,-76.19191,96.561081,-208.981583,60.187689,24.830159,14.416528,8.553891,-1.0,-1.0,100.073143,0.266876,-0.008831,0.015383,0.311947
879748.407433,-0.08906499000000001,-0.15043635,-9.80191656,0.004442,-0.000373,0.004674,-75.937134,96.691406,-209.150925,60.187689,24.830159,14.416528,8.553891,-1.0,-1.0,100.073143,0.266876,-0.008839,0.015387,0.311937
879748.427419,-0.10328949000000001,-0.14818986,-9.81299205,0.003707,0.001389,0.004078,-76.019455,96.703156,-208.909241,60.187689,24.830159,14.416528,8.553891,-1.0,-1.0,100.073143,0.266876,-0.008855,0.015391,0.311943
879748.447406,-0.09176274,-0.14519781,-9.81164808,0.003955,0.000138,0.003435,-76.259506,96.620712,-208.751892,60.187689,24.830159,14.416528,8.553891,-1.0,-1.0,100.073143,0.266876,-0.008856,0.015408,0.311952
879748.467393,-0.08622009,-0.15178032,-9.82841337,0.004935,0.00082,0.003292,-76.219772,96.682892,-209.060776,60.187689,24.830159,14.416528,8.553891,-1.0,-1.0,100.073143,0.266876,-0.008851,0.015422,0.311941
879748.487379,-0.09550035000000001,-0.15956946,-9.80925444,0.003375,-0.000751,0.005763,-76.272278,96.722458,-209.333969,60.187689,24.830159,14.416528,8.553891,-1.0,-1.0,100.073143,0.266876,-0.008852,0.015424,0.311933
879748.487379,-0.09550035000000001,-0.15956946,-9.80925444,0.003375,-0.000751,0.005763,-76.272278,96.722458,-209.333969,60.187689,24.830159,14.416528,8.553891,-1.0,-1.0,100.073143,0.266876,-0.008852,0.015424,0.311933
879748.487379,-0.09550035000000001,-0.15956946,-9.80925444,0.003375,-0.000751,0.005763,-76.272278,96.722458,-209.333969,60.187689,24.830159,14.416528,8.553891,-1.0,-1.0,100.073143,0.266876,-0.008852,0.015424,0.311933
879748.54734,-0.09520605,-0.14998509000000002,-9.8068608,0.004044,-0.000534,0.005866,-76.073715,96.330902,-208.816666,60.187689,24.830159,14.416528,8.553891,-1.0,-1.0,100.073143,0.266876,-0.008869,0.015413,0.311941
879748.567326,-0.10657584,-0.13711437,-9.82646118,0.002268,-0.000818,0.003325,-76.170349,96.649261,-209.02417,60.187689,24.830159,14.416528,8.553891,-1.0,-1.0,100.073143,0.266876,-0.008861,0.015428,0.311964
879748.587313,-0.09894366,-0.16031502,-9.7986204,0.003316,0.000388,0.004687,-76.144958,96.767212,-208.878036,60.187689,24.830159,14.416528,8.553891,-1.0,-1.0,100.073143,0.266876,-0.008866,0.015436,0.311958
879748.6073,-0.08906499000000001,-0.15851979,-9.81418887,0.002597,0.001052,0.003887,-76.107788,96.66217,-208.949234,60.187689,24.830159,14.416528,8.553895,-1.0,-1.0,100.073143,0.266876,-0.008863,0.015443,0.311966
879748.647273,-0.10373094000000001,-0.14385384,-9.79488279,0.002649,-0.000284,0.004928,-76.39093,96.505325,-208.90802,60.187689,24.830159,14.416528,8.553895,-1.0,-1.0,100.073143,0.266876,-0.008854,0.015417,0.31195
879748.647273,-0.10373094000000001,-0.14385384,-9.79488279,0.002649,-0.000284,0.004928,-76.39093,96.505325,-208.90802,60.187689,24.830159,14.416528,8.553895,-1.0,-1.0,100.073143,0.266876,-0.008854,0.015417,0.31195
879748.647273,-0.10373094000000001,-0.14385384,-9.79488279,0.002649,-0.000284,0.004928,-76.39093,96.505325,-208.90802,60.187689,24.830159,14.416528,8.553895,-1.0,-1.0,100.073143,0.266876,-0.008854,0.015417,0.31195
879748.66726,-0.10552617,-0.14400099,-9.81793629,0.003251,-0.001876,0.003048,-76.210159,96.676849,-208.915237,60.187689,24.830159,14.416528,8.553895,-1.0,-1.0,100.073143,0.266876,-0.008864,0.015415,0.311952
879748.72722,-0.09834525,-0.15582204,-9.82586277,0.002419,-0.000175,0.006319,-76.222183,96.502548,-208.906693,60.187689,24.830159,14.416528,8.553895,-1.0,-1.0,100.073143,0.266876,-0.008871,0.015468,0.311978
879748.747207,-0.10059174,-0.13950801,-9.81299205,0.002868,-0.000614,0.004332,-76.242416,96.464798,-208.994843,60.187689,24.830159,14.416528,8.553895,-1.0,-1.0,100.073143,0.266876,-0.008869,0.015464,0.312003
879748.767193,-0.08292393,-0.14564907000000002,-9.83754648,0.003079,-0.000632,0.003526,-76.371765,96.401123,-209.236847,60.187689,24.830159,14.416528,8.553895,-1.0,-1.0,100.073143,0.266876,-0.008867,0.015453,0.311994
879748.767193,-0.08292393,-0.14564907000000002,-9.83754648,0.003079,-0.000632,0.003526,-76.371765,96.401123,-209.236847,60.187689,24.830159,14.416528,8.553895,-1.0,-1.0,100.073143,0.266876,-0.008867,0.015453,0.311994
879748.807167,-0.10882233000000001,-0.13936086,-9.83245509,0.00431,-0.000397,0.004588,-76.337585,96.463623,-209.122635,60.187689,24.830159,14.416528,8.553895,-1.0,-1.0,100.073143,0.266876,-0.008888,0.015441,0.311985
879748.827153,-0.09430353000000001,-0.15297714,-9.78261048,0.005523,0.001004,0.004339,-76.287308,96.493912,-208.986664,60.187689,24.830159,14.416528,8.553895,-1.0,-1.0,100.073143,0.266876,-0.008884,0.015459,0.311972
879748.84714,-0.08277678,-0.14818986,-9.82062423,0.004046,-0.000282,0.00456,-76.217224,96.608521,-209.038956,60.187689,24.830159,14.416528,8.553895,-1.0,-1.0,100.073143,0.266876,-0.008877,0.015477,0.311974
879748.867127,-0.09805095000000001,-0.15672456,-9.82886463,0.002683,0.000906,0.004861,-76.409943,96.485291,-209.198273,60.187689,24.830159,14.416528,8.553895,-1.0,-1.0,100.073143,0.266876,-0.008873,0.015496,0.311968
879748.867127,-0.09805095000000001,-0.15672456,-9.82886463,0.002683,0.000906,0.004861,-76.409943,96.485291,-209.198273,60.187689,24.830159,14.416528,8.553895,-1.0,-1.0,100.073143,0.266876,-0.008873,0.015496,0.311968
879748.867127,-0.09805095000000001,-0.15672456,-9.82886463,0.002683,0.000906,0.004861,-76.409943,96.485291,-209.198273,60.187689,24.830159,14.416528,8.553895,-1.0,-1.0,100.073143,0.266876,-0.008873,0.015496,0.311968
879748.867127,-0.09805095000000001,-0.15672456,-9.82886463,0.002683,0.000906,0.004861,-76.409943,96.485291,-209.198273,60.187689,24.830159,14.416528,8.553895,-1.0,-1.0,100.073143,0.266876,-0.008873,0.015496,0.311968
879748.947074,-0.08996751000000001,-0.15402681000000001,-9.799817220000001,0.004346,-0.002015,0.003875,-76.428055,96.465256,-209.237244,60.187689,24.830159,14.416528,8.553895,-1.0,-1.0,100.073143,0.266876,-0.008893,0.015508,0.311971
879748.947074,-0.08996751000000001,-0.15402681000000001,-9.799817220000001,0.004346,-0.002015,0.003875,-76.428055,96.465256,-209.237244,60.187689,24.830159,14.416528,8.553895,-1.0,-1.0,100.073143,0.266876,-0.008893,0.015508,0.311971
879748.96706,-0.09190989000000001,-0.15792138000000003,-9.82930608,0.004346,-0.002015,0.003875,-76.354828,96.663513,-209.012222,60.187689,24.830159,14.416528,8.553895,-1.0,-1.0,100.073143,0.266876,-0.0089,0.015529,0.311975
879749.007034,-0.10523187,-0.16031502,-9.84637548,0.002565,-0.000721,0.003972,-76.162354,96.75032,-208.883911,60.187689,24.830159,14.416528,8.553895,-1.0,-1.0,100.073143,0.266876,-0.008864,0.015546,0.311958
879749.027021,-0.09056592000000001,-0.15851979,-9.79892451,0.004552,0.001736,0.003057,-76.26207,96.582001,-208.94072,60.187689,24.830159,14.416528,8.553895,-1.0,-1.0,100.073143,0.266876,-0.008869,0.015532,0.311947
879749.047007,-0.09759969,-0.14893542,-9.82841337,0.003873,-0.001631,0.002881,-76.261719,96.650604,-209.124649,60.187689,24.830159,14.416528,8.553895,-1.0,-1.0,100.073143,0.266876,-0.008875,0.015533,0.311948
879749.047007,-0.09759969,-0.14893542,-9.82841337,0.003873,-0.001631,0.002881,-76.261719,96.650604,-209.124649,60.187689,24.830159,14.416528,8.553895,-1.0,-1.0,100.073143,0.266876,-0.008875,0.015533,0.311948
879749.086981,-0.10777265999999999,-0.14429529,-9.80266212,0.002067,-7.1e-05,0.003838,-76.612717,96.365005,-209.190979,60.187689,24.830159,14.416528,8.553895,-1.0,-1.0,100.073143,0.266876,-0.008893,0.015489,0.311944
879749.106968,-0.09595161,-0.15567489,-9.83095416,0.001688,-0.001143,0.004804,-76.324173,96.697601,-208.996674,60.187689,24.830159,14.416528,8.553895,-1.0,-1.0,100.073143,0.266876,-0.008894,0.015478,0.311956
879749.126954,-0.07844076,-0.17198892,-9.80805762,0.004729,-0.002611,0.004917,-76.344925,96.704742,-209.645493,60.187689,24.830159,14.416528,8.553895,-1.0,-1.0,100.073143,0.266876,-0.008881,0.015472,0.311963
879749.126954,-0.07844076,-0.17198892,-9.80805762,0.004729,-0.002611,0.004917,-76.344925,96.704742,-209.645493,60.187689,24.830159,14.416528,8.553895,-1.0,-1.0,100.073143,0.266876,-0.008881,0.015472,0.311963
879749.146941,-0.09310671,-0.16301277,-9.833053500000002,0.003413,-0.000623,0.004303,-76.294144,96.679428,-209.203232,60.187689,24.830159,14.416528,8.553895,-1.0,-1.0,100.073143,0.266876,-0.008877,0.015486,0.311964
879749.186914,-0.09340101,-0.14654178,-9.80131815,0.004594,0.00057,0.004282,-76.053268,96.591873,-209.020172,60.187689,24.830159,14.416528,8.553895,-1.0,-1.0,100.073143,0.266876,-0.008872,0.015464,0.311968
879749.206901,-0.09640287000000002,-0.14998509000000002,-9.80595828,0.00328,-0.001039,0.004266,-76.384842,96.511383,-209.257645,60.187689,24.830159,14.416528,8.553895,-1.0,-1.0,100.073143,0.266876,-0.00888,0.015463,0.311962
879749.206901,-0.09640287000000002,-0.14998509000000002,-9.80595828,0.00328,-0.001039,0.004266,-76.384842,96.511383,-209.257645,60.187689,24.830159,14.416528,8.553895,-1.0,-1.0,100.073143,0.266876,-0.00888,0.015463,0.311962
879749.206901,-0.09640287000000002,-0.14998509000000002,-9.80595828,0.00328,-0.001039,0.004266,-76.384842,96.511383,-209.257645,60.187689,24.830159,14.416528,8.553895,-1.0,-1.0,100.073143,0.266876,-0.00888,0.015463,0.311962
879749.206901,-0.09640287000000002,-0.14998509000000002,-9.80595828,0.00328,-0.001039,0.004266,-76.384842,96.511383,-209.257645,60.187689,24.830159,14.416528,8.553895,-1.0,-1.0,100.073143,0.266876,-0.00888,0.015463,0.311962
879749.286848,-0.09385227000000002,-0.15253569,-9.83724237,0.002458,-0.00077,0.004537,-76.226578,96.424911,-209.145248,60.187689,24.830159,14.416528,8.553895,-1.0,-1.0,100.073143,0.266876,-0.008882,0.015498,0.311942
879749.306835,-0.10208286000000001,-0.15208443,-9.81254079,0.003893,0.000555,0.005358,-76.08107,96.444016,-208.996597,60.187689,24.830159,14.416528,8.553895,-1.0,-1.0,100.073143,0.266876,-0.008883,0.015489,0.311938
879749.326821,-0.09220419,-0.14490351,-9.803711790000001,0.00319,-0.002976,0.002605,-76.111343,96.566757,-209.185898,60.187689,24.830159,14.416528,8.553895,-1.0,-1.0,100.073143,0.266876,-0.008877,0.015483,0.311956
879749.326821,-0.09220419,-0.14490351,-9.803711790000001,0.00319,-0.002976,0.002605,-76.111343,96.566757,-209.185898,60.187689,24.830159,14.416528,8.553895,-1.0,-1.0,100.073143,0.266876,-0.008877,0.015483,0.311956
879749.366795,-0.0896634,-0.14654178,-9.792783450000002,0.003961,-0.000128,0.00455,-76.096664,96.651672,-209.060104,60.187689,24.830159,14.416528,8.553895,-1.0,-1.0,100.072372,0.330292,-0.008897,0.015484,0.311942
879749.386781,-0.10478061,-0.14804271000000002,-9.835594290000001,0.00225,-1e-06,0.002831,-76.129898,96.538269,-209.189087,60.187689,24.830159,14.416528,8.553895,-1.0,-1.0,100.072372,0.330292,-0.008902,0.015481,0.311957
879749.406768,-0.09655002,-0.15373251000000002,-9.81643536,0.00145,0.003256,0.004375,-76.22139,96.346542,-209.199707,60.187689,24.830159,14.416528,8.553895,-1.0,-1.0,100.072372,0.330292,-0.0089,0.015489,0.311969
879749.426755,-0.08876088000000001,-0.15942231,-9.816739470000002,0.000101,0.001496,0.00435,-76.254471,96.473907,-209.076187,60.187689,24.830159,14.416528,8.553895,-1.0,-1.0,100.072372,0.330292,-0.00887,0.01546,0.311972
879749.446742,-0.09624591,-0.16435674000000003,-9.823469130000001,0.004182,-0.001063,0.003918,-76.303314,96.530075,-209.342102,60.187689,24.830159,14.416528,8.553895,-1.0,-1.0,100.072372,0.330292,-0.008875,0.015464,0.311977
879749.466728,-0.10343664,-0.14445225,-9.808351920000002,0.003401,0.002334,0.004349,-76.054184,96.471375,-209.17247,60.187689,24.830159,14.416528,8.553895,-1.0,-1.0,100.072372,0.330292,-0.008808,0.015423,0.311974
879749.486715,-0.10014048,-0.16076628,-9.84697389,0.004188,0.000516,0.003593,-76.142914,96.401779,-209.304092,60.187689,24.830159,14.416528,8.553895,-1.0,-1.0,100.072372,0.330292,-0.008809,0.015447,0.311962
879749.506702,-0.09220419,-0.15253569,-9.81,0.004112,0.000128,0.004626,-76.338455,96.41713,-209.259216,60.187689,24.830159,14.416528,8.553895,-1.0,-1.0,100.072372,0.330292,-0.00879,0.015452,0.311955
879749.506702,-0.09220419,-0.15253569,-9.81,0.004112,0.000128,0.004626,-76.338455,96.41713,-209.259216,60.187689,24.830159,14.416528,8.553895,-1.0,-1.0,100.072372,0.330292,-0.00879,0.015452,0.311955
879749.506702,-0.09220419,-0.15253569,-9.81,0.004112,0.000128,0.004626,-76.338455,96.41713,-209.259216,60.187689,24.830159,14.416528,8.553895,-1.0,-1.0,100.072372,0.330292,-0.00879,0.015452,0.311955
879749.506702,-0.09220419,-0.15253569,-9.81,0.004112,0.000128,0.004626,-76.338455,96.41713,-209.259216,60.187689,24.830159,14.416528,8.553895,-1.0,-1.0,100.072372,0.330292,-0.00879,0.015452,0.311955
879749.606635,-0.0928026,-0.15342840000000002,-9.80760636,0.004398,-0.001713,0.003766,-76.251602,96.550186,-209.583649,60.187689,24.830159,14.416528,8.553895,-1.0,-1.0,100.072372,0.330292,-0.008795,0.015428,0.311956
879749.626622,-0.09160578000000001,-0.14309847,-9.821821049999999,0.003552,-0.000536,0.003326,-76.19751,96.37999,-209.300507,60.187689,24.830159,14.416528,8.553895,-1.0,-1.0,100.072372,0.330292,-0.008795,0.015435,0.311946
879749.646609,-0.08607294000000001,-0.15447807000000002,-9.8242245,0.004475,0.000948,0.004791,-76.293243,96.534302,-209.554626,60.187689,24.830159,14.416528,8.553895,-1.0,-1.0,100.072372,0.330292,-0.008798,0.015426,0.31193
879749.666595,-0.08861373,-0.1474443,-9.81,0.002837,-0.0014,0.003926,-76.305542,96.40303,-209.178925,60.187689,24.830159,14.416528,8.553895,-1.0,-1.0,100.072372,0.330292,-0.0088,0.015427,0.311936
879749.686582,-0.1013373,-0.14385384,-9.815238540000001,0.001114,-0.000427,0.003092,-76.382355,96.512985,-209.137619,60.187689,24.830159,14.416528,8.553895,-1.0,-1.0,100.072372,0.330292,-0.008819,0.015434,0.311931
879749.706569,-0.10537902,-0.16974243,-9.81434583,0.004269,0.000407,0.004377,-76.230621,96.589706,-209.141327,60.187689,24.830159,14.416528,8.553895,-1.0,-1.0,100.072372,0.330292,-0.008828,0.01543,0.311933
879749.726556,-0.08996751000000001,-0.15926535,-9.822272309999999,0.004265,0.000596,0.004918,-76.223145,96.644836,-209.420166,60.187689,24.830159,14.416528,8.553895,-1.0,-1.0,100.072372,0.330292,-0.008826,0.015441,0.311938
879749.746542,-0.09684432000000001,-0.16211025,-9.82122264,0.004265,0.000596,0.004918,-76.207611,96.6521,-209.052429,60.187689,24.830159,14.416528,8.553895,-1.0,-1.0,100.072372,0.330292,-0.008818,0.015448,0.311937
879749.766529,-0.07603731000000001,-0.14654178,-9.803711790000001,0.003126,-7e-05,0.004226,-76.143097,96.587936,-209.337189,60.187689,24.830159,14.416528,8.553895,-1.0,-1.0,100.072372,0.330292,-0.008816,0.015439,0.311929
879749.786516,-0.09011466,-0.14445225,-9.82272357,0.003083,-0.001074,0.004139,-76.113388,96.575027,-209.156418,60.187689,24.830159,14.416528,8.553895,-1.0,-1.0,100.072372,0.330292,-0.008821,0.015434,0.311931
879749.806502,-0.09864936,-0.14654178,-9.800121330000001,0.003439,-2.9e-05,0.003482,-76.223679,96.760941,-209.309464,60.187689,24.830159,14.416528,8.553895,-1.0,-1.0,100.072372,0.330292,-0.008828,0.015445,0.311922
879749.826489,-0.08741691000000001,-0.15373251000000002,-9.817033770000002,0.002437,0.000553,0.004846,-76.301559,96.61882,-209.272003,60.187689,24.830159,14.416528,8.553895,-1.0,-1.0,100.072372,0.330292,-0.008831,0.015445,0.311931
879749.846476,-0.10059174,-0.14190165000000002,-9.82197801,0.003068,-0.000918,0.004566,-76.28244,96.610611,-209.329544,60.187689,24.830159,14.416528,8.553895,-1.0,-1.0,100.072372,0.330292,-0.00882,0.015432,0.311933
879749.846476,-0.10059174,-0.14190165000000002,-9.82197801,0.003068,-0.000918,0.004566,-76.28244,96.610611,-209.329544,60.187689,24.830159,14.416528,8.553895,-1.0,-1.0,100.072372,0.330292,-0.00882,0.015432,0.311933
879749.886449,-0.09295956000000001,-0.15582204,-9.8213796,0.00277,0.000505,0.004058,-76.048615,96.560318,-209.149338,60.187689,24.830159,14.416528,8.553895,-1.0,-1.0,100.072372,0.330292,-0.008814,0.015418,0.311928
879749.906436,-0.09415638000000001,-0.14550192,-9.79413723,0.003362,-0.000696,0.004681,-76.151779,96.702759,-209.219131,60.187689,24.830159,14.416528,8.553895,-1.0,-1.0,100.072372,0.330292,-0.008811,0.015409,0.311927
879749.926423,-0.08996751000000001,-0.15986376000000002,-9.810304109999999,0.003302,-0.000925,0.004487,-76.218689,96.587891,-209.1418,60.187689,24.830159,14.416528,8.553895,-1.0,-1.0,100.072372,0.330292,-0.008807,0.015396,0.311928
879749.946409,-0.08502327,-0.15342840000000002,-9.80236782,0.003812,-0.000329,0.005376,-75.918869,96.59758,-209.309265,60.187689,24.830159,14.416528,8.553895,-1.0,-1.0,100.072372,0.330292,-0.008818,0.015388,0.311942
879749.966396,-0.09759969,-0.15328125,-9.80461431,0.00365,-0.000533,0.004423,-76.085022,96.730347,-209.215469,60.187689,24.830159,14.416528,8.553895,-1.0,-1.0,100.072372,0.330292,-0.008824,0.015381,0.311947
879749.966396,-0.09759969,-0.15328125,-9.80461431,0.00365,-0.000533,0.004423,-76.085022,96.730347,-209.215469,60.187689,24.830159,14.416528,8.553895,-1.0,-1.0,100.072372,0.330292,-0.008824,0.015381,0.311947
879750.00637,-0.08248248000000001,-0.15342840000000002,-9.82212516,0.003304,0.000412,0.00491,-76.110611,96.632233,-209.077759,60.187689,24.830159,14.416528,8.553895,-1.0,-1.0,100.072372,0.330292,-0.008833,0.015375,0.311968
879750.026356,-0.08831943,-0.15103476000000002,-9.807302250000001,0.00284,-0.000555,0.00341,-76.07399,96.660065,-209.071198,60.187689,24.830159,14.416528,8.553895,-1.0,-1.0,100.072372,0.330292,-0.008823,0.015382,0.31196
879750.046343,-0.09714843000000001,-0.14714019,-9.82332198,0.002852,-0.000519,0.004962,-76.087875,96.566254,-209.015091,60.187689,24.830159,14.416528,8.553895,-1.0,-1.0,100.072372,0.330292,-0.008828,0.01537,0.311961
879750.06633,-0.09759969,-0.15297714,-9.801171,0.003233,0.001024,0.004343,-75.943481,96.60907,-208.809311,60.187689,24.830159,14.416528,8.553895,-1.0,-1.0,100.072372,0.330292,-0.008822,0.015351,0.311973
879750.086316,-0.0896634,-0.15806852999999998,-9.811795230000001,0.001875,-0.000351,0.003164,-75.969147,96.783203,-209.102707,60.187689,24.830159,14.416528,8.553895,-1.0,-1.0,100.072372,0.330292,-0.008816,0.015354,0.311978
879750.106303,-0.11661147000000001,-0.15492933000000003,-9.82661814,0.001478,-0.000248,0.003983,-75.914139,96.688416,-208.715561,60.187689,24.830159,14.416528,8.553895,-1.0,-1.0,100.072372,0.330292,-0.008814,0.015344,0.311998
879750.12629,-0.08412075,-0.15074046,-9.81239364,0.001999,-0.000364,0.004404,-76.029022,96.659119,-208.949921,60.187689,24.830159,14.416528,8.553895,-1.0,-1.0,100.072372,0.330292,-0.008808,0.015315,0.311997
879750.146277,-0.09056592000000001,-0.15687171,-9.818534699999999,0.004282,-0.00019,0.005073,-76.103607,96.669296,-209.105804,60.187689,24.830159,14.416528,8.553895,-1.0,-1.0,100.072372,0.330292,-0.00881,0.015301,0.311995
879750.146277,-0.09056592000000001,-0.15687171,-9.818534699999999,0.004282,-0.00019,0.005073,-76.103607,96.669296,-209.105804,60.187689,24.830159,14.416528,8.553895,-1.0,-1.0,100.072372,0.330292,-0.00881,0.015301,0.311995
879750.166263,-0.09550035000000001,-0.14923953,-9.80760636,0.003102,0.000564,0.003289,-76.020981,96.657913,-209.025742,60.187689,24.830159,14.416528,8.553895,-1.0,-1.0,100.072372,0.330292,-0.008819,0.015304,0.311993
879750.226223,-0.08816247,-0.15358536,-9.813590460000002,0.002331,0.000295,0.005544,-76.001801,96.73851,-209.076019,60.187689,24.830159,14.416528,8.553895,-1.0,-1.0,100.072372,0.330292,-0.008814,0.015322,0.311978
879750.24621,-0.09355797,-0.16959528000000001,-9.82766781,0.002451,-0.001301,0.003729,-76.089951,96.655975,-208.938599,60.187689,24.830159,14.416528,8.553895,-1.0,-1.0,100.072372,0.330292,-0.008801,0.015327,0.311981
879750.266197,-0.06945480000000001,-0.15282999000000003,-9.79413723,0.004331,-0.000462,0.004079,-76.089951,96.655975,-208.938599,60.187689,24.830159,14.416528,8.553895,-1.0,-1.0,100.072372,0.330292,-0.008804,0.015325,0.31199
879750.286184,-0.09475478999999999,-0.15657741,-9.82556847,0.00334,0.000211,0.005395,-75.981659,96.57666,-208.718018,60.187689,24.830159,14.416528,8.553895,-1.0,-1.0,100.072372,0.330292,-0.008804,0.015325,0.311986
879750.30617,-0.09968922,-0.15193728,-9.80251497,0.004343,-0.000714,0.003841,-76.270157,96.800491,-208.91449,60.187689,24.830159,14.416528,8.553895,-1.0,-1.0,100.072372,0.330292,-0.008813,0.015333,0.312
879750.326157,-0.08861373,-0.14534496,-9.82586277,0.003123,-0.000222,0.005098,-76.139252,96.726105,-208.910141,60.187689,24.830159,14.416528,8.553895,-1.0,-1.0,100.072372,0.330292,-0.008805,0.015361,0.312008
879750.346144,-0.10537902,-0.14684589,-9.82272357,0.003477,-0.000363,0.005373,-76.109024,96.621445,-209.07309,60.187689,24.830159,14.416528,8.553895,-1.0,-1.0,100.072372,0.330292,-0.008813,0.015377,0.312022
879750.346144,-0.10537902,-0.14684589,-9.82272357,0.003477,-0.000363,0.005373,-76.109024,96.621445,-209.07309,60.187689,24.830159,14.416528,8.553895,-1.0,-1.0,100.072372,0.330292,-0.008813,0.015377,0.312022
879750.386117,-0.09879651,-0.16046217000000002,-9.81239364,0.002794,0.000405,0.003568,-75.96315,96.752121,-209.189774,60.187689,24.830159,14.416528,8.553895,-1.0,-1.0,100.072372,0.330292,-0.008825,0.015416,0.312034
879750.406104,-0.09295956000000001,-0.15672456,-9.816739470000002,0.004062,0.000556,0.004972,-75.846039,96.78392,-209.326828,60.187689,24.830159,14.416528,8.553895,-1.0,-1.0,100.072372,0.330292,-0.008828,0.015435,0.312035
879750.426091,-0.09894366,-0.14954364,-9.81554265,0.002122,0.000736,0.003712,-75.834091,96.83876,-209.138779,60.187689,24.830159,14.416528,8.553895,-1.0,-1.0,100.071716,0.38578,-0.008831,0.015427,0.312036
879750.446077,-0.09595161,-0.15133887000000001,-9.80266212,0.002428,0.001386,0.003265,-75.866531,96.935471,-208.999115,60.187689,24.830159,14.416528,8.553895,-1.0,-1.0,100.071716,0.38578,-0.008843,0.015424,0.312044
879750.446077,-0.09595161,-0.15133887000000001,-9.80266212,0.002428,0.001386,0.003265,-75.866531,96.935471,-208.999115,60.187689,24.830159,14.416528,8.553895,-1.0,-1.0,100.071716,0.38578,-0.008843,0.015424,0.312044
879750.446077,-0.09595161,-0.15133887000000001,-9.80266212,0.002428,0.001386,0.003265,-75.866531,96.935471,-208.999115,60.187689,24.830159,14.416528,8.553895,-1.0,-1.0,100.071716,0.38578,-0.008843,0.015424,0.312044
879750.506037,-0.08562168,-0.16794720000000002,-9.80805762,0.003425,-0.000813,0.004636,-76.0522,96.509933,-209.093155,60.187689,24.830159,14.416528,8.553895,-1.0,-1.0,100.071716,0.38578,-0.008873,0.015464,0.312031
879750.526024,-0.09325386000000001,-0.16061913,-9.82332198,0.003159,-0.001661,0.005692,-75.949799,96.679337,-208.878204,60.187689,24.830159,14.416528,8.553895,-1.0,-1.0,100.071716,0.38578,-0.008876,0.015457,0.312052
879750.546011,-0.10238697000000001,-0.14519781,-9.81404172,0.002605,0.000748,0.005488,-75.934052,96.564407,-209.166977,60.187689,24.830159,14.416528,8.553895,-1.0,-1.0,100.071716,0.38578,-0.008901,0.015457,0.312046
879750.565998,-0.10537902,-0.14983794,-9.79218504,0.003907,-0.000762,0.0044,-76.04129,96.571198,-209.188812,60.187689,24.830159,14.416528,8.553895,-1.0,-1.0,100.071716,0.38578,-0.008906,0.015454,0.312036
879750.585984,-0.1013373,-0.14160735,-9.82901178,0.001898,0.000399,0.004816,-75.96991,96.590836,-208.981903,60.187689,24.830159,14.416528,8.553895,-1.0,-1.0,100.071716,0.38578,-0.00892,0.015463,0.312033
879750.605971,-0.08667135000000001,-0.15418377,-9.80041563,0.002225,-0.000886,0.005439,-75.843124,96.745163,-209.220856,60.187689,24.830159,14.416528,8.553895,-1.0,-1.0,100.071716,0.38578,-0.008926,0.015461,0.312029
879750.625958,-0.08696565,-0.15253569,-9.81793629,0.003727,-0.000465,0.004128,-75.910934,96.781906,-209.070633,60.187689,24.830159,14.416528,8.553895,-1.0,-1.0,100.071716,0.38578,-0.008928,0.015473,0.312038
879750.645944,-0.09805095000000001,-0.16315992,-9.8128449,0.002829,-0.000505,0.005098,-76.021591,96.599106,-208.799179,60.187689,24.830159,14.416528,8.553895,-1.0,-1.0,100.071716,0.38578,-0.008942,0.015483,0.312049
879750.665931,-0.09011466,-0.15552774,-9.82152675,0.004917,-0.000764,0.003929,-76.081177,96.492844,-209.080307,60.187689,24.830159,14.416528,8.553895,-1.0,-1.0,100.071716,0.38578,-0.008946,0.015496,0.312071
879750.685918,-0.08756406,-0.15342840000000002,-9.82078119,0.000982,-0.001043,0.004353,-76.235168,96.483673,-209.107727,60.187689,24.830159,14.416528,8.553895,-1.0,-1.0,100.071716,0.38578,-0.008956,0.015512,0.312071
879750.705905,-0.08816247,-0.14699304000000002,-9.81239364,0.001948,-4.5e-05,0.003745,-76.001816,96.590271,-209.194595,60.187689,24.830159,14.416528,8.553895,-1.0,-1.0,100.071716,0.38578,-0.008948,0.015511,0.312074
879750.725891,-0.09954207,-0.14624748,-9.815689800000001,0.002862,0.000533,0.002498,-76.017624,96.47876,-209.08107,60.187689,24.830159,14.416528,8.553895,-1.0,-1.0,100.071716,0.38578,-0.00895,0.015501,0.312081
879750.745878,-0.09774684000000002,-0.14938668000000002,-9.80461431,0.004829,0.00014,0.005894,-75.987015,96.626068,-209.23085,60.187689,24.830159,14.416528,8.553895,-1.0,-1.0,100.071716,0.38578,-0.008957,0.015507,0.31205
879750.745878,-0.09774684000000002,-0.14938668000000002,-9.80461431,0.004829,0.00014,0.005894,-75.987015,96.626068,-209.23085,60.187689,24.830159,14.416528,8.553895,-1.0,-1.0,100.071716,0.38578,-0.008957,0.015507,0.31205
879750.785852,-0.09609875999999999,-0.14983794,-9.821821049999999,0.002886,-0.000215,0.005025,-75.924393,96.518967,-208.644562,60.187689,24.830159,14.416528,8.553895,-1.0,-1.0,100.071716,0.38578,-0.008964,0.015572,0.31205
879750.805838,-0.09624591,-0.15074046,-9.80490861,0.003217,-0.001822,0.005249,-75.835922,96.702682,-208.768143,60.187689,24.830159,14.416528,8.553895,-1.0,-1.0,100.071716,0.38578,-0.008968,0.015565,0.312061
879750.825825,-0.09011466,-0.15851979,-9.81808344,0.003488,0.000272,0.003777,-76.012009,96.568726,-208.850555,60.187689,24.830159,14.416528,8.553895,-1.0,-1.0,100.071716,0.38578,-0.00898,0.015581,0.312067
879750.845812,-0.07903917,-0.14954364,-9.80550702,0.004311,-0.000576,0.004781,-76.092545,96.442215,-209.077545,60.187689,24.830159,14.416528,8.553895,-1.0,-1.0,100.071716,0.38578,-0.008977,0.015584,0.312083
879750.865798,-0.09460764,-0.15642045000000002,-9.823469130000001,0.003493,0.000739,0.003827,-76.023636,96.592896,-208.978195,60.187689,24.830159,14.416528,8.553895,-1.0,-1.0,100.071716,0.38578,-0.008989,0.015595,0.312077
879750.885785,-0.09520605,-0.15074046,-9.8213796,0.003411,-4.6e-05,0.003508,-75.973831,96.47702,-209.030289,60.187689,24.830159,14.416528,8.553895,-1.0,-1.0,100.071716,0.38578,-0.008987,0.015586,0.312074
879750.905772,-0.09430353000000001,-0.13785993,-9.80820477,0.003912,-0.000992,0.005525,-75.831741,96.454987,-209.101456,60.187689,24.830159,14.416528,8.553895,-1.0,-1.0,100.071716,0.38578,-0.009003,0.015574,0.312091
879750.945745,-0.09879651,-0.16046217000000002,-9.81254079,0.002785,0.000442,0.004905,-75.856628,96.689087,-208.925049,60.187689,24.830159,14.416528,8.553895,-1.0,-1.0,100.071716,0.38578,-0.009011,0.015564,0.312114
879750.965732,-0.09116433,-0.16076628,-9.81119682,0.002056,-0.000149,0.005812,-76.030609,96.602097,-209.121674,60.187689,24.830159,14.416528,8.553895,-1.0,-1.0,100.071716,0.38578,-0.009005,0.015561,0.312116
879750.985719,-0.10014048,-0.16256151,-9.82078119,0.002058,-3.7e-05,0.005198,-76.030609,96.602097,-209.121674,60.187689,24.830159,14.416528,8.553895,-1.0,-1.0,100.071716,0.38578,-0.009017,0.015549,0.312117
879751.005705,-0.09325386000000001,-0.16106057999999998,-9.80162226,0.003975,-0.00068,0.004787,-76.024948,96.633621,-209.09375,60.187689,24.830159,14.416528,8.553895,-1.0,-1.0,100.071716,0.38578,-0.009026,0.015534,0.312128
879751.025692,-0.08457201,-0.14938668000000002,-9.831552570000001,0.003329,-0.001299,0.003629,-76.044693,96.689545,-209.065002,60.187689,24.830159,14.416528,8.553895,-1.0,-1.0,100.071716,0.38578,-0.009036,0.015542,0.31214
879751.045679,-0.08696565,-0.15522363,-9.81583695,0.002952,-0.000442,0.0052,-76.08345,96.433746,-208.980225,60.187689,24.830159,14.416528,8.553895,-1.0,-1.0,100.071716,0.38578,-0.009043,0.015542,0.31214
879751.065666,-0.08921214,-0.14100894,-9.81538569,0.002887,-0.00127,0.002668,-76.004715,96.578918,-209.038528,60.187689,24.830159,14.416528,8.553895,-1.0,-1.0,100.071716,0.38578,-0.009036,0.015529,0.312136
879751.065666,-0.08921214,-0.14100894,-9.81538569,0.002887,-0.00127,0.002668,-76.004715,96.578918,-209.038528,60.187689,24.830159,14.416528,8.553895,-1.0,-1.0,100.071716,0.38578,-0.009036,0.015529,0.312136
879751.105639,-0.09340101,-0.13621185,-9.81329616,0.00306,-0.001077,0.005295,-76.129044,96.548203,-209.089096,60.187689,24.830159,14.416528,8.553895,-1.0,-1.0,100.071716,0.38578,-0.009009,0.01552,0.312115
879751.125626,-0.09624591,-0.14684589,-9.83814489,0.002845,-0.000521,0.004981,-76.094391,96.648758,-209.117111,60.187689,24.830159,14.416528,8.553895,-1.0,-1.0,100.071716,0.38578,-0.009017,0.015531,0.312129
879751.145613,-0.10014048,-0.15133887000000001,-9.795334050000001,0.003206,0.000415,0.004428,-75.973709,96.62175,-208.717987,60.187689,24.830159,14.416528,8.553895,-1.0,-1.0,100.071716,0.38578,-0.009036,0.01553,0.312134
879751.165599,-0.09564750000000001,-0.15342840000000002,-9.819584370000001,0.003541,-0.000964,0.003812,-76.098129,96.627808,-209.257202,60.187689,24.830159,14.416528,8.553895,-1.0,-1.0,100.071716,0.38578,-0.009042,0.015547,0.312131
879751.185586,-0.09879651,-0.14833701000000002,-9.80670384,0.004242,-0.000113,0.004785,-76.166977,96.720215,-208.785507,60.187689,24.830159,14.416528,8.553895,-1.0,-1.0,100.071716,0.38578,-0.009037,0.015554,0.312129
879751.205573,-0.09340101,-0.13921371000000002,-9.807155100000001,0.003138,0.000412,0.004381,-76.212311,96.639923,-208.791885,60.187689,24.830159,14.416528,8.553895,-1.0,-1.0,100.071716,0.38578,-0.009033,0.015562,0.312139
879751.225559,-0.09100737,-0.14594337000000002,-9.823027680000001,0.004847,0.000574,0.003698,-76.166321,96.676437,-209.031433,60.187689,24.830159,14.416528,8.553895,-1.0,-1.0,100.071716,0.38578,-0.009034,0.01556,0.312129
879751.245546,-0.0925083,-0.15282999000000003,-9.81373761,0.003549,0.000484,0.002643,-76.176437,96.708466,-208.930923,60.187689,24.830159,14.416528,8.553895,-1.0,-1.0,100.071716,0.38578,-0.009033,0.015572,0.312123
879751.265533,-0.10343664,-0.1651023,-9.78589683,0.004001,-0.000851,0.003453,-76.049011,96.683289,-208.935455,60.187689,24.830159,14.416528,8.553895,-1.0,-1.0,100.071716,0.38578,-0.009025,0.015571,0.312134
879751.28552,-0.08532738,-0.13517199,-9.823920390000001,0.004735,-0.000553,0.002805,-76.063065,96.586121,-209.010239,60.187689,24.830159,14.416528,8.553895,-1.0,-1.0,100.071716,0.38578,-0.009022,0.015584,0.312129
879751.305506,-0.08951625,-0.16046217000000002,-9.80476146,0.004306,0.000198,0.003535,-76.169861,96.736679,-209.056732,60.187689,24.830159,14.416528,8.553895,-1.0,-1.0,100.071716,0.38578,-0.009009,0.015583,0.312125
879751.325493,-0.10298538000000002,-0.16765290000000002,-9.85415481,0.000277,-0.000613,0.003915,-76.224182,96.561905,-209.026535,60.187689,24.830159,14.416528,8.553895,-1.0,-1.0,100.071716,0.38578,-0.008994,0.015584,0.31213
879751.34548,-0.09100737,-0.15088761,-9.803113380000001,0.003613,-0.000735,0.004015,-76.253281,96.483658,-208.953247,60.187689,24.830159,14.416528,8.553895,-1.0,-1.0,100.071716,0.38578,-0.008997,0.015565,0.312124
879751.365467,-0.10088604,-0.13845834,-9.822272309999999,0.003196,0.000473,0.004351,-76.153564,96.666428,-208.981323,60.187689,24.830159,14.416528,8.553895,-1.0,-1.0,100.071716,0.38578,-0.008986,0.015555,0.312111
879751.385453,-0.09370512,-0.13965516,-9.807155100000001,0.004137,0.000828,0.006009,-76.325272,96.398041,-209.362518,60.187689,24.830159,14.416528,8.553895,-1.0,-1.0,100.071716,0.38578,-0.008983,0.015556,0.312106
879751.40544,-0.08786817,-0.14505066000000003,-9.81554265,0.004096,-0.000618,0.004999,-76.011063,96.558533,-209.185165,60.187689,24.830159,14.416528,8.553895,-1.0,-1.0,100.071716,0.38578,-0.008976,0.015569,0.312109
879751.425427,-0.09415638000000001,-0.16705449,-9.845178660000002,0.003986,0.000876,0.004071,-75.97493,96.690308,-209.279144,60.187689,24.830159,14.416528,8.553895,-1.0,-1.0,100.071716,0.38578,-0.008986,0.015583,0.312104
879751.445413,-0.09040896000000001,-0.16286562,-9.80490861,0.003514,-0.000124,0.003865,-76.233887,96.531616,-209.105225,60.187689,24.830159,14.416528,8.553895,-1.0,-1.0,100.071716,0.38578,-0.008977,0.015576,0.312112
879751.4654,-0.09834525,-0.17289144,-9.8213796,0.003069,0.000372,0.004669,-75.976959,96.760437,-208.761475,60.187689,24.830159,14.416528,8.553895,-1.0,-1.0,100.071716,0.38578,-0.008985,0.015566,0.312117
879751.485387,-0.09700128,-0.14864112000000002,-9.813139200000002,0.001619,-1.4e-05,0.003128,-76.111481,96.557587,-209.296249,60.187689,24.830159,14.416528,8.553895,-1.0,-1.0,100.071716,0.38578,-0.008986,0.015552,0.312117
879751.505374,-0.10733121,-0.13352391,-9.77826465,0.003912,-6.2e-05,0.004439,-75.923111,96.702652,-209.264709,60.187689,24.830159,14.416528,8.553895,-1.0,-1.0,100.071556,0.398994,-0.008985,0.01553,0.312093
879751.52536,-0.08607294000000001,-0.12977649,-9.83274939,0.002988,0.001895,0.004058,-76.168121,96.528397,-209.381607,60.187689,24.830159,14.416528,8.553895,-1.0,-1.0,100.071556,0.398994,-0.008992,0.015526,0.312091
879751.545347,-0.08935929000000001,-0.14100894,-9.79802199,0.004953,-0.001346,0.004922,-76.078476,96.519363,-209.093155,60.187689,24.830159,14.416528,8.553895,-1.0,-1.0,100.071556,0.398994,-0.008983,0.01552,0.312083
879751.565334,-0.09236115,-0.15897105,-9.85130991,0.003084,-0.000936,0.003099,-75.997177,96.61763,-209.198196,60.187689,24.830159,14.416528,8.553895,-1.0,-1.0,100.071556,0.398994,-0.008976,0.015533,0.312095
879751.58532,-0.09145863,-0.16330707,-9.80550702,0.004517,-0.000178,0.003367,-76.045502,96.664474,-209.227539,60.187689,24.830159,14.416528,8.553895,-1.0,-1.0,100.071556,0.398994,-0.008972,0.015537,0.312089
879751.625294,-0.09968922,-0.15538058999999999,-9.82676529,0.003285,-0.000122,0.003864,-76.156891,96.739578,-208.957199,60.187689,24.830159,14.416528,8.553895,-1.0,-1.0,100.071556,0.398994,-0.008991,0.015526,0.312077
879751.645281,-0.09190989000000001,-0.14414814,-9.80461431,0.004649,-0.000842,0.005623,-76.468567,96.493851,-209.055984,60.187689,24.830159,14.416528,8.553895,-1.0,-1.0,100.071556,0.398994,-0.009007,0.015516,0.312084
879751.645281,-0.09190989000000001,-0.14414814,-9.80461431,0.004649,-0.000842,0.005623,-76.468567,96.493851,-209.055984,60.187689,24.830159,14.416528,8.553895,-1.0,-1.0,100.071556,0.398994,-0.009007,0.015516,0.312084
879751.645281,-0.09190989000000001,-0.14414814,-9.80461431,0.004649,-0.000842,0.005623,-76.468567,96.493851,-209.055984,60.187689,24.830159,14.416528,8.553895,-1.0,-1.0,100.071556,0.398994,-0.009007,0.015516,0.312084
879751.705241,-0.09924777,-0.14280417,-9.819584370000001,0.002403,0.000615,0.004144,-76.200226,96.546051,-209.061432,60.187689,24.830159,14.416528,8.553895,-1.0,-1.0,100.071556,0.398994,-0.008991,0.015536,0.312115
879751.725228,-0.08696565,-0.15462522000000004,-9.82107549,0.002403,0.000615,0.004144,-76.318909,96.494324,-209.352417,60.187689,24.830159,14.416528,8.553895,-1.0,-1.0,100.071556,0.398994,-0.00898,0.015531,0.312114
879751.745214,-0.07724394000000001,-0.16061913,-9.80086689,0.002951,-0.001346,0.004952,-76.28598,96.626099,-209.185043,60.187689,24.830159,14.416528,8.553895,-1.0,-1.0,100.071556,0.398994,-0.008981,0.015529,0.312116
879751.765201,-0.11241279000000001,-0.14534496,-9.836948070000002,0.004187,-7e-05,0.004332,-76.07338,96.654358,-209.110367,60.187689,24.830159,14.416528,8.553895,-1.0,-1.0,100.071556,0.398994,-0.008983,0.015512,0.312114
879751.785188,-0.08726976,-0.15687171,-9.81793629,0.004547,-0.000728,0.003528,-76.24559,96.626144,-209.177277,60.187689,24.830159,14.416528,8.553895,-1.0,-1.0,100.071556,0.398994,-0.008991,0.015504,0.312123
879751.805174,-0.10628154000000001,-0.14714019,-9.81898596,0.003939,0.000389,0.003255,-76.174072,96.454742,-209.243225,60.187689,24.830159,14.416528,8.553895,-1.0,-1.0,100.071556,0.398994,-0.008994,0.015514,0.312129
879751.825161,-0.08308089000000002,-0.14729715000000002,-9.8128449,0.003861,0.000621,0.005037,-76.207809,96.414719,-209.148514,60.187689,24.830159,14.416528,8.553895,-1.0,-1.0,100.071556,0.398994,-0.008983,0.015524,0.312132
879751.845148,-0.0896634,-0.14909238,-9.81494424,0.002992,-0.000366,0.003416,-76.264053,96.553513,-209.201523,60.187689,24.830159,14.416528,8.553895,-1.0,-1.0,100.071556,0.398994,-0.008976,0.015516,0.312146
879751.865135,-0.11286405000000001,-0.15747012000000002,-9.83829204,0.003392,-0.00202,0.00232,-76.154831,96.732742,-209.189484,60.187689,24.830159,14.416528,8.553895,-1.0,-1.0,100.071556,0.398994,-0.008972,0.015508,0.312146
879751.885121,-0.08712261,-0.14534496,-9.784405710000001,0.003991,-0.000864,0.003962,-76.402512,96.674484,-208.974106,60.187689,24.830159,14.416528,8.553895,-1.0,-1.0,100.071556,0.398994,-0.008994,0.01549,0.312137
879751.885121,-0.08712261,-0.14534496,-9.784405710000001,0.003991,-0.000864,0.003962,-76.402512,96.674484,-208.974106,60.187689,24.830159,14.416528,8.553895,-1.0,-1.0,100.071556,0.398994,-0.008994,0.01549,0.312137
879751.925095,-0.09789399,-0.14354973000000001,-9.79817895,0.003786,0.001403,0.004008,-76.430725,96.442612,-208.85672,60.187689,24.830159,14.416528,8.553895,-1.0,-1.0,100.071556,0.398994,-0.009002,0.015478,0.312123
879751.945082,-0.10269108,-0.15373251000000002,-9.803564640000001,0.003936,-0.001485,0.005545,-76.227982,96.527145,-208.94783,60.187689,24.830159,14.416528,8.553895,-1.0,-1.0,100.071556,0.398994,-0.008986,0.015488,0.312124
879751.945082,-0.10269108,-0.15373251000000002,-9.803564640000001,0.003936,-0.001485,0.005545,-76.227982,96.527145,-208.94783,60.187689,24.830159,14.416528,8.553895,-1.0,-1.0,100.071556,0.398994,-0.008986,0.015488,0.312124
879751.965068,-0.10882233000000001,-0.15971661,-9.83245509,0.003396,-9.6e-05,0.003984,-76.419678,96.291306,-209.119202,60.187689,24.830159,14.416528,8.553895,-1.0,-1.0,100.071556,0.398994,-0.009005,0.0155,0.312136
879752.005042,-0.09609875999999999,-0.15522363,-9.821821049999999,0.002469,-6.6e-05,0.004512,-76.420746,96.410172,-209.248581,60.187689,24.830159,14.416528,8.553895,-1.0,-1.0,100.071556,0.398994,-0.009001,0.01551,0.312147
879752.025028,-0.08532738,-0.14804271000000002,-9.7986204,0.003198,-0.000113,0.005569,-76.396317,96.5233,-209.450089,60.187689,24.830159,14.416528,8.553895,-1.0,-1.0,100.071556,0.398994,-0.009004,0.015503,0.312139
879752.045015,-0.09520605,-0.14833701000000002,-9.82078119,0.004181,0.000452,0.004304,-76.351334,96.518478,-208.904282,60.187689,24.830159,14.416528,8.553895,-1.0,-1.0,100.071556,0.398994,-0.009012,0.015476,0.312147
879752.065002,-0.09520605,-0.17124336,-9.827814960000001,0.004088,-0.001109,0.004705,-76.390381,96.677795,-208.99115,60.187689,24.830159,14.416528,8.553895,-1.0,-1.0,100.071556,0.398994,-0.009017,0.015472,0.31215
879752.084989,-0.08712261,-0.1505835,-9.80071974,0.004495,0.000291,0.003855,-76.402206,96.544327,-208.823318,60.187689,24.830159,14.416528,8.553895,-1.0,-1.0,100.071556,0.398994,-0.009025,0.015481,0.312166
879752.104975,-0.08996751000000001,-0.14474655,-9.84143124,0.003491,-0.000606,0.005533,-76.355194,96.27121,-209.266418,60.187689,24.830159,14.416528,8.553895,-1.0,-1.0,100.071556,0.398994,-0.009029,0.015516,0.312152
879752.124962,-0.09310671,-0.15387966,-9.80476146,0.002564,0.00135,0.003144,-76.374664,96.375122,-209.254166,60.187689,24.830159,14.416528,8.553895,-1.0,-1.0,100.071556,0.398994,-0.009027,0.015527,0.312158
879752.144949,-0.08471916,-0.15612615,-9.81868185,0.003591,-9.4e-05,0.003473,-76.195129,96.599838,-209.001953,60.187689,24.830159,14.416528,8.553895,-1.0,-1.0,100.071556,0.398994,-0.009021,0.015535,0.312154
879752.164936,-0.09355797,-0.15447807000000002,-9.80940159,0.005007,0.00044,0.004233,-76.299561,96.517105,-209.08223,60.187689,24.830159,14.416528,8.553895,-1.0,-1.0,100.071556,0.398994,-0.009016,0.01554,0.312161
879752.184923,-0.09116433,-0.15552774,-9.808803180000002,0.004251,-1.6e-05,0.004218,-76.359253,96.479645,-208.929306,60.187689,24.830159,14.416528,8.553895,-1.0,-1.0,100.071556,0.398994,-0.009014,0.015556,0.312182
879752.20491,-0.09415638000000001,-0.15837263999999998,-9.83379906,0.003558,-0.000473,0.001607,-76.485718,96.451218,-208.915451,60.187689,24.830159,14.416528,8.553895,-1.0,-1.0,100.071556,0.398994,-0.009012,0.015568,0.312191
879752.224897,-0.08471916,-0.15642045000000002,-9.813139200000002,0.002127,-0.001148,0.003278,-76.473007,96.498871,-209.345993,60.187689,24.830159,14.416528,8.553895,-1.0,-1.0,100.071556,0.398994,-0.009025,0.015569,0.312182
879752.244884,-0.09924777,-0.15043635,-9.81344331,0.001737,-0.000711,0.004589,-76.234741,96.518692,-209.248993,60.187689,24.830159,14.416528,8.553895,-1.0,-1.0,100.071556,0.398994,-0.009024,0.01556,0.312175
879752.244884,-0.09924777,-0.15043635,-9.81344331,0.001737,-0.000711,0.004589,-76.234741,96.518692,-209.248993,60.187689,24.830159,14.416528,8.553895,-1.0,-1.0,100.071556,0.398994,-0.009024,0.01556,0.312175
879752.284857,-0.09116433,-0.15837263999999998,-9.80086689,0.003994,-0.000916,0.004911,-76.475311,96.407761,-209.258545,60.187689,24.830159,14.416528,8.553895,-1.0,-1.0,100.071556,0.398994,-0.009024,0.015554,0.312157
879752.304844,-0.08502327,-0.15552774,-9.84697389,0.004465,-0.000176,0.004787,-76.582275,96.391876,-209.325699,60.187689,24.830159,14.416528,8.553895,-1.0,-1.0,100.071556,0.398994,-0.009042,0.015557,0.312159
879752.32483,-0.09310671,-0.15208443,-9.80909748,0.004416,-0.0009,0.005163,-76.467346,96.453918,-208.977036,60.187689,24.830159,14.416528,8.553895,-1.0,-1.0,100.071556,0.398994,-0.009049,0.015569,0.312163
879752.344817,-0.08996751000000001,-0.15792138000000003,-9.81823059,0.001968,-0.000871,0.003845,-76.288803,96.409592,-209.14595,60.187689,24.830159,14.416528,8.553895,-1.0,-1.0,100.071556,0.398994,-0.009049,0.015579,0.312171
879752.364804,-0.09445068,-0.15792138000000003,-9.82751085,0.003653,0.00024,0.00291,-76.309875,96.437943,-209.118484,60.187689,24.830159,14.416528,8.553895,-1.0,-1.0,100.071556,0.398994,-0.009042,0.015577,0.312156
879752.404777,-0.10073889000000001,-0.15447807000000002,-9.81538569,0.003241,-0.000903,0.005256,-76.450317,96.470016,-209.013855,60.187689,24.830159,14.416528,8.553895,-1.0,-1.0,100.071556,0.398994,-0.009021,0.015576,0.312167
879752.424764,-0.08981055,-0.15223158,-9.80416305,0.002366,0.000894,0.004553,-76.552109,96.24173,-209.082001,60.187689,24.830159,14.416528,8.553895,-1.0,-1.0,100.071556,0.398994,-0.009018,0.015575,0.312173
879752.444751,-0.09744273000000002,-0.15762708,-9.807155100000001,0.003257,-2.4e-05,0.00517,-76.552109,96.24173,-209.082001,60.187689,24.830159,14.416528,8.553895,-1.0,-1.0,100.071556,0.398994,-0.009012,0.015569,0.312181
879752.464738,-0.09040896000000001,-0.15822549000000002,-9.8159841,0.003736,-0.000339,0.004072,-76.370667,96.441818,-208.983734,60.187689,24.830159,14.416528,8.553895,-1.0,-1.0,100.071556,0.398994,-0.009021,0.015571,0.312198
879752.464738,-0.09040896000000001,-0.15822549000000002,-9.8159841,0.003736,-0.000339,0.004072,-76.370667,96.441818,-208.983734,60.187689,24.830159,14.416528,8.553895,-1.0,-1.0,100.071556,0.398994,-0.009021,0.015571,0.312198
879752.504711,-0.09669717,-0.14550192,-9.81793629,0.002837,-0.000735,0.003504,-76.23941,96.525558,-209.092087,60.187689,24.830159,14.416528,8.553895,-1.0,-1.0,100.071556,0.398994,-0.009004,0.015574,0.312213
879752.524698,-0.08562168,-0.14354973000000001,-9.81538569,0.003168,-0.001235,0.005107,-76.429947,96.242599,-208.966721,60.187689,24.830159,14.416528,8.553895,-1.0,-1.0,100.071556,0.398994,-0.009014,0.015571,0.312211
879752.544685,-0.09789399,-0.15762708,-9.822870720000001,0.003482,-4.6e-05,0.003368,-76.496841,96.414017,-208.855865,60.187689,24.830159,14.416528,8.553895,-1.0,-1.0,100.071556,0.398994,-0.009026,0.015562,0.312226
879752.544685,-0.09789399,-0.15762708,-9.822870720000001,0.003482,-4.6e-05,0.003368,-76.496841,96.414017,-208.855865,60.187689,24.830159,14.416528,8.553895,-1.0,-1.0,100.071556,0.398994,-0.009026,0.015562,0.312226
879752.544685,-0.09789399,-0.15762708,-9.822870720000001,0.003482,-4.6e-05,0.003368,-76.496841,96.414017,-208.855865,60.187689,24.830159,14.416528,8.553895,-1.0,-1.0,100.071556,0.398994,-0.009026,0.015562,0.312226
879752.604645,-0.09325386000000001,-0.14878827,-9.81688662,0.003307,0.000403,0.005279,-76.409851,96.402603,-209.032272,60.187689,24.830159,14.416528,8.553895,-1.0,-1.0,100.071419,0.409561,-0.009007,0.015533,0.312214
879752.624632,-0.09684432000000001,-0.14864112000000002,-9.80865603,0.004043,-0.000423,0.003467,-76.394363,96.359024,-208.960648,60.187689,24.830159,14.416528,8.553895,-1.0,-1.0,100.071419,0.409561,-0.008997,0.015533,0.312227
879752.644618,-0.09430353000000001,-0.14864112000000002,-9.81464013,0.004256,0.000948,0.00492,-76.367081,96.449371,-209.074036,60.187689,24.830159,14.416528,8.553895,-1.0,-1.0,100.071419,0.409561,-0.008987,0.015531,0.312233
879752.664605,-0.0836793,-0.15462522000000004,-9.823174830000001,0.002103,-0.001647,0.00285,-76.350525,96.49704,-209.088257,60.187689,24.830159,14.416528,8.553895,-1.0,-1.0,100.071419,0.409561,-0.008992,0.015526,0.312227
879752.684592,-0.10298538000000002,-0.16002072,-9.80655669,0.001413,-0.000622,0.003694,-76.383499,96.434036,-209.098526,60.187689,24.830159,14.416528,8.553895,-1.0,-1.0,100.071419,0.409561,-0.008993,0.015525,0.312214
879752.704578,-0.09325386000000001,-0.14414814,-9.81299205,0.003732,-6.9e-05,0.003622,-76.481537,96.417038,-209.252075,60.187689,24.830159,14.416528,8.553895,-1.0,-1.0,100.071419,0.409561,-0.008992,0.015514,0.312223
879752.724565,-0.09385227000000002,-0.15462522000000004,-9.81418887,0.003362,-0.000245,0.003613,-76.394699,96.404114,-208.991486,60.187689,24.830159,14.416528,8.553895,-1.0,-1.0,100.071419,0.409561,-0.008997,0.015498,0.312227
879752.744552,-0.09355797,-0.14429529,-9.80985285,0.005242,7.8e-05,0.004605,-76.328049,96.427933,-209.066711,60.187689,24.830159,14.416528,8.553895,-1.0,-1.0,100.071419,0.409561,-0.008984,0.015499,0.312218
879752.764539,-0.0896634,-0.15223158,-9.810304109999999,0.005242,7.8e-05,0.004605,-76.350876,96.291519,-209.016205,60.187689,24.830159,14.416528,8.553895,-1.0,-1.0,100.071419,0.409561,-0.008991,0.015505,0.31222
879752.784525,-0.09789399,-0.155979,-9.80909748,0.00231,-0.000524,0.004195,-76.370132,96.473511,-209.412491,60.187689,24.830159,14.416528,8.553895,-1.0,-1.0,100.071419,0.409561,-0.008992,0.015522,0.312226
879752.804512,-0.10927359,-0.14878827,-9.829610190000002,0.004138,-0.000985,0.005878,-76.367371,96.241043,-209.297852,60.187689,24.830159,14.416528,8.553895,-1.0,-1.0,100.071419,0.409561,-0.009006,0.01553,0.312236
879752.824499,-0.09834525,-0.15373251000000002,-9.82542132,0.00438,-0.000477,0.006054,-76.337112,96.189896,-209.360458,60.187689,24.830159,14.416528,8.553895,-1.0,-1.0,100.071419,0.409561,-0.009007,0.015526,0.312251
879752.844486,-0.08487612,-0.15328125,-9.81254079,0.001697,-0.000329,0.004128,-76.349396,96.28688,-209.352982,60.187689,24.830159,14.416528,8.553895,-1.0,-1.0,100.071419,0.409561,-0.009009,0.015532,0.312241
879752.844486,-0.08487612,-0.15328125,-9.81254079,0.001697,-0.000329,0.004128,-76.349396,96.28688,-209.352982,60.187689,24.830159,14.416528,8.553895,-1.0,-1.0,100.071419,0.409561,-0.009009,0.015532,0.312241
879752.864472,-0.09504909,-0.16406244,-9.813590460000002,0.002619,0.000266,0.004265,-76.228912,96.179306,-209.082016,60.187689,24.830159,14.416528,8.553895,-1.0,-1.0,100.071419,0.409561,-0.009004,0.01553,0.312237
879752.904446,-0.10313253,-0.14983794,-9.81059841,0.001384,-0.000211,0.004019,-76.162247,96.458878,-209.771576,60.187689,24.830159,14.416528,8.553895,-1.0,-1.0,100.071419,0.409561,-0.00902,0.015521,0.312231
879752.924433,-0.09550035000000001,-0.15118191,-9.81987867,0.002003,-0.000365,0.003731,-76.322296,96.232666,-209.467911,60.187689,24.830159,14.416528,8.553895,-1.0,-1.0,100.071419,0.409561,-0.009017,0.015505,0.312232
879752.944419,-0.08756406,-0.14519781,-9.807459210000001,0.002625,0.000145,0.003095,-76.234131,96.129074,-209.310776,60.187689,24.830159,14.416528,8.553895,-1.0,-1.0,100.071419,0.409561,-0.009005,0.015498,0.312242
879752.964406,-0.09415638000000001,-0.14684589,-9.82990449,0.002448,0.000281,0.003886,-76.490646,96.143814,-209.349915,60.187689,24.830159,14.416528,8.553895,-1.0,-1.0,100.071419,0.409561,-0.009005,0.015495,0.312239
879752.984393,-0.09460764,-0.14190165000000002,-9.81344331,0.003998,0.000251,0.005289,-76.237503,96.348816,-209.192413,60.187689,24.830159,14.416528,8.553895,-1.0,-1.0,100.071419,0.409561,-0.009014,0.015493,0.312232
879753.00438,-0.09430353000000001,-0.15387966,-9.81059841,0.005437,-0.000537,0.005126,-76.440399,96.356628,-209.096466,60.187689,24.830159,14.416528,8.553895,-1.0,-1.0,100.071419,0.409561,-0.009017,0.015487,0.31223
879753.024366,-0.09984618,-0.13905675,-9.80895033,0.003829,-0.000833,0.004673,-76.283936,96.351074,-209.330704,60.187689,24.830159,14.416528,8.553895,-1.0,-1.0,100.071419,0.409561,-0.009026,0.015493,0.312225
879753.044353,-0.09924777,-0.14909238,-9.80909748,0.00304,-0.002332,0.004842,-76.32695,96.185501,-209.487198,60.187689,24.830159,14.416528,8.553895,-1.0,-1.0,100.071419,0.409561,-0.009026,0.015503,0.312228
879753.06434,-0.08128566000000001,-0.15373251000000002,-9.80281908,0.003486,0.0007,0.005008,-76.518906,96.184189,-209.338562,60.187689,24.830159,14.416528,8.553895,-1.0,-1.0,100.071419,0.409561,-0.009036,0.015501,0.312222
879753.084327,-0.10478061,-0.15433092,-9.818377739999999,0.004543,3.9e-05,0.004537,-76.385529,96.404236,-209.501602,60.187689,24.830159,14.416528,8.553895,-1.0,-1.0,100.071419,0.409561,-0.009019,0.015498,0.312216
879753.104313,-0.0896634,-0.14624748,-9.81718092,0.00301,3.3e-05,0.004982,-76.219345,96.236359,-209.290649,60.187689,24.830159,14.416528,8.553895,-1.0,-1.0,100.071419,0.409561,-0.009013,0.015513,0.312223
879753.1243,-0.10059174,-0.15462522000000004,-9.83245509,0.002352,-0.00043,0.004222,-76.363541,96.525848,-209.25885,60.187689,24.830159,14.416528,8.553895,-1.0,-1.0,100.071419,0.409561,-0.009001,0.015506,0.312223
879753.144287,-0.09236115,-0.16570071,-9.803564640000001,0.002506,-0.002234,0.003453,-76.470825,96.298752,-209.498215,60.187689,24.830159,14.416528,8.553895,-1.0,-1.0,100.071419,0.409561,-0.009009,0.015503,0.312213
879753.144287,-0.09236115,-0.16570071,-9.803564640000001,0.002506,-0.002234,0.003453,-76.470825,96.298752,-209.498215,60.187689,24.830159,14.416528,8.553895,-1.0,-1.0,100.071419,0.409561,-0.009009,0.015503,0.312213
879753.204246,-0.09116433,-0.14699304000000002,-9.82272357,0.001896,-0.000148,0.003356,-76.466965,96.17421,-209.142105,60.187689,24.830159,14.416528,8.553895,-1.0,-1.0,100.071419,0.409561,-0.009013,0.015468,0.312183
879753.224233,-0.10867518,-0.14804271000000002,-9.80760636,0.004234,-0.000533,0.004146,-76.457855,96.34256,-209.096542,60.187689,24.830159,14.416528,8.553895,-1.0,-1.0,100.071419,0.409561,-0.009028,0.015469,0.312178
879753.24422,-0.08636724,-0.14684589,-9.80505576,0.002334,0.001079,0.00397,-76.382401,96.262985,-209.102661,60.187689,24.830159,14.416528,8.553895,-1.0,-1.0,100.071419,0.409561,-0.009027,0.015473,0.312175
879753.264206,-0.10028763,-0.15358536,-9.80954874,0.002334,0.001079,0.00397,-76.360092,96.34845,-208.992203,60.187689,24.830159,14.416528,8.553895,-1.0,-1.0,100.071419,0.409561,-0.009026,0.015464,0.312171
879753.284193,-0.08951625,-0.14759145,-9.82542132,0.001617,-0.000563,0.003935,-76.206192,96.420212,-208.981293,60.187689,24.830159,14.416528,8.553895,-1.0,-1.0,100.071419,0.409561,-0.009027,0.015461,0.312165
879753.30418,-0.09520605,-0.14550192,-9.796373910000002,0.002332,0.001275,0.003959,-76.206039,96.390198,-209.236877,60.187689,24.830159,14.416528,8.553895,-1.0,-1.0,100.071419,0.409561,-0.009026,0.015454,0.312166
879753.324167,-0.09669717,-0.15297714,-9.80954874,0.004442,-0.000228,0.004311,-76.547379,96.267975,-209.129456,60.187689,24.830159,14.416528,8.553895,-1.0,-1.0,100.071419,0.409561,-0.009031,0.015451,0.312151
879753.344153,-0.0925083,-0.14669874000000002,-9.81329616,0.002281,0.000386,0.004317,-76.337402,96.504303,-208.998886,60.187689,24.830159,14.416528,8.553895,-1.0,-1.0,100.071419,0.409561,-0.009023,0.015461,0.312134
879753.36414,-0.11001915,-0.15747012000000002,-9.812246490000001,0.003085,8.5e-05,0.004973,-76.215469,96.619522,-209.00502,60.187689,24.830159,14.416528,8.553895,-1.0,-1.0,100.071419,0.409561,-0.009019,0.015439,0.31213
879753.384127,-0.08816247,-0.15014205,-9.81254079,0.003846,0.000785,0.003951,-76.263672,96.50737,-209.096802,60.187689,24.830159,14.416528,8.553895,-1.0,-1.0,100.071419,0.409561,-0.00902,0.015419,0.312132
879753.404114,-0.09040896000000001,-0.14280417,-9.81329616,0.003741,6.8e-05,0.004106,-76.509094,96.496307,-209.383179,60.187689,24.830159,14.416528,8.553895,-1.0,-1.0,100.071419,0.409561,-0.009013,0.015431,0.312133
879753.4241,-0.08951625,-0.15897105,-9.80805762,0.00299,-0.000311,0.003058,-76.240036,96.520706,-209.09877,60.187689,24.830159,14.416528,8.553895,-1.0,-1.0,100.071419,0.409561,-0.009012,0.015432,0.31213
879753.444087,-0.08188407,-0.14414814,-9.81194238,0.003593,-0.000481,0.003561,-76.332428,96.592239,-209.139343,60.187689,24.830159,14.416528,8.553895,-1.0,-1.0,100.071419,0.409561,-0.009001,0.015418,0.312123
879753.444087,-0.08188407,-0.14414814,-9.81194238,0.003593,-0.000481,0.003561,-76.332428,96.592239,-209.139343,60.187689,24.830159,14.416528,8.553895,-1.0,-1.0,100.071419,0.409561,-0.009001,0.015418,0.312123
879753.464074,-0.09684432000000001,-0.16211025,-9.8242245,0.002978,0.001818,0.005678,-76.22644,96.589096,-209.149948,60.187689,24.830159,14.416528,8.553895,-1.0,-1.0,100.071419,0.409561,-0.009012,0.01541,0.312112
879753.504047,-0.10269108,-0.14864112000000002,-9.816141060000001,0.003207,-0.000172,0.003425,-76.042801,96.725967,-209.082092,60.187689,24.830159,14.416528,8.553895,-1.0,-1.0,100.071419,0.409561,-0.008988,0.015399,0.3121
879753.524034,-0.10104300000000001,-0.15313410000000002,-9.8216739,0.002784,0.000476,0.00493,-76.339157,96.54216,-208.958786,60.187689,24.830159,14.416528,8.553895,-1.0,-1.0,100.071419,0.409561,-0.008978,0.015408,0.312088
879753.544021,-0.09295956000000001,-0.16002072,-9.80416305,0.002684,-0.000606,0.002831,-76.128464,96.65274,-208.971405,60.187689,24.830159,14.416528,8.553895,-1.0,-1.0,100.071419,0.409561,-0.008974,0.015407,0.312067
879753.564008,-0.0928026,-0.14893542,-9.83724237,0.002287,-7.8e-05,0.005606,-76.122253,96.519775,-208.986237,60.187689,24.830159,14.416528,8.553895,-1.0,-1.0,100.071419,0.409561,-0.008976,0.015407,0.312057
879753.583994,-0.10269108,-0.15986376000000002,-9.79457868,0.003464,-0.000352,0.006516,-76.405487,96.599762,-208.73909,60.187689,24.830159,14.416528,8.553895,-1.0,-1.0,100.071419,0.409561,-0.008983,0.015398,0.312053
879753.603981,-0.09145863,-0.15762708,-9.83484873,0.003067,-0.000569,0.004817,-76.264099,96.683975,-209.338013,60.187689,24.830159,14.416528,8.553895,-1.0,-1.0,100.071419,0.409561,-0.008991,0.015399,0.31206
879753.623968,-0.0868185,-0.15103476000000002,-9.80865603,0.003751,0.000348,0.00328,-76.278351,96.280411,-208.824478,60.187689,24.830159,14.416528,8.553895,-1.0,-1.0,100.071419,0.409561,-0.008995,0.0154,0.31206
879753.643955,-0.09475478999999999,-0.15418377,-9.803564640000001,0.003028,-0.000966,0.003994,-76.407318,96.540802,-208.827148,60.187689,24.830159,14.416528,8.553895,-1.0,-1.0,100.071419,0.409561,-0.009,0.01541,0.312063
879753.663941,-0.09864936,-0.14340258,-9.836496810000002,0.00311,0.000565,0.004473,-76.180161,96.702499,-208.842102,60.187689,24.830159,14.416528,8.553895,-1.0,-1.0,100.071419,0.409561,-0.009,0.015412,0.312052
879753.683928,-0.09295956000000001,-0.1591182,-9.78156081,0.002772,-0.000744,0.004102,-76.289429,96.622467,-209.162888,60.187689,24.830159,14.416528,8.553895,-1.0,-1.0,100.071419,0.409561,-0.009,0.015412,0.31205
879753.703915,-0.08772102000000001,-0.14983794,-9.834397469999999,0.00256,-0.000385,0.004579,-76.387634,96.575226,-208.848541,60.187689,24.830159,14.416528,8.553895,-1.0,-1.0,100.071419,0.409561,-0.008999,0.015415,0.31204
879753.723902,-0.08816247,-0.15163317,-9.799375770000001,0.003478,-6.2e-05,0.003963,-76.225952,96.589752,-208.82048,60.187689,24.830159,14.416528,8.553895,-1.0,-1.0,100.071419,0.409561,-0.008998,0.015415,0.312032
879753.743888,-0.08951625,-0.14564907000000002,-9.82856052,0.002274,-0.000671,0.002775,-76.268341,96.645096,-208.80249,60.187689,24.830159,14.416528,8.553895,-1.0,-1.0,100.071419,0.409561,-0.009011,0.015414,0.312027
879753.743888,-0.08951625,-0.14564907000000002,-9.82856052,0.002274,-0.000671,0.002775,-76.268341,96.645096,-208.80249,60.187689,24.830159,14.416528,8.553895,-1.0,-1.0,100.071419,0.409561,-0.009011,0.015414,0.312027
879753.783862,-0.08816247,-0.15297714,-9.793087560000002,0.002712,-0.001658,0.004797,-76.404388,96.44841,-208.685638,60.187689,24.830159,14.416528,8.553895,-1.0,-1.0,100.071419,0.409561,-0.009014,0.015423,0.312001
879753.803849,-0.09954207,-0.16495515000000002,-9.84607137,0.003654,0.001177,0.004337,-76.253021,96.436066,-208.724258,60.187689,24.830159,14.416528,8.553895,-1.0,-1.0,100.071419,0.409561,-0.009006,0.015433,0.311983
879753.823835,-0.09325386000000001,-0.15433092,-9.81373761,0.003988,0.001107,0.004875,-76.12262,96.451157,-208.553879,60.187689,24.830159,14.416528,8.553895,-1.0,-1.0,100.071419,0.409561,-0.009002,0.015435,0.311972
879753.843822,-0.08921214,-0.15163317,-9.8213796,0.003413,0.000308,0.003721,-76.172165,96.277023,-209.007004,60.187689,24.830159,14.416528,8.553895,-1.0,-1.0,100.071419,0.409561,-0.008995,0.015443,0.311974
879753.883796,-0.09700128,-0.14400099,-9.799522920000001,0.003136,0.000372,0.003457,-76.177582,96.5,-208.773407,60.187689,24.830159,14.416528,8.553895,-1.0,-1.0,100.071419,0.409561,-0.009002,0.015475,0.31197
879753.903783,-0.09400923,-0.14445225,-9.830502899999999,0.002117,-0.000244,0.004054,-76.367676,96.456909,-208.702316,60.187689,24.830159,14.416528,8.553895,-1.0,-1.0,100.071419,0.409561,-0.009002,0.015471,0.311971
879753.923769,-0.09595161,-0.16226721000000002,-9.78620094,0.003475,-0.001204,0.003346,-76.347229,96.373795,-209.100525,60.187689,24.830159,14.416528,8.553895,-1.0,-1.0,100.071419,0.409561,-0.009007,0.015468,0.311964
879753.943756,-0.09310671,-0.14115609,-9.82497006,0.001873,0.000257,0.004698,-76.28717,96.557236,-209.198883,60.187689,24.830159,14.416528,8.553895,-1.0,-1.0,100.071419,0.409561,-0.009025,0.015469,0.311962
879753.963743,-0.08532738,-0.13890960000000002,-9.81898596,0.004107,-0.000436,0.004586,-76.078278,96.438187,-208.986206,60.187689,24.830159,14.416528,8.553895,-1.0,-1.0,100.071419,0.409561,-0.009018,0.015473,0.311967
879753.98373,-0.09968922,-0.14445225,-9.811500930000001,0.004363,-1e-05,0.00421,-76.057465,96.68988,-208.950073,60.187689,24.830159,14.416528,8.553895,-1.0,-1.0,100.071419,0.409561,-0.009024,0.015474,0.31196
879754.003716,-0.09580446000000001,-0.14160735,-9.82586277,0.002491,0.000104,0.003862,-76.18721,96.52623,-208.848923,60.187689,24.830159,14.416528,8.553895,-1.0,-1.0,100.071419,0.409561,-0.009033,0.015495,0.311958
879754.023703,-0.0928026,-0.15582204,-9.80206371,0.004486,5.1e-05,0.004046,-75.977661,96.571274,-208.864868,60.187689,24.830159,14.416528,8.553895,-1.0,-1.0,100.071419,0.409561,-0.009051,0.0155,0.311941
879754.023703,-0.0928026,-0.15582204,-9.80206371,0.004486,5.1e-05,0.004046,-75.977661,96.571274,-208.864868,60.187689,24.830159,14.416528,8.553895,-1.0,-1.0,100.071419,0.409561,-0.009051,0.0155,0.311941
879754.04369,-0.09220419,-0.1619631,-9.8068608,0.003603,-0.00093,0.004087,-76.272705,96.507584,-208.686859,60.187689,24.830159,14.416528,8.553895,-1.0,-1.0,100.071419,0.409561,-0.009045,0.015502,0.311942
879754.063677,-0.0896634,-0.155979,-9.82272357,0.004958,-0.000553,0.004523,-76.356979,96.414917,-209.026978,60.187689,24.830159,14.416528,8.553895,-1.0,-1.0,100.071419,0.409561,-0.009059,0.015499,0.31194
879754.083663,-0.08292393,-0.15732297,-9.80505576,0.003995,0.000533,0.003425,-76.285706,96.61763,-209.009537,60.187689,24.830159,14.416528,8.553895,-1.0,-1.0,100.071419,0.409561,-0.009055,0.015518,0.311944
879754.123637,-0.09744273000000002,-0.14534496,-9.807459210000001,0.004124,7.6e-05,0.005406,-75.968826,96.716995,-208.661469,60.187689,24.830159,14.416528,8.553895,-1.0,-1.0,100.071419,0.409561,-0.009051,0.015524,0.311941
879754.143624,-0.09370512,-0.15701886,-9.835594290000001,0.002799,0.000806,0.004348,-76.043274,96.707809,-208.664154,60.187689,24.830159,14.416528,8.553895,-1.0,-1.0,100.071419,0.409561,-0.009046,0.01552,0.311935
879754.16361,-0.09939492000000001,-0.15507648,-9.80595828,0.003352,0.000214,0.003432,-76.130875,96.610031,-208.511841,60.187689,24.830159,14.416528,8.553895,-1.0,-1.0,100.071419,0.409561,-0.009044,0.015522,0.311948
879754.183597,-0.10269108,-0.14969079000000002,-9.81329616,0.003312,-0.001503,0.005305,-76.164246,96.611313,-208.681244,60.187689,24.830159,14.416528,8.553895,-1.0,-1.0,100.071419,0.409561,-0.009034,0.015511,0.311958
879754.203584,-0.08622009,-0.14864112000000002,-9.83454462,0.004337,-0.000559,0.003925,-76.3918,96.523132,-208.763626,60.187689,24.830159,14.416528,8.553895,-1.0,-1.0,100.071419,0.409561,-0.009028,0.015515,0.311958
879754.223571,-0.0868185,-0.15942231,-9.79742358,0.004501,-0.000835,0.004456,-76.277359,96.630081,-208.712357,60.187689,24.830159,14.416528,8.553895,-1.0,-1.0,100.071419,0.409561,-0.009024,0.015504,0.311948
879754.243558,-0.10583028000000001,-0.15268284000000001,-9.82586277,0.002851,-0.001322,0.005912,-76.249817,96.618088,-208.865906,60.187689,24.830159,14.416528,8.553895,-1.0,-1.0,100.071419,0.409561,-0.009021,0.015506,0.311939
879754.263544,-0.08232552,-0.15567489,-9.808499070000002,0.002848,0.001011,0.003103,-76.311005,96.685043,-208.830643,60.187689,24.830159,14.416528,8.553895,-1.0,-1.0,100.071419,0.409561,-0.009042,0.015503,0.311933
879754.283531,-0.08203122,-0.13876245,-9.81763218,0.0037,-0.00049,0.002354,-76.276749,96.627472,-208.749527,60.187689,24.830159,14.416528,8.553895,-1.0,-1.0,100.071419,0.409561,-0.009047,0.015509,0.31192
879754.303518,-0.09999333,-0.15942231,-9.8216739,0.003941,-0.001329,0.003179,-76.227737,96.753357,-209.104965,60.187689,24.830159,14.416528,8.553895,-1.0,-1.0,100.071419,0.409561,-0.009054,0.015509,0.311905
879754.323505,-0.10253412,-0.1562733,-9.817033770000002,0.002937,-0.000727,0.002585,-76.336655,96.750351,-208.723724,60.187689,24.830159,14.416528,8.553895,-1.0,-1.0,100.071419,0.409561,-0.009052,0.015503,0.31189
879754.343491,-0.09550035000000001,-0.14878827,-9.81074556,0.002933,-0.000188,0.004192,-76.133636,96.562057,-208.819962,60.187689,24.830159,14.416528,8.553895,-1.0,-1.0,100.071419,0.409561,-0.009061,0.015505,0.311889
879754.343491,-0.09550035000000001,-0.14878827,-9.81074556,0.002933,-0.000188,0.004192,-76.133636,96.562057,-208.819962,60.187689,24.830159,14.416528,8.553895,-1.0,-1.0,100.071419,0.409561,-0.009061,0.015505,0.311889
879754.363478,-0.09040896000000001,-0.15447807000000002,-9.815238540000001,0.00288,0.000487,0.004163,-76.012878,96.744003,-208.946884,60.187689,24.830159,14.416528,8.553895,-1.0,-1.0,100.071419,0.409561,-0.009063,0.015502,0.3119
879754.403452,-0.09864936,-0.14639463000000003,-9.80925444,0.003926,0.000573,0.003655,-76.03447,96.686615,-208.880066,60.187689,24.830159,14.416528,8.553895,-1.0,-1.0,100.071419,0.409561,-0.009044,0.015491,0.311886
879754.443425,-0.09385227000000002,-0.15462522000000004,-9.80969589,0.002579,-0.00043,0.003667,-76.162552,96.633804,-208.81781,60.187689,24.830159,14.416528,8.553895,-1.0,-1.0,100.071419,0.409561,-0.00903,0.015482,0.311879
879754.443425,-0.09385227000000002,-0.15462522000000004,-9.80969589,0.002579,-0.00043,0.003667,-76.162552,96.633804,-208.81781,60.187689,24.830159,14.416528,8.553895,-1.0,-1.0,100.071419,0.409561,-0.00903,0.015482,0.311879
879754.483399,-0.09909081000000002,-0.14684589,-9.824371650000002,0.002743,0.00048,0.004912,-76.048126,96.728973,-208.777985,60.187689,24.830159,14.416528,8.553895,-1.0,-1.0,100.071419,0.409561,-0.009058,0.015469,0.311874
879754.503385,-0.08622009,-0.15373251000000002,-9.80222067,0.002406,-0.000993,0.003043,-76.148148,96.499649,-208.918976,60.187689,24.830159,14.416528,8.553895,-1.0,-1.0,100.071419,0.409561,-0.009061,0.015474,0.311875
879754.523372,-0.09040896000000001,-0.15478218000000002,-9.8213796,0.001864,0.000149,0.00262,-76.262161,96.398834,-208.872162,60.187689,24.830159,14.416528,8.553895,-1.0,-1.0,100.071419,0.409561,-0.009079,0.01547,0.311854
879754.543359,-0.09655002,-0.15043635,-9.83140542,0.00331,-0.001166,0.003363,-76.153641,96.556366,-208.514725,60.187689,24.830159,14.416528,8.553895,-1.0,-1.0,100.071419,0.409561,-0.009088,0.015472,0.311843
879754.563346,-0.08801532000000001,-0.14280417,-9.82332198,0.003884,-6.6e-05,0.004786,-76.317093,96.707947,-208.810562,60.187689,24.830159,14.416528,8.553895,-1.0,-1.0,100.071419,0.409561,-0.009092,0.015481,0.311841
879754.583332,-0.09385227000000002,-0.15418377,-9.80505576,0.003106,0.000192,0.00435,-76.331696,96.758698,-208.696899,60.187689,24.830159,14.416528,8.553895,-1.0,-1.0,100.071419,0.409561,-0.009096,0.01549,0.311832
879754.603319,-0.09564750000000001,-0.15492933000000003,-9.8216739,0.002883,0.000843,0.004724,-76.244827,96.618561,-208.799393,60.187689,24.830159,14.416528,8.553895,-1.0,-1.0,100.071419,0.409561,-0.009098,0.015488,0.311826
879754.623306,-0.0981981,-0.15582204,-9.80535987,0.003193,-9.2e-05,0.004315,-76.244827,96.618561,-208.799393,60.187689,24.830159,14.416528,8.553895,-1.0,-1.0,100.071419,0.409561,-0.009104,0.015491,0.311824
879754.643293,-0.08592579,-0.14445225,-9.799522920000001,0.003937,-0.00136,0.003314,-76.249329,96.728363,-208.646469,60.187689,24.830159,14.416528,8.553895,-1.0,-1.0,100.071419,0.409561,-0.009106,0.015497,0.311831
879754.643293,-0.08592579,-0.14445225,-9.799522920000001,0.003937,-0.00136,0.003314,-76.249329,96.728363,-208.646469,60.187689,24.830159,14.416528,8.553895,-1.0,-1.0,100.071419,0.409561,-0.009106,0.015497,0.311831
879754.643293,-0.08592579,-0.14445225,-9.799522920000001,0.003937,-0.00136,0.003314,-76.249329,96.728363,-208.646469,60.187689,24.830159,14.416528,8.553895,-1.0,-1.0,100.071419,0.409561,-0.009106,0.015497,0.311831
879754.703253,-0.0925083,-0.15447807000000002,-9.82556847,0.002496,-0.000781,0.004349,-76.205475,96.979507,-208.511093,60.187689,24.830159,14.416528,8.553895,-1.0,-1.0,100.071419,0.409561,-0.009114,0.015513,0.311808
879754.72324,-0.09205704,-0.14789556,-9.813139200000002,0.002344,0.000368,0.004425,-76.347382,96.812714,-208.480057,60.187689,24.830159,14.416528,8.553895,-1.0,-1.0,100.071419,0.409561,-0.009119,0.015508,0.311807
879754.743227,-0.0981981,-0.16226721000000002,-9.80805762,0.004308,0.001313,0.004251,-76.149673,96.986267,-208.511459,60.187689,24.830159,14.416528,8.553895,-1.0,-1.0,100.071648,0.391068,-0.009122,0.015507,0.31181
879754.763213,-0.09580446000000001,-0.14205861,-9.81254079,0.003001,0.000875,0.004182,-76.365234,96.827499,-208.743546,60.187689,24.830159,14.416528,8.553895,-1.0,-1.0,100.071648,0.391068,-0.009123,0.015499,0.311814
879754.7832,-0.09759969,-0.14833701000000002,-9.8213796,0.00281,-0.001302,0.003299,-76.264847,97.048325,-208.314255,60.187689,24.830159,14.416528,8.553895,-1.0,-1.0,100.071648,0.391068,-0.009126,0.0155,0.311802
879754.803187,-0.09430353000000001,-0.16435674000000003,-9.81254079,0.002407,2.8e-05,0.004513,-76.385788,97.056396,-208.336639,60.187689,24.830159,14.416528,8.553895,-1.0,-1.0,100.071648,0.391068,-0.009144,0.015498,0.311806
879754.823174,-0.08576883000000002,-0.15866694,-9.822870720000001,0.004196,-0.000973,0.003268,-76.449387,96.962326,-208.682861,60.187689,24.830159,14.416528,8.553895,-1.0,-1.0,100.071648,0.391068,-0.00915,0.01549,0.311799
879754.84316,-0.08576883000000002,-0.16570071,-9.81164808,0.003696,-0.000786,0.002935,-76.437668,96.980072,-208.757278,60.187689,24.830159,14.416528,8.553895,-1.0,-1.0,100.071648,0.391068,-0.009157,0.015489,0.311786
879754.863147,-0.09849240000000001,-0.14265702,-9.82107549,0.002761,0.001111,0.004673,-76.560333,96.920792,-208.624786,60.187689,24.830159,14.416528,8.553895,-1.0,-1.0,100.071648,0.391068,-0.009165,0.015498,0.311779
879754.883134,-0.09056592000000001,-0.14385384,-9.79847325,0.004486,0.001576,0.005109,-76.472916,97.033707,-208.463058,60.187689,24.830159,14.416528,8.553895,-1.0,-1.0,100.071648,0.391068,-0.009166,0.0155,0.311786
879754.903121,-0.09445068,-0.14818986,-9.820928340000002,0.002921,-0.000807,0.005142,-76.442947,97.094772,-208.594376,60.187689,24.830159,14.416528,8.553895,-1.0,-1.0,100.071648,0.391068,-0.009173,0.015508,0.311784
879754.923107,-0.09415638000000001,-0.14190165000000002,-9.81269775,0.003115,-0.000994,0.003132,-76.457581,96.872818,-208.353226,60.187689,24.830159,14.416528,8.553895,-1.0,-1.0,100.071648,0.391068,-0.009171,0.015508,0.311785
879754.943094,-0.07768539,-0.1502892,-9.80640954,0.004504,-0.000997,0.005719,-76.58844,97.037857,-208.684479,60.187689,24.830159,14.416528,8.553895,-1.0,-1.0,100.071648,0.391068,-0.009183,0.015509,0.311792
879754.943094,-0.07768539,-0.1502892,-9.80640954,0.004504,-0.000997,0.005719,-76.58844,97.037857,-208.684479,60.187689,24.830159,14.416528,8.553895,-1.0,-1.0,100.071648,0.391068,-0.009183,0.015509,0.311792
879754.983068,-0.09849240000000001,-0.14804271000000002,-9.79233219,0.002382,0.00074,0.003954,-76.568893,97.057526,-208.495392,60.187689,24.830159,14.416528,8.553895,-1.0,-1.0,100.071648,0.391068,-0.009184,0.015518,0.3118
879755.023041,-0.08277678,-0.15223158,-9.81583695,0.002843,-0.00085,0.004579,-76.459229,97.064545,-208.510406,60.187689,24.830159,14.416528,8.553895,-1.0,-1.0,100.071648,0.391068,-0.009186,0.015528,0.311783
879755.043028,-0.08951625,-0.15552774,-9.80655669,0.003518,-0.00101,0.003627,-76.543686,97.123856,-208.606934,60.187689,24.830159,14.416528,8.553895,-1.0,-1.0,100.071648,0.391068,-0.009189,0.015513,0.311785
879755.063015,-0.09580446000000001,-0.15178032,-9.834995880000001,0.001621,0.001113,0.004609,-76.435242,97.116806,-208.699692,60.187689,24.830159,14.416528,8.553895,-1.0,-1.0,100.071648,0.391068,-0.009198,0.015508,0.311773
879755.083002,-0.08622009,-0.1591182,-9.79772769,0.00557,-0.000514,0.005302,-76.327637,97.026062,-208.666977,60.187689,24.830159,14.416528,8.553895,-1.0,-1.0,100.071648,0.391068,-0.009198,0.015487,0.311777
879755.102988,-0.09954207,-0.15373251000000002,-9.83140542,0.002734,-0.000907,0.003815,-76.542786,97.048355,-208.772766,60.187689,24.830159,14.416528,8.553895,-1.0,-1.0,100.071648,0.391068,-0.009192,0.015502,0.311771
879755.122975,-0.09355797,-0.16046217000000002,-9.82631403,0.003422,0.000844,0.005039,-76.662506,97.069733,-208.816772,60.187689,24.830159,14.416528,8.553895,-1.0,-1.0,100.071648,0.391068,-0.009192,0.015507,0.31176
879755.142962,-0.09220419,-0.14983794,-9.814787280000001,0.004267,0.001486,0.004087,-76.423676,96.932861,-208.936981,60.187689,24.830159,14.416528,8.553895,-1.0,-1.0,100.071648,0.391068,-0.009182,0.015498,0.31176
879755.162949,-0.0896634,-0.15478218000000002,-9.8242245,0.003789,0.001289,0.002874,-76.488953,97.022293,-208.984848,60.187689,24.830159,14.416528,8.553895,-1.0,-1.0,100.071648,0.391068,-0.00918,0.015495,0.311767
879755.162949,-0.0896634,-0.15478218000000002,-9.8242245,0.003789,0.001289,0.002874,-76.488953,97.022293,-208.984848,60.187689,24.830159,14.416528,8.553895,-1.0,-1.0,100.071648,0.391068,-0.00918,0.015495,0.311767
879755.202923,-0.09056592000000001,-0.15642045000000002,-9.825715620000002,0.003223,-0.000435,0.003331,-76.449677,96.719482,-208.96402,60.187689,24.830159,14.416528,8.553895,-1.0,-1.0,100.071648,0.391068,-0.009189,0.01549,0.311748
879755.22291,-0.09176274,-0.14699304000000002,-9.81119682,0.004151,-7.1e-05,0.004727,-76.415375,96.848114,-208.942413,60.187689,24.830159,14.416528,8.553895,-1.0,-1.0,100.071648,0.391068,-0.009199,0.015491,0.311727
879755.242897,-0.09490194,-0.15328125,-9.82676529,0.00277,7.8e-05,0.003634,-76.731644,96.753647,-208.872452,60.187689,24.830159,14.416528,8.553895,-1.0,-1.0,100.071648,0.391068,-0.009199,0.015498,0.311723
879755.242897,-0.09490194,-0.15328125,-9.82676529,0.00277,7.8e-05,0.003634,-76.731644,96.753647,-208.872452,60.187689,24.830159,14.416528,8.553895,-1.0,-1.0,100.071648,0.391068,-0.009199,0.015498,0.311723
879755.262884,-0.10492776000000001,-0.16121754000000002,-9.81389457,0.004109,-0.000859,0.002688,-76.564056,96.99263,-209.004959,60.187689,24.830159,14.416528,8.553895,-1.0,-1.0,100.071648,0.391068,-0.009196,0.015503,0.311722
879755.28287,-0.09894366,-0.15672456,-9.799071660000001,0.003009,0.000967,0.00373,-76.811554,96.609024,-209.101456,60.187689,24.830159,14.416528,8.553895,-1.0,-1.0,100.071648,0.391068,-0.009206,0.015505,0.311712
879755.302857,-0.09714843000000001,-0.14369688,-9.832307940000002,0.004051,0.000561,0.005974,-76.42128,96.63353,-209.186737,60.187689,24.830159,14.416528,8.553895,-1.0,-1.0,100.071648,0.391068,-0.009212,0.015511,0.3117
879755.342831,-0.09011466,-0.15387966,-9.82646118,0.002518,-0.000753,0.003246,-76.450333,96.909119,-208.766464,60.187689,24.830159,14.416528,8.553895,-1.0,-1.0,100.071648,0.391068,-0.009216,0.015508,0.311702
879755.362817,-0.1013373,-0.13981212,-9.7954812,0.001402,3.8e-05,0.005137,-76.442017,96.912109,-208.757141,60.187689,24.830159,14.416528,8.553895,-1.0,-1.0,100.071648,0.391068,-0.009224,0.015497,0.311694
879755.402791,-0.08876088000000001,-0.14340258,-9.82241946,0.002282,1.6e-05,0.002066,-76.576752,96.742264,-208.848343,60.187689,24.830159,14.416528,8.553895,-1.0,-1.0,100.071648,0.391068,-0.009208,0.015481,0.311672
879755.442764,-0.08846658,-0.15342840000000002,-9.811049670000001,0.003827,-0.00055,0.00257,-76.443817,96.898636,-209.01413,60.187689,24.830159,14.416528,8.553895,-1.0,-1.0,100.071648,0.391068,-0.009213,0.015475,0.311644
879755.462751,-0.09849240000000001,-0.16390548000000002,-9.82257642,0.003325,0.000224,0.004596,-76.601898,96.892319,-208.979004,60.187689,24.830159,14.416528,8.553895,-1.0,-1.0,100.071648,0.391068,-0.009236,0.015474,0.311656
879755.482738,-0.08457201,-0.16346403,-9.82556847,0.003541,0.000583,0.00305,-76.493805,96.815552,-208.651184,60.187689,24.830159,14.416528,8.553895,-1.0,-1.0,100.071648,0.391068,-0.009231,0.015477,0.311669
879755.482738,-0.08457201,-0.16346403,-9.82556847,0.003541,0.000583,0.00305,-76.493805,96.815552,-208.651184,60.187689,24.830159,14.416528,8.553895,-1.0,-1.0,100.071648,0.391068,-0.009231,0.015477,0.311669
879755.522711,-0.09145863,-0.15552774,-9.81090252,0.004426,0.000989,0.004011,-76.516754,97.054199,-208.74205,60.187689,24.830159,14.416528,8.553895,-1.0,-1.0,100.071648,0.391068,-0.009244,0.01548,0.311662
879755.542698,-0.09894366,-0.14954364,-9.81898596,0.003459,-0.000541,0.003597,-76.487839,96.986542,-208.429153,60.187689,24.830159,14.416528,8.553895,-1.0,-1.0,100.071648,0.391068,-0.009241,0.015484,0.311648
879755.542698,-0.09894366,-0.14954364,-9.81898596,0.003459,-0.000541,0.003597,-76.487839,96.986542,-208.429153,60.187689,24.830159,14.416528,8.553895,-1.0,-1.0,100.071648,0.391068,-0.009241,0.015484,0.311648
879755.582672,-0.09205704,-0.15687171,-9.82152675,0.002414,-0.000438,0.00423,-76.74118,96.865219,-209.143784,60.187689,24.830159,14.416528,8.553895,-1.0,-1.0,100.071648,0.391068,-0.009256,0.015513,0.311631
879755.602659,-0.08262963000000001,-0.15163317,-9.8245188,0.002654,0.000474,0.005391,-76.719543,96.83078,-208.747681,60.187689,24.830159,14.416528,8.553895,-1.0,-1.0,100.071648,0.391068,-0.009259,0.015502,0.311631
879755.622645,-0.09445068,-0.14474655,-9.821821049999999,0.002335,0.000472,0.004812,-76.544189,97.065231,-208.798431,60.187689,24.830159,14.416528,8.553895,-1.0,-1.0,100.071648,0.391068,-0.009258,0.015508,0.311633
879755.642632,-0.08352234000000001,-0.14414814,-9.808351920000002,0.002597,0.002357,0.004176,-76.53894,97.047989,-209.04541,60.187689,24.830159,14.416528,8.553895,-1.0,-1.0,100.071648,0.391068,-0.009254,0.015496,0.311631
879755.662619,-0.08292393,-0.15507648,-9.800121330000001,0.003446,-0.00148,0.005361,-76.674713,97.106216,-208.874207,60.187689,24.830159,14.416528,8.553895,-1.0,-1.0,100.071648,0.391068,-0.009248,0.015478,0.311622
879755.682606,-0.09669717,-0.1651023,-9.803417490000001,0.002694,-0.000401,0.005084,-76.725098,97.06601,-209.328751,60.187689,24.830159,14.416528,8.553895,-1.0,-1.0,100.071648,0.391068,-0.009249,0.015467,0.311632
879755.702592,-0.08636724,-0.14849397,-9.822870720000001,0.002804,-0.000179,0.003778,-76.673523,96.903137,-208.954041,60.187689,24.830159,14.416528,8.553895,-1.0,-1.0,100.071648,0.391068,-0.009224,0.015448,0.311638
879755.722579,-0.09086022,-0.15148602000000003,-9.80236782,0.002182,-0.000137,0.004844,-76.713043,96.930206,-209.144821,60.187689,24.830159,14.416528,8.553895,-1.0,-1.0,100.071648,0.391068,-0.009216,0.015455,0.311631
879755.742566,-0.0925083,-0.13981212,-9.80820477,0.002271,-0.001868,0.002921,-76.681122,96.866211,-208.9263,60.187689,24.830159,14.416528,8.553895,-1.0,-1.0,100.071648,0.391068,-0.009205,0.015441,0.311631
879755.762553,-0.09340101,-0.15103476000000002,-9.82062423,0.004181,-0.002226,0.003982,-76.555557,97.06015,-208.765015,60.187689,24.830159,14.416528,8.553895,-1.0,-1.0,100.071648,0.391068,-0.009211,0.01545,0.31163
879755.782539,-0.09624591,-0.15133887000000001,-9.79817895,0.003356,-0.001028,0.00271,-76.748627,96.942963,-208.905029,60.187689,24.830159,14.416528,8.553895,-1.0,-1.0,100.071648,0.391068,-0.009217,0.015459,0.311626
879755.802526,-0.10972485000000001,-0.15538058999999999,-9.826912440000001,0.001292,-0.001975,0.005161,-76.590561,96.950668,-209.178452,60.187689,24.830159,14.416528,8.553895,-1.0,-1.0,100.071648,0.391068,-0.009219,0.015447,0.311631
879755.8425,-0.10164141000000002,-0.14864112000000002,-9.7929306,0.002182,-0.000982,0.005266,-76.60997,96.98877,-209.119858,60.187689,24.830159,14.416528,8.553895,-1.0,-1.0,100.071899,0.369926,-0.009219,0.01543,0.31162
879755.8425,-0.10164141000000002,-0.14864112000000002,-9.7929306,0.002182,-0.000982,0.005266,-76.60997,96.98877,-209.119858,60.187689,24.830159,14.416528,8.553895,-1.0,-1.0,100.071899,0.369926,-0.009219,0.01543,0.31162
879755.8425,-0.10164141000000002,-0.14864112000000002,-9.7929306,0.002182,-0.000982,0.005266,-76.60997,96.98877,-209.119858,60.187689,24.830159,14.416528,8.553895,-1.0,-1.0,100.071899,0.369926,-0.009219,0.01543,0.31162
879755.882473,-0.09640287000000002,-0.15268284000000001,-9.7926363,0.005518,-0.000908,0.002922,-76.676346,96.850342,-208.963486,60.187689,24.830159,14.416528,8.553895,-1.0,-1.0,100.071899,0.369926,-0.009226,0.015413,0.311598
879755.922447,-0.10852803000000001,-0.14789556,-9.80416305,0.004082,0.000669,0.002757,-76.670715,97.066986,-208.912796,60.187689,24.830159,14.416528,8.553895,-1.0,-1.0,100.071899,0.369926,-0.009217,0.015392,0.311578
879755.942434,-0.10223982000000001,-0.15223158,-9.808499070000002,0.005281,0.000256,0.0047,-76.758942,96.962814,-208.948395,60.187689,24.830159,14.416528,8.553895,-1.0,-1.0,100.071899,0.369926,-0.009207,0.015386,0.311564
879755.96242,-0.10283823,-0.16375833,-9.83200383,0.003213,-0.000871,0.005038,-76.517029,96.991928,-209.052521,60.187689,24.830159,14.416528,8.553895,-1.0,-1.0,100.071899,0.369926,-0.009197,0.015404,0.31157
879755.982407,-0.09190989000000001,-0.14714019,-9.79697232,0.00458,0.00061,0.004995,-76.559784,96.902084,-208.853043,60.187689,24.830159,14.416528,8.553895,-1.0,-1.0,100.071899,0.369926,-0.009196,0.015403,0.311577
879756.002394,-0.09325386000000001,-0.13950801,-9.82901178,0.002412,-0.001631,0.003875,-76.353409,96.837158,-208.978058,60.187689,24.830159,14.416528,8.553895,-1.0,-1.0,100.071899,0.369926,-0.009191,0.015392,0.311583
879756.022381,-0.10073889000000001,-0.15402681000000001,-9.811343970000001,0.003489,-0.001522,0.004475,-76.404572,96.825806,-209.021088,60.187689,24.830159,14.416528,8.553895,-1.0,-1.0,100.071899,0.369926,-0.009202,0.015379,0.311586
879756.042368,-0.09265545000000001,-0.15552774,-9.80820477,0.004054,0.000768,0.004269,-76.511047,96.981705,-209.029739,60.187689,24.830159,14.416528,8.553895,-1.0,-1.0,100.071899,0.369926,-0.009212,0.015386,0.311589
879756.062354,-0.09340101,-0.16286562,-9.823626090000001,0.003791,-0.000197,0.005543,-76.511047,96.981705,-209.029739,60.187689,24.830159,14.416528,8.553895,-1.0,-1.0,100.071899,0.369926,-0.009208,0.015385,0.31159
879756.082341,-0.09609875999999999,-0.14818986,-9.799522920000001,0.003824,-0.000384,0.00405,-76.435898,96.983398,-208.789627,60.187689,24.830159,14.416528,8.553895,-1.0,-1.0,100.071899,0.369926,-0.009206,0.015381,0.311596
879756.102328,-0.09805095000000001,-0.13981212,-9.83634966,0.002453,0.001634,0.004922,-76.565903,96.928925,-208.782608,60.187689,24.830159,14.416528,8.553895,-1.0,-1.0,100.071899,0.369926,-0.009204,0.015389,0.311592
879756.122315,-0.09564750000000001,-0.15507648,-9.80670384,0.003094,-0.001182,0.002945,-76.343567,96.848328,-209.382629,60.187689,24.830159,14.416528,8.553895,-1.0,-1.0,100.071899,0.369926,-0.00919,0.015389,0.311592
879756.142301,-0.08891784,-0.14789556,-9.80505576,0.00314,0.000559,0.004235,-76.398193,96.855515,-209.18071,60.187689,24.830159,14.416528,8.553895,-1.0,-1.0,100.071899,0.369926,-0.009188,0.015389,0.311581
879756.142301,-0.08891784,-0.14789556,-9.80505576,0.00314,0.000559,0.004235,-76.398193,96.855515,-209.18071,60.187689,24.830159,14.416528,8.553895,-1.0,-1.0,100.071899,0.369926,-0.009188,0.015389,0.311581
879756.162288,-0.09700128,-0.14923953,-9.822272309999999,0.004319,-0.000317,0.005741,-76.533279,97.040695,-208.996765,60.187689,24.830159,14.416528,8.553895,-1.0,-1.0,100.071899,0.369926,-0.009178,0.015393,0.311577
879756.202261,-0.09295956000000001,-0.15163317,-9.836045550000001,0.003504,-0.000285,0.004312,-76.536652,96.981384,-209.192596,60.187689,24.830159,14.416528,8.553895,-1.0,-1.0,100.071899,0.369926,-0.009173,0.015395,0.311591
879756.222247,-0.09744273000000002,-0.15672456,-9.80131815,0.005287,-0.000296,0.00527,-76.383682,96.976517,-209.215912,60.187689,24.830159,14.416528,8.553895,-1.0,-1.0,100.071899,0.369926,-0.009164,0.015386,0.311597
879756.242234,-0.09415638000000001,-0.14923953,-9.82886463,0.003156,-0.001107,0.005086,-76.599304,96.925018,-209.107315,60.187689,24.830159,14.416528,8.553895,-1.0,-1.0,100.071899,0.369926,-0.009168,0.015397,0.31161
879756.282208,-0.07993188000000001,-0.1505835,-9.82257642,0.003992,0.000266,0.004145,-76.533417,97.140533,-208.645813,60.187689,24.830159,14.416528,8.553895,-1.0,-1.0,100.071899,0.369926,-0.009174,0.015366,0.311632
879756.302195,-0.09100737,-0.14893542,-9.82766781,0.003363,-0.000607,0.004657,-76.452026,97.098572,-208.933777,60.187689,24.830159,14.416528,8.553895,-1.0,-1.0,100.071899,0.369926,-0.009174,0.01536,0.311628
879756.322181,-0.08756406,-0.15567489,-9.79069392,0.004578,0.001016,0.00363,-76.584412,96.86055,-208.984344,60.187689,24.830159,14.416528,8.553895,-1.0,-1.0,100.071899,0.369926,-0.009177,0.015359,0.31162
879756.342168,-0.10358379000000001,-0.14550192,-9.83320065,0.003592,0.001028,0.004526,-76.422287,97.060196,-209.038132,60.187689,24.830159,14.416528,8.553895,-1.0,-1.0,100.071899,0.369926,-0.009184,0.015353,0.311615
879756.362155,-0.08696565,-0.14265702,-9.80206371,0.004358,0.000247,0.00407,-76.432617,97.034897,-208.861313,60.187689,24.830159,14.416528,8.553895,-1.0,-1.0,100.071899,0.369926,-0.009186,0.015346,0.311619
879756.382142,-0.09564750000000001,-0.1474443,-9.81583695,0.002542,0.00111,0.005485,-76.578674,97.001144,-208.978622,60.187689,24.830159,14.416528,8.553895,-1.0,-1.0,100.071899,0.369926,-0.009183,0.015331,0.311608
879756.402128,-0.09968922,-0.16585766999999998,-9.80595828,0.003941,-0.001442,0.003814,-76.492081,97.030609,-209.143814,60.187689,24.830159,14.416528,8.553895,-1.0,-1.0,100.071899,0.369926,-0.009178,0.015327,0.311598
879756.422115,-0.08906499000000001,-0.14429529,-9.814787280000001,0.003998,0.000337,0.005739,-76.537933,96.872375,-208.92543,60.187689,24.830159,14.416528,8.553895,-1.0,-1.0,100.071899,0.369926,-0.009168,0.01532,0.311595
879756.442102,-0.08517042000000001,-0.15074046,-9.81254079,0.003021,0.000202,0.005083,-76.755173,97.04657,-208.959579,60.187689,24.830159,14.416528,8.553895,-1.0,-1.0,100.071899,0.369926,-0.009161,0.015324,0.311604
879756.442102,-0.08517042000000001,-0.15074046,-9.81254079,0.003021,0.000202,0.005083,-76.755173,97.04657,-208.959579,60.187689,24.830159,14.416528,8.553895,-1.0,-1.0,100.071899,0.369926,-0.009161,0.015324,0.311604
879756.442102,-0.08517042000000001,-0.15074046,-9.81254079,0.003021,0.000202,0.005083,-76.755173,97.04657,-208.959579,60.187689,24.830159,14.416528,8.553895,-1.0,-1.0,100.071899,0.369926,-0.009161,0.015324,0.311604
879756.482076,-0.10073889000000001,-0.15358536,-9.82212516,0.00363,0.00017,0.005753,-76.40506,96.928299,-208.877731,60.187689,24.830159,14.416528,8.553895,-1.0,-1.0,100.071899,0.369926,-0.009156,0.015314,0.31159
879756.522049,-0.09190989000000001,-0.14190165000000002,-9.82332198,0.002932,0.000263,0.004319,-76.202698,96.985306,-208.673752,60.187689,24.830159,14.416528,8.553895,-1.0,-1.0,100.071899,0.369926,-0.009175,0.015314,0.31159
879756.542036,-0.10104300000000001,-0.14983794,-9.82078119,0.004376,-0.00084,0.0038,-76.279892,96.85466,-208.773849,60.187689,24.830159,14.416528,8.553895,-1.0,-1.0,100.071899,0.369926,-0.009162,0.01532,0.31159
879756.562023,-0.10014048,-0.14833701000000002,-9.815238540000001,0.003224,-0.001677,0.0042,-76.421829,96.865189,-208.77562,60.187689,24.830159,14.416528,8.553895,-1.0,-1.0,100.071899,0.369926,-0.009161,0.015319,0.311589
879756.582009,-0.09056592000000001,-0.16226721000000002,-9.8245188,0.002871,-0.000796,0.006047,-76.330414,97.027252,-208.705734,60.187689,24.830159,14.416528,8.553895,-1.0,-1.0,100.071899,0.369926,-0.009168,0.015325,0.311585
879756.601996,-0.09714843000000001,-0.14759145,-9.80206371,0.003018,-0.001607,0.004579,-76.420624,96.915436,-208.985229,60.187689,24.830159,14.416528,8.553895,-1.0,-1.0,100.071899,0.369926,-0.00917,0.015328,0.311588
879756.64197,-0.10073889000000001,-0.15522363,-9.815689800000001,0.003806,-0.000453,0.003062,-76.420898,96.87468,-208.675003,60.187689,24.830159,14.416528,8.553895,-1.0,-1.0,100.071899,0.369926,-0.009165,0.015322,0.31157
879756.64197,-0.10073889000000001,-0.15522363,-9.815689800000001,0.003806,-0.000453,0.003062,-76.420898,96.87468,-208.675003,60.187689,24.830159,14.416528,8.553895,-1.0,-1.0,100.071899,0.369926,-0.009165,0.015322,0.31157
879756.681943,-0.09026181000000001,-0.15328125,-9.808803180000002,0.003496,0.000237,0.004017,-76.473068,96.810715,-208.863113,60.187689,24.830159,14.416528,8.553895,-1.0,-1.0,100.071899,0.369926,-0.009159,0.015328,0.311555
879756.70193,-0.0953532,-0.14969079000000002,-9.817485030000002,0.004661,-0.001059,0.00382,-76.368164,96.841232,-208.81572,60.187689,24.830159,14.416528,8.553895,-1.0,-1.0,100.071899,0.369926,-0.009153,0.015323,0.311553
879756.721917,-0.09729558,-0.14833701000000002,-9.816582510000002,0.003868,-0.000873,0.004144,-76.402008,96.881332,-208.584229,60.187689,24.830159,14.416528,8.553895,-1.0,-1.0,100.071899,0.369926,-0.009142,0.015347,0.311546
879756.741904,-0.09340101,-0.14115609,-9.82676529,0.00471,0.00083,0.004628,-76.284302,96.963806,-208.974564,60.187689,24.830159,14.416528,8.553895,-1.0,-1.0,100.071899,0.369926,-0.009133,0.015347,0.311552
879756.741904,-0.09340101,-0.14115609,-9.82676529,0.00471,0.00083,0.004628,-76.284302,96.963806,-208.974564,60.187689,24.830159,14.416528,8.553895,-1.0,-1.0,100.071899,0.369926,-0.009133,0.015347,0.311552
879756.76189,-0.09400923,-0.15478218000000002,-9.820928340000002,0.004117,-0.000305,0.003939,-76.499222,96.789841,-208.74202,60.187689,24.830159,14.416528,8.553895,-1.0,-1.0,100.071899,0.369926,-0.009126,0.015362,0.311547
