timestamp,time_rel,x,y,theta,vx,vy,bias_accel_x,bias_accel_y,bias_angular_velocity,accel_x,accel_y,accel_z,gyro_x,gyro_y,gyro_z
842475.377048,0.0,-0.002393355382082434,0.0039604670354784115,0.41776190323534124,-0.10246965553951462,0.11695602490507108,8.756653006572505e-05,-0.00014490299198056502,0.0032605307289191314,-9.4279986,-0.14818986,-2.69364942,0.011009,0.022216,0.004617
842475.397035,0.01998700003605336,-0.0063580353249717576,0.009670497847615213,0.716123842869496,-0.07777585702199177,0.18002770564506596,0.0001914164676499945,-0.0003962716998154973,0.0032682615651094793,-9.43233462,-0.23980545,-2.71924371,0.006935,-0.000348,0.003686
842475.417022,0.0399739999556914,-0.01012584513447079,0.015902026937252164,0.9398810498855852,-0.005953016253400684,0.23876550275817449,0.00031058739355139853,-0.0007378657110003717,0.003328298464202169,-9.52125246,-0.23964849,-2.6846634600000003,-0.001753,0.001578,0.003886
842475.437008,0.05995999998413026,-0.013279085281247244,0.022521865382884535,1.1133753813770166,0.07759507379546159,0.30533560384798475,0.00045235150863866545,-0.001163045086551289,0.0032167205096383803,-9.41362695,-0.22872015,-2.76684183,0.001472,-0.003957,0.003308
842475.456995,0.07994700002018362,-0.01585509875406545,0.02960952473879949,1.2513130748513897,0.16099822922725374,0.37786616406848617,0.0006233752189177365,-0.0016713879796629368,0.003254990155707671,-9.46332441,-0.2257281,-2.70951219,0.005903,-0.004082,0.003882
842475.476982,0.09993400005623698,-0.01795694991536327,0.03718992885996283,1.3631998841523725,0.23773288754719493,0.45500940205066315,0.0008281159838854005,-0.0022638226549717123,0.0032091655791693027,-9.47708784,-0.26853894,-2.63556441,0.002198,0.005484,0.003453
842475.496969,0.11992099997587502,-0.02557082977488578,0.0460411661503026,1.4354653952065553,0.2016659412780143,0.5358844635092754,0.0011984614622552834,-0.0033255157741196627,0.003153829309062886,-9.4049451,-0.20926692,-2.75157747,0.004379,0.002117,0.003231
842475.536942,0.15989400004036725,-0.03458985226720681,0.06526944724136435,1.4959912475876624,0.3066241324728995,0.5952310028578112,0.0016092667249765205,-0.005021473136575783,0.0032231175200085086,-9.45972414,-0.25327458,-2.68226982,0.001029,-0.001756,0.004182
842475.536942,0.15989400004036725,-0.03977832634091242,0.06184248097310456,1.558419738866423,0.18600177179285282,0.6618074098885088,0.001937065365923446,-0.005859618545361115,0.003276273649406241,-9.45972414,-0.25327458,-2.68226982,0.001029,-0.001756,0.004182
842475.576916,0.19986799999605864,-0.04540263115066549,0.08157550165991513,1.605033576344705,0.31663464523719803,0.710727517586653,0.0023831536312982488,-0.007724216638807775,0.0033112486286273357,-9.46093077,-0.2430918,-2.66834943,0.002053,0.000246,0.004055
842475.576916,0.19986799999605864,-0.05011899622475995,0.07618423914738072,1.6519303101268026,0.18838528555808504,0.7480257104047281,0.002761900617828425,-0.008752911180298379,0.003337077950438871,-9.46093077,-0.2430918,-2.66834943,0.002053,0.000246,0.004055
842475.616889,0.23984100006055087,-0.05484969596987356,0.09682208231850278,1.688178794263277,0.3070792099929469,0.795789098173055,0.003234226103831656,-0.010902871801954542,0.003256050423397987,-9.43353144,-0.2254338,-2.7559233,0.00429,-0.002273,0.002736
842475.616889,0.23984100006055087,-0.05948851341795131,0.09023175875824169,1.7252764582388735,0.1713596831129814,0.8136868609392391,0.0036348184495874868,-0.01209597898748681,0.003182359980497272,-9.43353144,-0.2254338,-2.7559233,0.00429,-0.002273,0.002736
842475.656863,0.27981500001624227,-0.06461253711844671,0.11194210852990089,1.7546395562885113,0.28015919598989025,0.8642756848691717,0.0041130261778195435,-0.014445842186608906,0.0032333257793660916,-9.4453623,-0.24249339,-2.69350227,0.003483,0.00108,0.004239
842475.656863,0.27981500001624227,-0.0692209415144962,0.10454753350579073,1.7849145926337373,0.1411936492806646,0.8677067543034849,0.004521529373178136,-0.0157386063444903,0.0032713414214778445,-9.4453623,-0.24249339,-2.69350227,0.003483,0.00108,0.004239
842475.696836,0.31978799996431917,-0.07532137142786816,0.12732331545381675,1.8091616838611273,0.24434016525230132,0.9206685121281413,0.0049984530852648845,-0.018202741919434173,0.003302904107004731,-9.46376586,-0.2456424,-2.68870518,0.000811,0.001313,0.004092
842475.716823,0.33977500000037253,-0.08039865205435812,0.13434788254474245,1.8326013958756926,0.19593448366051505,0.936546791045001,0.005452754691120441,-0.020372303187851694,0.003352424267832527,-9.45583938,-0.22273605,-2.70742266,0.005401,-0.000739,0.0045
842475.73681,0.3597620000364259,-0.08541625008778175,0.14171228869800037,1.854438169880483,0.16208884518595398,0.9537404371425335,0.00590257917143958,-0.022410196007221116,0.00336856115744553,-9.43592508,-0.21046374,-2.71984212,0.00401,-0.002713,0.004015
842475.756797,0.3797489999560639,-0.09046435568350955,0.1492577039122958,1.8745672457828544,0.13615299309755383,0.9709360017524741,0.006352245510055733,-0.024388201039355045,0.0033784487471386366,-9.47349738,-0.23755896,-2.68212267,0.001881,0.002135,0.00393
842475.776783,0.3997349999845028,-0.09558303432437827,0.15693014462491364,1.8931443481918295,0.11396714954204533,0.9867643427462723,0.006801963320056584,-0.026336810350926297,0.0034474849633853596,-9.4598811,-0.24354306,-2.7129555000000005,0.003329,-0.002369,0.00511
842475.776783,0.3997349999845028,-0.09864838831369142,0.14852954383705047,1.9117742937212814,0.0019623320110796344,0.9675667502349922,0.007213417522894117,-0.027477268710738856,0.003506161574870728,-9.4598811,-0.24354306,-2.7129555000000005,0.003329,-0.002369,0.00511
842475.776783,0.3997349999845028,-0.09969987534935237,0.1413238858963421,1.929471244417984,-0.07305401289397694,0.956616219947729,0.0076040789124827935,-0.028249522119127162,0.003559002171691912,-9.4598811,-0.24354306,-2.7129555000000005,0.003329,-0.002369,0.00511
842475.836744,0.45969599997624755,-0.11726528906853241,0.18252139847045182,1.941501697345446,0.15159923196452993,1.060151107588295,0.008091923426405474,-0.03132323322734635,0.0035094290064439358,-9.446255010000002,-0.22737618,-2.71520199,0.00365,-0.001135,0.002622
842475.85673,0.4796820000046864,-0.1243592720115319,0.18934935813755358,1.954780883767273,0.08784245022767706,1.0508794554130958,0.008539371957644815,-0.03374717380832206,0.003530427213076249,-9.44685342,-0.22393287,-2.7243351,0.002427,0.001811,0.004292
842475.876717,0.4996690000407398,-0.1310934684312569,0.19658002933805802,1.967796794757378,0.050194411027395934,1.0515171194949522,0.008976675278135693,-0.035901951684795645,0.0035691626686331452,-9.46332441,-0.23980545,-2.68900929,0.003265,-9.3e-05,0.004801
842475.896704,0.5196559999603778,-0.13759707584829492,0.20400260819986363,1.9802108584936304,0.024959270794764815,1.055059193762739,0.009410218383918229,-0.03793188774499641,0.0036142881578248576,-9.45254322,-0.21330864,-2.7184981500000003,0.00344,-0.001643,0.005048
842475.916691,0.5396429999964312,-0.1439563667877211,0.21150409093644446,1.9919283532126055,0.005924590376946404,1.0598683215866023,0.009840936689873823,-0.039900164863696214,0.003620326149818336,-9.4453623,-0.2282787,-2.7039793500000004,0.002671,0.001411,0.004121
842475.936677,0.55962900002487,-0.15025168037599304,0.21903142834228248,2.003021970455756,-0.009411434114599892,1.064821211307365,0.010269572820640057,-0.04183774362167369,0.003622484472389828,-9.45897858,-0.2282787,-2.69214849,0.004332,-0.00081,0.004028
842475.956664,0.5796160000609234,-0.1565207990623396,0.22655886446841692,2.0135471544152495,-0.022902152991588084,1.0693667552795512,0.010695547392308985,-0.04375828530264969,0.0036464325520341205,-9.44460693,-0.23036823,-2.71445643,0.000329,5.3e-05,0.004633
842475.976651,0.5996029999805614,-0.16280179706048778,0.23406425312567242,2.023504460420142,-0.03492531585558823,1.0734500038530321,0.011117559485971094,-0.04566949103444464,0.003586687904562733,-9.45074799,-0.22722903,-2.70502902,0.003642,-6.2e-05,0.002287
842475.996638,0.6195900000166148,-0.16911246301361704,0.24155405163931717,2.0330011283534457,-0.0457984904547893,1.0758842185885331,0.011534137152631331,-0.04757371227115826,0.0035917000539020497,-9.42680178,-0.16390548,-2.721195900000001,-0.001232,-0.008781,0.004075
842476.016625,0.6395770000526682,-0.17547008366609781,0.24896517680946703,2.042075230179538,-0.05552078710479779,1.0792525130117878,0.011946835711179002,-0.04947670588896773,0.003668351332022049,-9.489811410000002,-0.22034241,-2.66970321,-0.003017,-0.001077,0.006243
842476.036611,0.6595629999646917,-0.1818637810468813,0.25633216023807254,2.050730102244419,-0.06515401559466649,1.081597740933226,0.012354432317634854,-0.05137663823808753,0.0037075582599309094,-9.45269037,-0.20327301,-2.72223576,0.008812,0.007552,0.005218
842476.056598,0.6795500000007451,-0.18828100304122694,0.263642914316438,2.0590477991146265,-0.07540593352322235,1.0835777818670045,0.01275771267204627,-0.05326987942234315,0.0038262448910570744,-9.38039067,-0.23516532,-2.75996502,0.00598,-0.002698,0.007815
842476.076585,0.6995370000367984,-0.19479382491187716,0.2708751959923616,2.066997947472501,-0.08278427418662722,1.0856082021871902,0.01315575417135074,-0.05516628015933529,0.003905986365927395,-9.52214517,-0.19444401,-2.64993606,3.7e-05,0.000463,0.006754
842476.096572,0.7195239999564365,-0.20131836213814047,0.27803652494704567,2.074593719043496,-0.09156721560221309,1.0876686546380578,0.013549444530813512,-0.05706002840709596,0.003895913102859841,-9.446255010000002,-0.25686504,-2.68482042,0.000201,0.000108,0.003893
842476.116558,0.7395099999848753,-0.20789253310705233,0.28515053725338985,2.081883609409342,-0.09949319672938349,1.088343531694166,0.013937223771453759,-0.05895067419516006,0.003865670856636064,-9.43323714,-0.19414971,-2.7276312600000003,0.004247,0.004733,0.003182
842476.136545,0.7594970000209287,-0.2144601244444316,0.2921522710808593,2.0889424662478095,-0.10904896922411046,1.0913235732352724,0.0143237125141543,-0.060835877421171386,0.003975507108026585,-9.39131901,-0.38036313,-2.67164559,0.000111,0.005316,0.008021
842476.156532,0.779484000056982,-0.22112448347244937,0.29912243375937936,2.095783353558999,-0.11464225941374483,1.0916823707426362,0.014704116269590197,-0.06272416543184332,0.004232002704096406,-9.51302187,-0.18427104,-2.7268758900000005,0.016504,0.007824,0.013446
842476.176519,0.7994709999766201,-0.22778819627504954,0.3060192533260682,2.1022712264935137,-0.12213225613563465,1.0919792314143328,0.015078816897815712,-0.06460865429030485,0.004181864051698908,-9.40898682,-0.23830452,-2.79993096,0.012235,-0.006001,0.002712
842476.216492,0.8394440000411123,-0.24247041153427737,0.3300961333458136,2.1072930581490716,-0.058806421950962876,1.1431648374056258,0.015493695487605536,-0.06747499563226178,0.004391114736095429,-9.39131901,-0.44382402,-2.75652171,0.036158,0.000404,0.012073
842476.236479,0.8594309999607503,-0.2507315060086435,0.33515219909963945,2.112822223213483,-0.10535364014529351,1.1230925294976708,0.0158881181920073,-0.06978773587273826,0.004125810734198187,-9.37979226,-0.5029587000000001,-2.68257393,0.017685,-0.026955,-0.005344
842476.256466,0.8794179999968037,-0.25845616287184964,0.3405511392516736,2.118570531261385,-0.13050955942420606,1.1150408647841779,0.01627743446662477,-0.07186932784521002,0.004013490448942892,-9.44311581,-0.4975632,-2.6984367,-0.013769,-0.007557,0.000104
842476.276453,0.8994050000328571,-0.2658700368139067,0.3461417854992561,2.1242205043819027,-0.14394486432998332,1.1110398423629686,0.016662756459187945,-0.07385073148242442,0.0037290698690766034,-9.545797080000002,-0.38065743,-2.55473982,-0.04606,0.000359,-0.006804
842476.296439,0.9193910000612959,-0.2730467369494649,0.3518404505755103,2.1297434057034836,-0.1527086935878837,1.1080969806247403,0.017044631833753418,-0.07578418743437623,0.0032754726299684483,-9.5321808,-0.30641535,-2.63422044,-0.051814,0.011995,-0.014012
842476.296439,0.9193910000612959,-0.2733931307001887,0.3398723430223531,2.136542290129121,-0.24108774858099563,1.0515175620781592,0.01738768584879694,-0.07689039787274356,0.002841312600223745,-9.5321808,-0.30641535,-2.63422044,-0.051814,0.011995,-0.014012
842476.336413,0.9593650000169873,-0.28870231463410007,0.3638744312677273,2.1411081699323598,-0.1309808549970021,1.1276965136272892,0.01777908999712042,-0.07924283246907485,0.002743459227884783,-9.43443396,-0.29788065,-2.73107457,-0.041085,0.01249,-0.000952
842476.336413,0.9593650000169873,-0.28940761899763356,0.35135388751304497,2.1473446071054703,-0.23193881180940576,1.0608927371285257,0.018120262107164716,-0.08050862754266047,0.002646439863387488,-9.43443396,-0.29788065,-2.73107457,-0.041085,0.01249,-0.000952
842476.3564,0.9793520000530407,-0.2954437807418609,0.35811802514772806,2.152714019201789,-0.20867674701422032,1.0777150006805123,0.018464476663954017,-0.08204448725944176,0.0022475105704958956,-9.40135464,-0.23545962,-2.65607712,-0.066926,0.001898,-0.014073
842476.3564,0.9793520000530407,-0.29442869938120914,0.34724193819896726,2.1590069141698223,-0.2812118769753899,1.0287381267386428,0.01877660182742241,-0.0829797854776071,0.0018650197054943085,-9.40135464,-0.23545962,-2.65607712,-0.066926,0.001898,-0.014073
842476.41636,1.039312000037171,-0.3212857034208258,0.3869371348588464,2.161693368271152,-0.09061787968295666,1.1595162282546743,0.01915816247972171,-0.0862291071816154,0.002000240233008278,-9.4516407,-0.21450546,-3.1763995200000004,0.006428,-0.033686,0.007814
842476.436347,1.059298999956809,-0.32974648945939244,0.3909870476404154,2.1656781400420035,-0.13800141812729097,1.1233975123970512,0.01949687336056721,-0.08870329394028331,0.002497307284734287,-9.72782163,-0.07139718,-2.68736121,0.005485,-0.012096,0.024178
842476.456334,1.0792859999928623,-0.3374997241384566,0.39550983162853937,2.16971342297031,-0.16323407280130892,1.1082485706936511,0.01981871481513844,-0.09087012868810916,0.002386969316053176,-9.67842828,-0.27273762,-2.63332773,-0.008677,-0.002293,-0.002225
842476.47632,1.0992720000213012,-0.34467165606677796,0.40041595390734186,2.173857842340153,-0.181357623513636,1.09743571376221,0.020130415183747755,-0.09287613033323444,0.0023767872930220237,-9.28159416,-0.25626663,-2.9773055700000004,0.014957,-0.015992,0.002166
842476.496307,1.1192590000573546,-0.3515751038155112,0.40554395815027733,2.177994476148891,-0.19069172145718735,1.0877888354808931,0.020429951236576063,-0.09480167451789462,0.00240690602557987,-9.26812503,-0.03398184,-2.80142208,0.011268,-0.051714,0.00401
842476.496307,1.1192590000573546,-0.35103096046337995,0.3933980013348041,2.183136661401525,-0.2751865517452833,1.0280616376885574,0.020697437944885416,-0.09589824639229702,0.002433407913437539,-9.26812503,-0.03398184,-2.80142208,0.011268,-0.051714,0.00401
842476.536281,1.159233000013046,-0.36683057537420066,0.4165427218181688,2.185589902460255,-0.15960633173259275,1.093696048500935,0.02097448627861261,-0.09822333662476625,0.0018847318857135864,-9.327406860000002,0.2630061,-2.5038455400000004,-0.088876,-0.155124,-0.023272
842476.556268,1.1792200000490993,-0.3737838601360117,0.4213344077553501,2.1888287042851005,-0.1799922462014815,1.0770282395104267,0.021235470258088404,-0.10029419068973983,0.0010556954870427236,-9.33803109,0.07499745,-2.62539144,-0.146406,-0.239241,-0.037464
842476.576254,1.1992059999611229,-0.3805488005012555,0.42621715446169806,2.1919560932787556,-0.19535553739804806,1.0686082687253744,0.02150984417442809,-0.10223545700574392,0.0010498218132169797,-9.13206033,-0.09071307,-2.6661029400000005,-0.201708,-0.328383,-0.066197
842476.576254,1.1992059999611229,-0.3799003368515642,0.41409950924072503,2.1974685920216626,-0.2806990584111331,1.0095177409673828,0.02176628189995781,-0.10333616959047016,0.001041547640165093,-9.13206033,-0.09071307,-2.6661029400000005,-0.201708,-0.328383,-0.066197
842476.616228,1.2391800000332296,-0.39553267076459425,0.43616506789001797,2.199146596789678,-0.1785894530391116,1.0974380241397175,0.02206594974759034,-0.10566126739456755,0.0010367518422269432,-9.38608047,-0.36090009,-2.90785077,-0.275377,-0.391758,-0.05267
842476.636215,1.2591669999528676,-0.4023106850985142,0.4406348306945122,2.202186610717531,-0.2018942069180565,1.0849062989088305,0.02233934151605685,-0.10772614418096675,-6.723946456815857e-06,-9.31947057,-0.31898196,-2.7981357300000003,-0.27006,-0.474329,-0.047738
842476.656202,1.279153999988921,-0.4089630149197953,0.44522260548840803,2.205223582755295,-0.2174548746103757,1.0792798328016076,0.022630924397528274,-0.10966534685589442,-1.2711138045741119e-05,-9.2085489,-0.36898353,-2.75636475,-0.295041,-0.627621,-0.065307
842476.676188,1.2991400000173599,-0.41554782644869076,0.4499683308978125,2.208464945612585,-0.22362698668432085,1.0717161078271595,0.0229143732749337,-0.11154339203391653,-1.884090411057855e-05,-9.22097817,0.00628821,-2.6746376400000003,-0.261558,-0.72854,-0.055375
842476.696175,1.3191270000534132,-0.42186414601482725,0.45472262560912813,2.211530395040807,-0.22782659554381915,1.068762204667402,0.023170277240535116,-0.11339270750516747,-0.0009501344919634885,-9.28668555,-0.14759145,-2.10896361,-0.291339,-0.82714,-0.043254
842476.716162,1.3391139999730512,-0.4280741328544738,0.4594804392663543,2.214525351842763,-0.2317631374541907,1.0669286720591742,0.02342262502357909,-0.11522648044181771,-0.001886412059985926,-9.25360623,-0.18681183,-2.64125421,-0.259685,-0.939532,-0.044954
842476.736149,1.3591010000091046,-0.43403786450633797,0.46428081458729914,2.2175473850704197,-0.24188935354274105,1.0647396804023783,0.023674285859284463,-0.11702653783046466,-0.0025770299635200986,-8.82759717,-0.39787398,-2.35819647,-0.264395,-1.094989,-0.034676
842476.756136,1.379088000045158,-0.4400509129741105,0.4691047813256975,2.220737466710066,-0.2450491551877745,1.06066685305965,0.023921463123763365,-0.11881352136564619,-0.002866391190959653,-8.98521444,-0.11496339,-1.9871136,-0.265319,-1.238576,-0.016347
842476.776122,1.3990739999571815,-0.44608069533865974,0.47383962390383894,2.2240165238192606,-0.2449588131435313,1.0584458398047862,0.024165180387943998,-0.1206045009175233,-0.002950404968915533,-9.19298043,-0.08157996,-1.4468867100000002,-0.278392,-1.322081,-0.006754
842476.796109,1.4190609999932349,-0.45203090145956426,0.4784904620954732,2.2275824797284614,-0.24647062984223303,1.0573406905160865,0.024410618595685427,-0.12239789055186744,-0.0025794653347550414,-9.17786322,-0.18695898,-1.12012542,-0.293327,-1.48143,0.015603
842476.816096,1.4390480000292882,-0.4578983236448362,0.4830102501548692,2.2314189117937175,-0.25030632305409506,1.0591341217068313,0.024663399075564623,-0.12419459981811228,-0.0018032646295798014,-9.19582533,-0.41194152,-0.88914897,-0.322677,-1.555688,0.036406
842476.85607,1.4790219999849796,-0.4740310359962545,0.5030472049560791,2.2377607599427902,-0.1851695013161332,1.1251834677178754,0.02500040994217289,-0.12702166516247104,-0.0018059995309803152,-9.62962353,-0.55489284,-0.12917808,-0.295962,-1.593431,0.091162
842476.85607,1.4790219999849796,-0.4739007959414971,0.4882277376709995,2.2426790503414296,-0.2911622341732611,1.0388761922688168,0.02528296313036277,-0.12845042427731676,-0.0018130928614272048,-9.62962353,-0.55489284,-0.12917808,-0.295962,-1.593431,0.091162
842476.896043,1.5189950000494719,-0.4816832439342286,0.516385153052617,2.273292363696857,0.06520774799381496,1.3224512912471933,0.02552541384064581,-0.12911905941028773,-0.0018227132496590251,-13.25343753,0.00059841,2.28230631,-0.099601,-1.149212,0.613949
842476.896043,1.5189950000494719,-0.47729929998314546,0.5052064187075828,2.27902918207735,0.028013910083848452,1.2934086610466071,0.025734676515693708,-0.12970168323304695,-0.0018309685677201243,-13.25343753,0.00059841,2.28230631,-0.099601,-1.149212,0.613949
842476.936017,1.5589690000051633,-0.4927752637989411,0.5218983350893912,2.2717172223281032,-0.01624954008740914,1.217901718656863,0.025936240986773346,-0.13466601369450085,-0.0009739313450651535,-10.69436169,0.10328949,-0.18576216,-0.041652,-0.581716,0.038579
842476.956004,1.5789560000412166,-0.5030317176183224,0.5207958766336827,2.2704516546020157,-0.1013705846342664,1.132455936153437,0.026074125629325588,-0.13791082592879952,-0.0007223069113971313,-10.63478556,0.3930867,0.24354306,-0.010614,-0.44987,0.011078
842476.97599,1.5989419999532402,-0.5115433251523296,0.5217533386510534,2.271331750540938,-0.1495351068315702,1.0901416147419098,0.026201755419115756,-0.14050653761469448,-0.0004058322218814339,-10.1456001,0.17198892,0.42750999,0.00372,-0.417235,0.014835
842476.97599,1.5989419999532402,-0.5119234234823221,0.5072050961264399,2.274096081556694,-0.2541398360983612,1.0079557252277316,0.026324217473626208,-0.14190913286954798,-0.00010593280187849324,-10.1456001,0.17198892,0.42750999,0.00372,-0.417235,0.014835
842477.015964,1.6389160000253469,-0.5275013095286701,0.5266042369477377,2.275720977852984,-0.16474994525159267,1.0779838673179554,0.026454164276973276,-0.1445464615812258,0.00038896305282811025,-9.69338853,0.14160735,0.78481962,-0.007149,-0.514298,0.024723
842477.035951,1.6589030000614002,-0.5342152743848103,0.5289596025012258,2.27773345365231,-0.19962911068819958,1.0553893943068422,0.026583853725013307,-0.14680476985098442,0.0011897113784867304,-9.58546872,-0.1679472,0.8689403700000001,-0.055631,-0.652415,0.041024
842477.055938,1.6788899999810383,-0.5404233682425481,0.5317383520122638,2.2800346323429874,-0.22065378130025434,1.0438656511251239,0.026714391159991493,-0.1488823936210829,0.002146225076399329,-9.55897191,-0.1764819,0.8385588,-0.091586,-0.787537,0.050206
842477.075924,1.6988760000094771,-0.5463878405835539,0.5347750241064289,2.282300090935493,-0.22999633512266382,1.0367794896284934,0.026840840920287167,-0.1508777920578179,0.003003731639016275,-9.73275606,0.03008727,0.90531585,-0.088184,-0.862072,0.046517
842477.095911,1.7188630000455305,-0.5521125484251822,0.5379766371105438,2.284411294574552,-0.23569325992171414,1.0318187888656694,0.02696207579373253,-0.1528293343081939,0.003662896628111286,-9.71899263,0.07244685,1.0553009400000002,-0.053998,-0.913154,0.037445
842477.095911,1.7188630000455305,-0.5497360003632057,0.5252752394530312,2.287068412375433,-0.316257857390518,0.9659930621832548,0.027072371686125106,-0.15394249150082318,0.004295326729712043,-9.71899263,0.07244685,1.0553009400000002,-0.053998,-0.913154,0.037445
842477.135885,1.758837000001222,-0.5648093621003067,0.5447210898380979,2.2881700757895054,-0.21499713166390122,1.0584050477408737,0.027198643478648185,-0.15631545622269027,0.004475467213598403,-9.62722989,-0.10568313,1.40961852,0.019363,-1.029014,0.013853
842477.155872,1.7788240000372753,-0.5705056134368559,0.5476444678629322,2.289533148792094,-0.23759605431361802,1.0422824246414988,0.02732120741349835,-0.1584207196810901,0.00455937689489684,-9.50329035,-0.12424365,1.7610912000000003,0.045594,-1.076813,0.009021
842477.175859,1.7988109999569133,-0.5759730202143782,0.5507127603095209,2.2910386163628704,-0.25273337837685605,1.0351407845507854,0.02744492938705794,-0.16039488403711424,0.0046042119135134806,-9.41721741,-0.23920704,2.01496419,0.042524,-1.144667,0.007054
842477.175859,1.7988109999569133,-0.5732053307800572,0.5378574470057499,2.2936965698985086,-0.33236783531794417,0.9676603113670493,0.02755506995715483,-0.161508629465836,0.00464524822776934,-9.41721741,-0.23920704,2.01496419,0.042524,-1.144667,0.007054
842477.215832,1.8387840000214055,-0.5884301028072915,0.5575584676586952,2.2939311687077844,-0.23329385163565383,1.0454523172036385,0.027669389720537466,-0.16381392893192698,0.004285994199803979,-9.18145368,0.17124336,2.70053604,0.116133,-1.200541,-0.014967
842477.235819,1.8587710000574589,-0.5946081766707266,0.5600808877698976,2.2978528374125062,-0.2422689498075009,1.026261959791976,0.027823884835389855,-0.1659019419889141,0.004282636819265709,-9.83410317,0.57914316,2.94752241,0.148845,-1.08301,0.057733
842477.255806,1.878757999977097,-0.6003882257133798,0.562686781625797,2.2991065438096117,-0.25300558315408844,1.0188247723086195,0.027975593659458647,-0.16786945506877352,0.004278866766664343,-9.54519867,0.11032326,2.65697964,0.172112,-1.084351,-0.086491
842477.275793,1.8987450000131503,-0.6056851847129977,0.5655375297055935,2.3005446856657796,-0.25316648004336356,1.0190822313572756,0.028072840907865673,-0.16979626615054233,0.004386139150204007,-9.99126918,0.0378666,3.2527311300000004,0.1753,-0.965472,0.010136
842477.295779,1.9187310000415891,-0.6108851208296429,0.5686107916483216,2.3023580793747485,-0.2721023056872307,1.0030982683929512,0.028220599577312228,-0.17162394235198794,0.004381937725110395,-8.24664897,0.1583726399999999,3.77290638,0.150767,-0.882562,-0.070439
842477.295779,1.9187310000415891,-0.6078586216263475,0.5557431797004301,2.3065860276537418,-0.34815354424825773,0.9400698779305221,0.028366056138197,-0.17267186217916944,0.004375862040141846,-8.24664897,0.1583726399999999,3.77290638,0.150767,-0.882562,-0.070439
842477.335753,1.9587049999972805,-0.6226642916335648,0.5749647962543186,2.3062476040003137,-0.25712601338809155,1.011866271299419,0.02845333065651252,-0.17482101320413393,0.003598500406139274,-8.541537570000001,0.22632651,4.000733820000001,0.152269,-0.890818,-0.036951
842477.35574,1.978692000033334,-0.6279396283887705,0.5776500656202055,2.3080363332497615,-0.2675970629932653,0.9966321398492336,0.028534562516050466,-0.17675661314411736,0.004145710562294384,-9.14088933,0.31434183,4.62493431,0.140874,-0.819383,0.033035
842477.375727,1.998678999952972,-0.6327837969904956,0.5804395731923987,2.309622742239968,-0.28669317790009546,0.9893607081324153,0.028620891501354443,-0.17855750061835107,0.004024029098480171,-8.40382479,-0.28620675,4.90964013,0.091491,-0.821571,-0.002335
842477.395714,2.0186659999890253,-0.6374331462664425,0.5832570951559402,2.311581076033672,-0.30201822429100716,0.9896065838536665,0.02871885845175301,-0.18028681162213467,0.004455400104727016,-8.438699340000001,-0.54022689,5.038072650000001,0.047931,-0.803208,0.027639
842477.4157,2.038652000017464,-0.6420959292755078,0.5860488765162062,2.3134805348978382,-0.3093218939994393,0.9944528613041926,0.028825720376651657,-0.18199857158971858,0.0048835412820181,-8.8066332,-0.5089428,4.73660154,0.017867,-0.76921,0.028067
842477.435687,2.0586390000535175,-0.6466958244273193,0.5891018551654545,2.31560699075306,-0.3130538970504893,0.9883956954743832,0.028928727294980725,-0.18368082833324242,0.005647748203790478,-8.422983720000001,0.01616688,4.69768527,0.005525,-0.769477,0.047261
842477.455674,2.0786259999731556,-0.6513318955402806,0.5921408116344421,2.317602372484491,-0.3120695467107166,0.9823681934154764,0.029022826827535042,-0.18535279484916065,0.006212502738092585,-8.546177700000001,0.22048956,4.724623530000001,0.011614,-0.77698,0.037214
842477.475661,2.098613000009209,-0.6558443302382058,0.5951490002982583,2.319603055807063,-0.31352355657330483,0.9777787716848692,0.02911057286899407,-0.18701159891423863,0.006839098194985393,-8.44034742,0.09894366,4.67568144,0.011885,-0.812623,0.041464
842477.495648,2.1186000000452623,-0.6602975812984989,0.5981430955008675,2.321587205063217,-0.3149670541811131,0.9732338511250761,0.029191983139997425,-0.1886583607452441,0.00748517988557027,-8.382870630000001,0.11346246,4.80904839,0.009008,-0.867409,0.043426
842477.495648,2.1186000000452623,-0.6559891763126117,0.5857949985671047,2.323838778925598,-0.3804553695865582,0.9142060577831335,0.029260428104430213,-0.18960334634776255,0.008107463841881506,-8.382870630000001,0.11346246,4.80904839,0.009008,-0.867409,0.043426
842477.515635,2.1385869999649003,-0.6598352640291446,0.5898492772379105,2.3261654682856534,-0.3516458222779446,0.9367321231055216,0.029326197752877124,-0.19083910739792795,0.008637950935874888,-8.316103770000002,0.20462679,4.94721243,0.019137,-0.905706,0.038907
842477.535621,2.158572999993339,-0.6637086956847837,0.5937735499773729,2.3281618667295216,-0.33700889331250206,0.9454106813754707,0.029385766524246102,-0.19224401923016243,0.00915947493067605,-8.18991774,0.23845167,5.13791883,0.032954,-0.930308,0.039066
842477.535621,2.158572999993339,-0.6588465361262361,0.5823873009368511,2.3303327240232914,-0.39469423641514617,0.8937046683236372,0.02943609814087483,-0.19308251283847247,0.00966237729246358,-8.18991774,0.23845167,5.13791883,0.032954,-0.930308,0.039066
842477.535621,2.158572999993339,-0.653124448772168,0.5722411030786522,2.3327445958052575,-0.43233994345098437,0.8606290157033177,0.029482070230853946,-0.1936529958950945,0.010148394935301784,-8.18991774,0.23845167,5.13791883,0.032954,-0.930308,0.039066
842477.615569,2.2385210000211373,-0.6940608812145493,0.6159257258660308,2.3331710749440546,-0.2412970432473097,1.0255271847263616,0.029539089538901258,-0.19693106187385412,0.010576793891681755,-7.53039144,0.11465928,6.13184841,0.059434,-0.941249,0.034958
842477.635556,2.2585080000571907,-0.7007881809625417,0.6160785177679767,2.333672551138278,-0.2936839644108358,0.9787221801400895,0.02957134045844322,-0.19914388573102393,0.01057360645307516,-7.97361705,-0.02575125,5.930517780000001,0.091712,-0.953448,0.010387
842477.655542,2.278493999969214,-0.7063310916675993,0.617419877565378,2.3349861065276674,-0.3246733548050512,0.9506536616259225,0.02959877089488153,-0.20092988326151898,0.010833526450276965,-7.21768788,0.03697389,6.07586274,0.077737,-1.033169,0.025959
842477.695516,2.318468000041321,-0.7217881726470912,0.6347120550953359,2.335278111616412,-0.29122426472411417,0.9431537199163179,0.029583326002960812,-0.20318228563651308,0.010682530362185721,-6.4204488,0.8541272700000001,6.5848055400000005,0.236137,-0.949083,0.001982
842477.695516,2.318468000041321,-0.7188020877667941,0.620809378385582,2.337496083615563,-0.3720856488506664,0.8735597580477092,0.02956784958185386,-0.20429131496167122,0.010533906756052442,-6.4204488,0.8541272700000001,6.5848055400000005,0.236137,-0.949083,0.001982
842477.73549,2.3584419999970123,-0.7339200174036088,0.6368276047289528,2.337001491873246,-0.31232646257015584,0.9286902804152276,0.029546519291550166,-0.20622878370131004,0.00980623298786549,-7.1757795600000005,0.17244018,6.4173096,0.26526,-1.046389,-0.032512
842477.755477,2.3784290000330657,-0.7386457736125769,0.6382541078242407,2.3384140411608545,-0.33534851144045125,0.8994832764782111,0.029517274155118244,-0.20781486579725847,0.009779361661750663,-6.4436494500000006,0.5601313800000001,6.82909416,0.256721,-1.112094,0.008291
842477.775463,2.3984150000615045,-0.7427752305700822,0.6400571176276191,2.340415106965204,-0.35011600871109116,0.8808582937149532,0.029483564625684626,-0.20922694941696884,0.010300304066529818,-6.22165896,0.46118772,6.68554443,0.243192,-1.25206,0.04104
842477.775463,2.3984150000615045,-0.7376773256387089,0.6278217375984526,2.3426072011843004,-0.4073938034256282,0.833037517958246,0.029455528716954962,-0.21002013541158868,0.01080312568972959,-6.22165896,0.46118772,6.68554443,0.243192,-1.25206,0.04104
842477.79545,2.4184019999811426,-0.7413652609959354,0.6303475498183493,2.347977529245231,-0.3894581378656275,0.8428777696237673,0.029485044542350222,-0.21103020209967874,0.010798150696834307,-6.3141672600000005,0.6354329400000001,5.79130407,0.285775,-1.337963,0.075564
842477.835424,2.4583760000532493,-0.7553024594540668,0.6467607960333559,2.354046368241989,-0.3437733502804353,0.8637314198345405,0.02948813484814544,-0.21268967010410705,0.01079475342066796,-5.61168297,0.63198963,7.17068817,0.340864,-1.53481,0.087179
842477.855411,2.4783629999728873,-0.7553282630272719,0.6522621976711801,2.3655849505203044,-0.29610069598416916,0.92354134180222,0.02958698719999247,-0.21292978717258884,0.01078261889337613,-5.16157074,0.26465418,7.665406470000001,0.315502,-1.631266,0.133018
842477.855411,2.4783629999728873,-0.7484224631169286,0.6416716403354308,2.3741763510374394,-0.314373153260404,0.920466873945188,0.029696943620738596,-0.2131411006320415,0.010771279787442994,-5.16157074,0.26465418,7.665406470000001,0.315502,-1.631266,0.133018
842477.875398,2.4983500000089407,-0.747709682398888,0.6480526519150817,2.38861613407866,-0.286878839957406,0.9625894646405878,0.029812942272256237,-0.2134192260062322,0.010760049024431152,-4.0300657200000005,-0.00837774,8.09516295,0.257263,-1.716314,0.317177
842477.915371,2.5383229999570176,-0.753907564584534,0.6728779255832911,2.4151823556424175,-0.1841659156863883,1.040482555851043,0.029902790527332437,-0.21392726622267008,0.01074794176490047,-4.645290060000001,0.8906499,8.49334104,0.212056,-1.784055,0.453524
842477.935358,2.558309999993071,-0.7517113573367564,0.6808392020429876,2.428025802999235,-0.15701647479993705,1.0485223880334182,0.029786673060917906,-0.21445484060891618,0.010744584157481715,-4.06959021,1.42653096,8.28945981,0.269071,-1.68208,0.529572
842477.955345,2.5782970000291243,-0.750734048729044,0.6874310833919282,2.4455324402208216,-0.1365660271918797,1.0578282113673767,0.029821279997973404,-0.21505543096909802,0.01073305664182283,-4.18454379,1.4293758600000002,9.37575054,0.24846,-1.650296,0.471466
842477.975332,2.5982839999487624,-0.749699053688325,0.6939129763101269,2.4608623081803582,-0.12221469268934486,1.065064426438734,0.02982249628175882,-0.21568664710614155,0.010722360314032462,-4.05387459,1.34690319,9.55148688,0.216038,-1.569604,0.396091
842477.975332,2.5982839999487624,-0.744935630921553,0.6813220462689219,2.4682686343436924,-0.16286612588788865,1.0398670967732002,0.029838414249575448,-0.21619041003004189,0.010712453622288813,-4.05387459,1.34690319,9.55148688,0.216038,-1.569604,0.396091
842478.015305,2.6382570000132546,-0.7484531584816996,0.7075467203769742,2.4829592098183184,-0.10765859028110503,1.070375951825638,0.02978416880369752,-0.21687797729850172,0.010702476503523217,-3.37068657,1.16981307,10.31954121,0.038633,-1.495477,0.203844
842478.035292,2.658244000049308,-0.7477223226073428,0.7134682274237153,2.4932675212443387,-0.10922679279723818,1.0656610536108455,0.02971312297419185,-0.217557393047697,0.010692730214677688,-3.33087759,1.27998918,9.83978316,0.005634,-1.397925,0.189591
842478.055279,2.678230999968946,-0.7470508917598707,0.7193370464540384,2.5037387936366713,-0.11455559552231893,1.0532171658584257,0.02962104824119944,-0.21821589706073233,0.01068324145841606,-2.80321731,1.3961493900000002,9.49026267,0.022417,-1.273983,0.210307
842478.075266,2.6982180000049993,-0.7464653458695933,0.725055671112585,2.514645033355661,-0.12013811545826143,1.0403371212567931,0.029505261399235913,-0.21885192469722778,0.01067416106135177,-2.66550453,1.4272863300000005,9.39700881,0.071561,-1.178494,0.249455
842478.095253,2.7182050000410527,-0.7458014399479678,0.7308334608272421,2.525774162212251,-0.13277073330530448,1.018125706775799,0.02935999862626964,-0.21944725311038413,0.010665786756821859,-1.87874253,1.43626248,9.45089514,0.088441,-1.105526,0.28762
842478.11524,2.7381919999606907,-0.7453148404523255,0.7365257257363276,2.5367927427677026,-0.1396453047484979,0.9940988799801453,0.029182878770538056,-0.22000533506265452,0.010657857167738299,-1.7794947600000002,1.7860870800000002,9.7490799,0.118531,-0.966609,0.299772
842478.135227,2.758178999996744,-0.759844333446039,0.7167478643683498,2.5124699302675637,-0.2954704503210418,0.7591648663375157,0.0284104656905628,-0.2232940447160068,0.010697784187935266,-3.4955286300000004,1.02941235,11.31736536,-0.040003,-0.967567,0.01082
842478.135227,2.758178999996744,-0.7591918412143374,0.6989028943408538,2.5028992066631472,-0.38001389818494696,0.6741662426459062,0.027877133977885854,-0.2244431365402767,0.010714197289181724,-3.4955286300000004,1.02941235,11.31736536,-0.040003,-0.967567,0.01082
842478.135227,2.758178999996744,-0.7548918942444877,0.6863046834536168,2.497133081514642,-0.42813432102404103,0.6360577807521326,0.027453917062213822,-0.2250273715482684,0.010724422670250679,-3.4955286300000004,1.02941235,11.31736536,-0.040003,-0.967567,0.01082
842478.135227,2.758178999996744,-0.7490524636461987,0.675836648149486,2.4929353763398687,-0.4599389496758719,0.6160264681552647,0.0270946631242993,-0.22538040104130208,0.01073201658821734,-3.4955286300000004,1.02941235,11.31736536,-0.040003,-0.967567,0.01082
842478.135227,2.758178999996744,-0.7424591639360171,0.6664784597905362,2.489558289407661,-0.48280701692174605,0.604612656536835,0.026777992378778873,-0.2256164882757668,0.010738179008603485,-3.4955286300000004,1.02941235,11.31736536,-0.040003,-0.967567,0.01082
842478.135227,2.758178999996744,-0.735478443545036,0.657803426543345,2.486680578410567,-0.500161185970152,0.597862725619954,0.026492151834056257,-0.22578543276332527,0.0107434328997719,-3.4955286300000004,1.02941235,11.31736536,-0.040003,-0.967567,0.01082
842478.135227,2.758178999996744,-0.7283058363329948,0.6496033959729496,2.4841405053438805,-0.5138355942768489,0.5938599262980001,0.0262299266426787,-0.2259124263984241,0.010748047015446282,-3.4955286300000004,1.02941235,11.31736536,-0.040003,-0.967567,0.01082
842478.135227,2.758178999996744,-0.7210551911895654,0.6417650302160559,2.481846916354937,-0.5249144158781196,0.5915756102485565,0.025986537843279107,-0.22601158358319945,0.010752176856829927,-3.4955286300000004,1.02941235,11.31736536,-0.040003,-0.967567,0.01082
842478.135227,2.758178999996744,-0.713796810287137,0.6342211101084066,2.479743829472797,-0.5340855722019182,0.5904151203931169,0.025758639099406903,-0.2260914251845313,0.01075592092988325,-3.4955286300000004,1.02941235,11.31736536,-0.040003,-0.967567,0.01082
842478.135227,2.758178999996744,-0.7065758664950382,0.6269288441381042,2.477794431809599,-0.5418095399645678,0.5900145401364608,0.02554378544594902,-0.22615739691643527,0.010759346252668382,-3.4955286300000004,1.02941235,11.31736536,-0.040003,-0.967567,0.01082
842478.135227,2.758178999996744,-0.6994221418014329,0.6198592726198828,2.4759731265219838,-0.548407691139113,0.5901408937520932,0.0253401292028509,-0.2262131390406485,0.010762501094806453,-3.4955286300000004,1.02941235,11.31736536,-0.040003,-0.967567,0.01082
842478.135227,2.758178999996744,-0.6923555493516562,0.6129917064877581,2.4742612731792946,-0.5541119464385152,0.5906394821752475,0.025146235106049436,-0.22626117480650176,0.010765421848354401,-3.4955286300000004,1.02941235,11.31736536,-0.040003,-0.967567,0.01082
842478.135227,2.758178999996744,-0.6853894426960923,0.6063106350939363,2.472644762928989,-0.5590943212155606,0.5914044379299547,0.024960962387270663,-0.22630330616622438,0.01076813697565588,-3.4955286300000004,1.02941235,11.31736536,-0.040003,-0.967567,0.01082
842478.135227,2.758178999996744,-0.6785326895720197,0.59980392301417,2.4711125659173616,-0.5634853436624934,0.5923614606750063,0.024783386548724286,-0.2263408524066919,0.010770669402515988,-3.4955286300000004,1.02941235,11.31736536,-0.040003,-0.967567,0.01082
842478.215174,2.8381260000169277,-0.7167527198058484,0.6397931133702519,2.4573279247087605,-0.4594083332524577,0.6569278524709767,0.02461839632261928,-0.2262842392000347,0.01076490049988184,-1.58370678,0.72404667,10.745403120000002,-0.001374,-0.47867,-0.218056
842478.295121,2.9180730000371113,-0.7469918908487997,0.6860628271060635,2.4370211266868544,-0.39242576249716593,0.6851626835469323,0.024215399981449857,-0.22623408188245964,0.010764242725772838,-0.98046045,0.77972823,6.03754488,-0.017354,-0.143936,-0.248826
842478.415042,3.0379940000129864,-0.7893102653891653,0.7829124903477462,2.420575983673661,-0.33503369409322376,0.719021789333856,0.023429656348566343,-0.22630976789539414,0.010756500183710993,-0.6723970200000001,0.95381649,9.25855047,-0.17295,-0.354823,-0.199353
842478.49499,3.1179420000407845,-0.8194173612600665,0.8696712045513582,2.416035635273472,-0.3264833908384525,0.7807015787882018,0.022667038862814123,-0.22646075740248567,0.010747982150867846,-0.7289811,0.46822149,10.16955612,-0.342514,-0.635296,-0.107396
842478.514977,3.1379289999604225,-0.8266062077478343,0.9113095678981783,2.4184676840585766,-0.34410776084782096,0.816932546354712,0.022102029174648985,-0.22665834571220028,0.010739802105601397,-0.6649218000000001,0.7324244100000001,9.57633561,-0.348418,-0.674079,-0.09859
842478.534964,3.157915999996476,-0.8324342972370733,0.9516802458539768,2.4207057924620283,-0.3575188633335976,0.8394208849563627,0.021649714781169244,-0.2268770326458051,0.010731703559599234,-0.40894947,0.7414103700000001,9.86703534,-0.356464,-0.715959,-0.103288
842478.55495,3.1779020000249147,-0.8373954596198189,0.9912972431350449,2.422759345154052,-0.3662145786722176,0.8484219956918022,0.02125903241720996,-0.22710051825709643,0.010723530851032052,-0.09894366,1.03494519,9.63052605,-0.344815,-0.722884,-0.113144
842478.574937,3.197889000060968,-0.8413876560211827,1.030153879072446,2.4254570722360818,-0.38284788019391774,0.8528947440163722,0.02092466192106576,-0.2273140652289493,0.010715001810245293,0.36763956,0.6009998400000001,9.56451456,-0.320071,-0.689466,-0.09121
842478.594924,3.217875999980606,-0.8600517435733139,1.0507367311758613,2.413673091894153,-0.5022837611517443,0.7355764661510986,0.020377323147581512,-0.22901220535115854,0.01072894369609848,0.40655583,0.45295713,10.02075804,-0.303519,-0.664968,-0.054259
842478.614911,3.2378630000166595,-0.8718132374911897,1.0793304804330117,2.408853983589726,-0.5202964544072645,0.7035579323062019,0.019934178846690215,-0.22989878655309323,0.01073246392678353,-1.88113617,1.56409659,9.51302187,0.134466,0.519202,-0.060163
842478.634898,3.257850000052713,-0.8777011607275322,1.112340929285048,2.3994930052137793,-0.5751104478909698,0.6820420676928224,0.01947970288271022,-0.23031882373945764,0.010742863940073644,1.2088863,-0.3788622,6.6524651100000005,0.134466,0.519202,-0.060163
842478.654885,3.277836999972351,-0.8835535971510065,1.1445278515665387,2.397895302691343,-0.6131879015724424,0.6655146363832529,0.01918848315022319,-0.23061922912949165,0.010740892473273997,1.24990191,-0.09774684,9.74293884,0.038592,0.194377,-0.081769
842478.674872,3.2978240000084043,-0.8882091421260678,1.1770508248746778,2.397195081644382,-0.6113207026861456,0.6900066701130144,0.01895898637853459,-0.23068891964556232,0.010735885960518903,-0.40999914,-0.17812998,11.5309683,0.013939,0.055519,-0.132919
842478.694858,3.317810000036843,-0.8924320531644565,1.2092905249619543,2.3959431148911374,-0.6115546852562156,0.7095120741804624,0.018758192476979362,-0.23073826634594372,0.010730258062368563,-0.06316659,-0.21450546,10.80693144,0.014881,0.005171,-0.178977
842478.714845,3.337796999956481,-0.8962863997360215,1.241038050196769,2.3937232318787807,-0.6096553989334325,0.7377926060111087,0.01859317990408446,-0.2307823309883034,0.010723847592490853,-0.44157753,-0.5897772,10.56892122,-0.002399,0.005903,-0.250987
842478.734832,3.3577839999925345,-0.8997718676969205,1.2726019871632865,2.3913435188231844,-0.6110767722837889,0.7567860286562085,0.01845721846459804,-0.23081830707892761,0.01071666334382963,0.04235958,-0.5204695500000001,9.888735060000002,0.005948,-0.024002,-0.281951
842478.774806,3.397757999948226,-0.9149579258371251,1.3195601637555052,2.381618022239784,-0.6051980525131696,0.7552971138893619,0.01831814010436442,-0.23080505466731685,0.01070785892382978,0.28905165,0.23560677,9.66554775,0.005202,-0.01878,-0.342139
842478.774806,3.397757999948226,-0.9067402142994294,1.336097191992803,2.385809720904623,-0.5953820016577474,0.770699501042261,0.018196314792846512,-0.23083872715391363,0.010698847103557065,0.28905165,0.23560677,9.66554775,0.005202,-0.01878,-0.342139
842478.81478,3.4377320000203326,-0.9211169751749154,1.3827117990993412,2.3765112827689183,-0.5887874203912314,0.7669699635805248,0.01806134858174029,-0.23082626742269916,0.010688982404477063,0.30506157,0.28860039,9.60252831,0.016839,-0.016372,-0.345947
842478.834767,3.457719000056386,-0.923371259758138,1.4133834176904558,2.37564930071329,-0.5810166048158079,0.7739526276791691,0.017927127900578713,-0.2308201753389724,0.010679083925413082,0.35341506,0.2633004,9.82272357,0.001824,-0.01942,-0.279753
842478.854753,3.4777049999684095,-0.9254265399805804,1.4437154708598345,2.375939576216311,-0.5728484541781883,0.7804273600783007,0.017793718593565155,-0.23082215649443089,0.01066895862424362,0.29728224,0.2894931,9.66330126,-0.004348,-0.01206,-0.227232
842478.87474,3.497692000004463,-0.9272815728793224,1.4737355997717565,2.377911322827053,-0.5662013202540794,0.7839827785950176,0.017660484581901642,-0.23082890223783764,0.010658457658805964,0.41404086,0.33724818,9.60522606,0.007819,-0.011084,-0.152546
842478.894727,3.5176790000405163,-0.9290085611032143,1.503325528520646,2.380825576039115,-0.5574169888190875,0.7910937704013137,0.017528260051695208,-0.2308469666918022,0.010647637781359557,0.13696722,0.28725642,9.73949553,0.001972,-0.005477,-0.113083
842478.894727,3.5176790000405163,-0.9204043850129051,1.5172484269710789,2.3860337940297836,-0.5502147171178854,0.8033376533299359,0.01740881701200866,-0.2309033691096536,0.010636958048857894,0.13696722,0.28725642,9.73949553,0.001972,-0.005477,-0.113083
842478.914714,3.5376659999601543,-0.9221869722250028,1.5460619615788591,2.3894169254143947,-0.5449972177133134,0.8052192744139494,0.017287504263376982,-0.23095855426442702,0.01062598304721514,0.2225889,0.29189655,9.75985128,-0.000198,-0.022075,-0.093581
842478.954688,3.577640000032261,-0.9342512083492616,1.590884775687653,2.3910323907934465,-0.5402740519029595,0.8037131972663994,0.017156664699611242,-0.23098981962152862,0.0106141080319535,0.12888378,0.20791314,9.84098979,0.002169,-0.004453,-0.096185
842478.974675,3.597626999951899,-0.9415899951681591,1.6123430083100192,2.3850689605110045,-0.5956686629303135,0.7445127057498041,0.01694073871754966,-0.23187320991625202,0.010620446063333164,0.06960195,0.19085355,9.72587925,0.003545,0.000344,-0.063322
842478.974675,3.597626999951899,-0.935153240391002,1.6221265865803565,2.3846763425954514,-0.6161031215772911,0.7276066866506831,0.01676806321602544,-0.23229022341340225,0.01061944658179611,0.06960195,0.19085355,9.72587925,0.003545,0.000344,-0.063322
842479.014648,3.6376000000163913,-0.9510736500626504,1.6613597176697894,2.381203930947624,-0.6290851583205361,0.7087391893662184,0.01656288633895089,-0.23259844921300413,0.010052678623963677,-0.06287229,0.18022932,9.82197801,0.003427,0.001469,-0.013338
842479.034635,3.6575870000524446,-0.9543049957343346,1.685942401217054,2.37911507823915,-0.6371466439173559,0.698223148503105,0.016366963659344595,-0.2328173456628304,0.009748577704418887,0.08906499,0.27363033,9.78230637,0.003664,0.001592,-0.003002
842479.054622,3.6775739999720827,-0.957406940085675,1.7102435828475162,2.3774857937048575,-0.6422193730817103,0.6895617384066859,0.01617367846494379,-0.23298735212770164,0.009390775330322674,0.16241436,0.32751666,9.83365191,-0.000668,-0.002151,-0.005791
842479.074609,3.697561000008136,-0.9604571445206131,1.7341428175706959,2.3761301259249166,-0.6452519423612904,0.6840858487027682,0.015983000025195846,-0.2331288245812223,0.00908805715147358,0.11197134,0.2948886,9.78515127,0.004129,-0.001759,-0.003934
842479.094596,3.7175480000441894,-0.9634638681459303,1.757628188234128,2.3750463126202046,-0.6475548705776135,0.68107173894776,0.01579744947952046,-0.23325168110004224,0.009025865257353782,0.0808344,0.23081949,9.85250673,-0.003587,0.001549,0.006309
842479.114583,3.7375349999638274,-0.9664863846664212,1.780757861226278,2.3741061022807735,-0.6471664750533936,0.6771064644141829,0.015611074161098023,-0.233360995260814,0.009043758453531992,0.0782838,0.37616445,9.79758054,-0.003559,0.000207,0.009835
842479.13457,3.757521999999881,-0.9695168245922774,1.8034990577213252,2.3732164993296045,-0.6454856970240058,0.6732200315692207,0.015420704259352462,-0.2334611497438661,0.008945910702869847,0.06541308,0.44217594,9.75356307,9.9e-05,-0.001397,0.004573
842479.154557,3.777509000035934,-0.9724800049611138,1.825861748989533,2.372365420276293,-0.6458061821248978,0.6698236391433705,0.015229009129658062,-0.2335474937308591,0.008762545834881334,0.1761876,0.36209691,9.746235,0.001749,-0.005214,0.000459
842479.174544,3.797495999955572,-0.9754229630436507,1.847841010914441,2.3715733868383184,-0.6453629598149049,0.6681028046323247,0.015037853918274877,-0.2336259973468373,0.008645397872532249,0.11661147,0.33590421,9.68396112,0.003623,-0.007757,0.00328
842479.19453,3.817481999984011,-0.978351325877597,1.8694314878784613,2.3707788732564365,-0.643884767489925,0.6687484694259117,0.01484805147117739,-0.2337058848490154,0.008566552921654359,-0.02499588,0.28860039,9.7174917,0.000433,-0.000627,0.004914
842479.214517,3.8374690000200644,-0.9811998629323267,1.890754284195771,2.369950689493905,-0.6441543685904625,0.6666778207348272,0.014657998838187745,-0.23377447794401002,0.008459660070927934,0.17858124,0.3236319,9.70252164,0.001581,-0.002868,0.003442
842479.234504,3.8574560000561178,-0.984033365648766,1.9117230312367768,2.3691504527877427,-0.6432515658392534,0.6662519913439707,0.014468996433979203,-0.23383979513482067,0.008408496300116204,0.08308089,0.30926025,9.77168214,0.003296,0.000979,0.005985
842479.254491,3.877442999975756,-0.9868415864004991,1.9323695772828309,2.3683065294123224,-0.6419526241508142,0.6659827394449654,0.014279643646556747,-0.2339036025914979,0.00829075001999222,0.05942898,0.32033574,9.79593246,-0.000327,5.5e-05,0.002634
842479.274478,3.897430000011809,-0.9895946074402795,1.9527278031519557,2.367477811450083,-0.6414106206178957,0.6648858529537353,0.014090686813734401,-0.23396129290573506,0.008194598028584271,0.13531914,0.32497587,9.780815250000002,0.004351,-0.000111,0.003527
842479.294465,3.9174170000478625,-0.9923135277194093,1.9727705471231627,2.3666451444827707,-0.6404972934781847,0.6647896119849751,0.013902690739228216,-0.23401658575705728,0.008122786281871169,0.08712261,0.30297204,9.80101404,0.001164,0.000825,0.004601
842479.314452,3.9374039999675006,-0.9949998268317607,1.9925217915926212,2.365821450661226,-0.6395667198482481,0.6643653186294953,0.013715086317634741,-0.23406913772879337,0.008036232899578211,0.10164141,0.31658832,9.77706783,0.002077,0.000258,0.003747
842479.334439,3.957391000003554,-0.9976447218707387,2.011988518897579,2.364984648588461,-0.6384945878044377,0.6642026989971671,0.013528131456997248,-0.2341195229342683,0.007973593821189777,0.08712261,0.31359627,9.78993855,0.005099,0.002736,0.004839
842479.354425,3.977377000031993,-1.0002524169799256,2.0311748145034914,2.3641396982317318,-0.6375632041382016,0.663820979516566,0.013341377864824484,-0.23416731630936166,0.007877390377462842,0.10298538,0.31778514,9.77797035,0.002961,-0.001522,0.003013
842479.374412,3.997363999951631,-1.0028336228957067,2.0500818600441924,2.3633551122999563,-0.636367548903465,0.6634524197587915,0.013155330908985234,-0.2342134976968367,0.007827415876725625,0.09176274,0.329616,9.75611367,0.003796,0.000254,0.005283
842479.414386,4.0373380000237375,-1.017802909282713,2.0821389465141737,2.362559225892376,-0.6330527308401392,0.6570076893024939,0.012952386716031133,-0.23422525532316446,0.007789511541968858,0.09011466,0.3408386399999999,9.7664436,0.003798,-0.001115,0.005868
842479.434373,4.057325000059791,-1.0200402938959303,2.100434558464405,2.3618152874173335,-0.6309105449099591,0.6581734846292387,0.012752780195408583,-0.23425531249405648,0.007741978619083579,0.08007903,0.37272114,9.76090095,0.006031,-0.001413,0.005307
842479.45436,4.077311999979429,-1.022250177396672,2.118436525863464,2.361114024519355,-0.6294542825111934,0.6584445969502348,0.012555678015629207,-0.23429206827150587,0.007698934916684732,0.09220419,0.37168128,9.79009551,0.004781,-0.002619,0.005478
842479.474347,4.097299000015482,-1.0244400024095404,2.136153093195185,2.3604357192354595,-0.6280762126299302,0.658217836717734,0.012359707406300833,-0.23433154332640022,0.007617133248929087,0.08981055,0.38335518,9.76508982,0.00262,0.000971,0.003348
842479.494334,4.117286000051536,-1.0266057507215625,2.153587591078855,2.359865297660269,-0.6270212846526758,0.6577359679049345,0.012165318850828263,-0.23437143938589117,0.007571226884192596,0.10014048,0.37916631,9.7522191,0.003762,-0.000732,0.00517
842479.494334,4.117286000051536,-1.0170701540829763,2.158179234348455,2.359363731188817,-0.6278258619718876,0.6638658556413588,0.011988034933654816,-0.23443785391546712,0.007526984053344789,0.10014048,0.37916631,9.7522191,0.003762,-0.000732,0.00517
842479.534308,4.157260000007227,-1.0317508493740442,2.188562458723563,2.3588908567204507,-0.6248729191721485,0.6545273295965994,0.011789273991152118,-0.23446372155104714,0.007466772942616614,0.08981055,0.38649438,9.78529842,0.001137,0.0005,0.004274
842479.554294,4.177246000035666,-1.0338354507324985,2.205212929356551,2.358517162076672,-0.6234638483891302,0.6547096268065994,0.011592296505947185,-0.23449686569944528,0.007426953509024217,0.08442486,0.38993769,9.7695828,0.005849,-8.9e-05,0.005313
842479.574281,4.197232999955304,-1.0358951839791788,2.2216117120013217,2.3581575515822806,-0.6222951609087211,0.6544922737278439,0.011396254370213172,-0.23453291883165195,0.007367869294963118,0.08382645,0.39352815,9.77766624,0.003875,-0.00067,0.00419
842479.574281,4.197232999955304,-1.0263339146493005,2.225256461923591,2.3578620130322,-0.6233714815519834,0.660751272811524,0.011217931050090568,-0.23459625174679766,0.0073108847976373825,0.08382645,0.39352815,9.77766624,0.003875,-0.00067,0.00419
842479.614255,4.237207000027411,-1.0407920706235858,2.2546020258711854,2.3575600983553047,-0.6210016736757136,0.6516059455901164,0.011018367165643226,-0.23461770276257157,0.0072686198719444225,0.0960987599999999,0.38065743,9.79129233,0.004593,-0.001135,0.004983
842479.634242,4.257193999947049,-1.042749808110633,2.2702949556491316,2.357299411013443,-0.6200668144515797,0.6519230747332156,0.010820736912161287,-0.23464619759314806,0.007194302971327093,0.09774684,0.37960776,9.7752726,0.001652,0.001062,0.003112
842479.654229,4.277180999983102,-1.0446785553149267,2.2857482137355856,2.357072511144464,-0.6195563609435134,0.6521603860447637,0.01062543504463358,-0.234677530208819,0.007131580661558574,0.09325386,0.35939916,9.77946147,0.002123,0.000672,0.003672
842479.674216,4.297168000019155,-1.0465723089030416,2.3009814086839664,2.3568419908825877,-0.6191598826117723,0.652331400402574,0.0104321956378868,-0.2347095851285072,0.007081172595115414,0.08772102,0.35087427,9.77587101,0.004586,0.000981,0.004291
842479.694203,4.317155000055209,-1.0484397290562273,2.3159905195588664,2.356637921547037,-0.6189589168493635,0.6524358499996796,0.010240861395766377,-0.2347416117430343,0.007024160526836882,0.08996751,0.33964182,9.77856876,0.002014,0.000502,0.003844
842479.71419,4.337141999974847,-1.0502671624138233,2.3307884359243656,2.3564370739173013,-0.6191056036789824,0.6526876666591844,0.010051917913913447,-0.23477236475514895,0.006979034306526835,0.09595161,0.31359627,9.7664436,0.005142,0.000966,0.004456
842479.734177,4.3571290000109,-1.0520683577821581,2.3453719167376006,2.3562666860628356,-0.6193672327211625,0.6530705331921097,0.009865485993843437,-0.23480219668478172,0.006937912580046336,0.09325386,0.29548701,9.79098822,0.00352,0.001922,0.004631
842479.754163,4.377115000039339,-1.0538398254485728,2.3597575610458232,2.3561063890924716,-0.6197212522288837,0.6531633831118868,0.009681180738996271,-0.2348298830078244,0.006891522795403555,0.11092167,0.29458449,9.7781175,0.002667,-0.001145,0.004268
842479.77415,4.397101999958977,-1.0555982616552118,2.373931585600824,2.355959629016416,-0.6197788991761511,0.6535800983606795,0.009498827690878437,-0.23485742285638375,0.006820557272965643,0.08322804,0.28575549,9.80326053,0.004495,-0.000322,0.002759
842479.794137,4.4170889999950305,-1.0573235665333751,2.387920297569408,2.355830242262984,-0.6199061752276127,0.6538268936606239,0.009318681871962133,-0.234883678795035,0.006779083556457468,0.09131148,0.28231218,9.76898439,0.00223,0.000649,0.004414
842479.814124,4.437076000031084,-1.0590241272944818,2.4017180673965295,2.3557199019937016,-0.6200998049323977,0.6539773089211177,0.009140434907958737,-0.23490859344324638,0.006735025881029006,0.09759969,0.27662238,9.77137803,0.002856,-0.000244,0.004207
842479.834111,4.457062999950722,-1.0607035008695773,2.415326855018237,2.35563063579135,-0.6201335288188452,0.6541866959423659,0.008964033688505667,-0.2349327741499449,0.006698955455086564,0.08726976,0.27408159,9.78814332,0.005745,-0.000214,0.004629
842479.854098,4.477049999986775,-1.0623548957102222,2.4287549854621098,2.3555272229314204,-0.6203158525369428,0.6542731821125397,0.008789199643150622,-0.23495543475100292,0.006636149365791585,0.09834525,0.26704782,9.7926363,-0.000552,0.000972,0.002973
842479.874085,4.497037000022829,-1.0639801194873455,2.4420067991310908,2.3554476913107116,-0.6204963619278655,0.6542608629019653,0.008616153363301099,-0.23497631863799306,0.00659042605747194,0.10478061,0.2650956299999999,9.80985285,0.004091,-0.001737,0.003926
842479.894072,4.517024000058882,-1.065593838550302,2.4550806663012663,2.3553808450175966,-0.6201651521141105,0.6541649792049241,0.008444074765354047,-0.23499682518678203,0.006538112006912229,0.08562168,0.28381311,9.77946147,0.003841,-0.000302,0.003468
842479.914059,4.53701099997852,-1.0671917536466908,2.46797956891329,2.3553635215347306,-0.6197971262526869,0.6537209593058375,0.008272666903464402,-0.2350164524994079,0.006494033703329363,0.09580446,0.29713509,9.7841016,0.00174,0.000388,0.003907
842479.934046,4.556998000014573,-1.0687703733874026,2.4807071645594228,2.355367926943318,-0.6192466387127584,0.6532253501851835,0.008101675352360359,-0.2350353748722423,0.006459042664115545,0.08906499,0.30641535,9.79533405,0.005183,-0.002628,0.004409
842479.954033,4.576985000050627,-1.0703286672977226,2.4932710887760323,2.3553713187286363,-0.6185134261173776,0.652493544425855,0.00793050950196404,-0.23505342706324497,0.006414661716441284,0.0896634,0.32452461,9.76988691,0.002972,-0.000239,0.003787
842479.974019,4.59697099996265,-1.0718667620640494,2.5056673730773578,2.3554236441375664,-0.617818919842812,0.6515643359955928,0.007759205934187231,-0.23507030253224975,0.006389183171354966,0.09894366,0.33425613,9.76823883,0.00326,-0.001582,0.004902
842479.994006,4.616957999998704,-1.073380654494211,2.517902845290419,2.3554705774619773,-0.6170352062516762,0.6507052885947748,0.007587585078260481,-0.23508613311135584,0.006362374604147063,0.09295956,0.33919056,9.78335604,0.005241,-0.002535,0.004787
842480.03398,4.656931999954395,-1.086895802549843,2.5430765603133185,2.355547930108962,-0.6141085238139042,0.6434019064603568,0.007398395168891437,-0.23506810218105165,0.006323797406070508,0.0953532,0.35521029,9.78993855,0.00436,-0.001107,0.004057
842480.03398,4.656931999954395,-1.0766752266587865,2.542565460001499,2.3556493744795315,-0.6145175040729965,0.650415303512564,0.007227861329916948,-0.2350976520456346,0.006286554078092893,0.0953532,0.35521029,9.78993855,0.00436,-0.001107,0.004057
842480.073954,4.696906000026502,-1.090083844176165,2.567357626151858,2.3557408345700015,-0.612460112358947,0.6428086025617726,0.0070395545388951195,-0.23508941741340347,0.006242218910656228,0.08861373,0.34203546,9.78605379,0.000382,0.000109,0.003608
842480.093941,4.716893000062555,-1.0911853941348761,2.5787667533045098,2.355885307642181,-0.6115815959733006,0.6436150792756183,0.006854977570596865,-0.2350941184197149,0.006207081911129526,0.08352234,0.33574725,9.78335604,0.006216,-0.001333,0.004124
842480.093941,4.716893000062555,-1.0809212350384902,2.5777498353142447,2.356025786327109,-0.6124783454368031,0.6497665225086388,0.006687316149607471,-0.2351311626083511,0.006173122587600137,0.08352234,0.33574725,9.78335604,0.006216,-0.001333,0.004124
842480.133915,4.7568670000182465,-1.0941819048122277,2.602008244616837,2.3561193392466713,-0.6117253027160132,0.6424059163053979,0.006502653395599634,-0.23512776000883212,0.006128648807669865,0.08981055,0.30581694,9.77137803,0.003232,-0.000416,0.003456
842480.153902,4.7768540000543,-1.095187231600065,2.6129294522052655,2.3563045188439258,-0.611370662256079,0.6429627870569772,0.006321403678463457,-0.23513295428868825,0.006115051500347359,0.09879651,0.31030011,9.76883724,0.004412,-0.00175,0.005343
842480.173889,4.796840999973938,-1.0961646709345698,2.6236942756693113,2.3564606971675452,-0.6113003979806684,0.6430798414960335,0.006142556338041694,-0.23514096058389647,0.006091384257986835,0.10403505,0.30596409,9.78709365,0.001972,0.000848,0.004689
842480.173889,4.796840999973938,-1.08579527638928,2.6220820302470624,2.3566051200712286,-0.6121504841635532,0.6488192924634356,0.005978985172659865,-0.23517740010385352,0.006068518551227351,0.10403505,0.30596409,9.78709365,0.001972,0.000848,0.004689
842480.193876,4.816828000009991,-1.0870178585326322,2.6327100147298825,2.3567443407617565,-0.6128905725568092,0.6470066763004956,0.005813426078382908,-0.235202191324305,0.00603458466250656,0.10119015,0.29278926,9.780511140000002,0.003806,-0.00163,0.003953
842480.233849,4.856800999958068,-1.10015298197328,2.6561885294229746,2.3569007571199325,-0.6119863064132816,0.6398513843315201,0.005631086021654645,-0.2351864069267071,0.005991157539433173,0.10628154,0.30192237,9.77437008,0.002204,-0.000201,0.003343
842480.253836,4.8767879999941215,-1.1010358023803741,2.6663892030609664,2.3571289055463476,-0.6114621715992542,0.6408058565560184,0.00545231268512908,-0.23518341084910768,0.00597005252746046,0.10238697,0.29443734,9.77333022,0.00564,-0.000997,0.004715
842480.273823,4.896775000030175,-1.1019009708985772,2.6764457796907153,2.357336802997959,-0.6111380169676419,0.6411110692570606,0.005275888214434754,-0.23518561931853374,0.005945795199671862,0.09999333,0.3008727,9.78560253,0.001992,-0.000585,0.004486
842480.29381,4.916761999949813,-1.1027585217487905,2.686360071197752,2.3575455403495393,-0.6106133165066431,0.6409551207590614,0.005100644670447422,-0.23519060337319406,0.005912067767286209,0.08996751,0.3204828899999999,9.79158663,0.000554,-0.000122,0.003849
842480.313797,4.936748999985866,-1.103598511797696,2.6961364157387444,2.3577701791361276,-0.6102624419061412,0.6405473027186399,0.004926308206403972,-0.23519632560913495,0.005881529897757579,0.09655002,0.32122845,9.76044969,0.005537,-0.000263,0.004015
842480.333784,4.95673600002192,-1.104422399257447,2.705774910240232,2.358007597984172,-0.6099480826782685,0.6402092541989391,0.00475281539097451,-0.2352024585389989,0.005855401206567761,0.08861373,0.31584276,9.78305193,0.000993,0.000565,0.004264
842480.353771,4.976723000057973,-1.10522437817761,2.7152895021703274,2.358253384251178,-0.6098798569143893,0.639564442203934,0.004579948492234347,-0.23520724688071815,0.005830500767567622,0.11061756,0.31734369,9.78784902,0.004723,-0.001474,0.004313
842480.373758,4.996709999977611,-1.106016102028347,2.7246791599949254,2.3584890490041825,-0.6093085946220212,0.6390431091363884,0.004407252518374017,-0.23521211743607243,0.005809473829506157,0.08322804,0.3327552,9.76584519,0.004168,0.000327,0.004534
842480.393745,5.016697000013664,-1.106784889505876,2.733948173660651,2.3587252164428314,-0.6090975418312005,0.6383915731418496,0.004234818037658632,-0.23521584393222522,0.0057821118518725,0.10208286,0.32557428,9.79428438,0.002296,0.000267,0.004097
842480.413732,5.036684000049718,-1.1075335509493136,2.743088374900338,2.3589470254394174,-0.609136805414332,0.6381702978496977,0.004063235909734532,-0.2352188607110281,0.0057358638187337075,0.09490194,0.29907747,9.79727643,0.005139,0.000875,0.002832
842480.433719,5.056670999969356,-1.1082746370103824,2.752119162524928,2.3591824211074996,-0.6088308076827775,0.6375255338136439,0.003891807038794319,-0.23522097835860167,0.005695305560436945,0.0981981,0.32811507,9.77302611,0.003527,-0.000311,0.003151
842480.453705,5.076656999997795,-1.1090018411523017,2.7610316362976164,2.359437332665758,-0.6083755131361808,0.6371007778180044,0.0037206992143214708,-0.23522315789358864,0.005678319833975172,0.0805302899999999,0.32722236,9.77407578,0.00308,0.000377,0.00465
842480.473692,5.096644000033848,-1.109704095016971,2.769836775783674,2.3596541740752226,-0.6082198343136267,0.6367287661833034,0.003550036041597948,-0.23522450649386653,0.005642360958006897,0.08891784,0.31449879,9.80416305,0.004663,-0.000643,0.003381
842480.493679,5.116630999953486,-1.1103957891649405,2.7785270032539335,2.359912369747782,-0.6080888785368411,0.6363916342498935,0.003380048750659614,-0.23522549078772373,0.005628466413810027,0.08667135,0.31180104,9.78185511,0.002173,7.4e-05,0.004795
842480.513666,5.136617999989539,-1.111071325243289,2.7871059664898357,2.3602015470871605,-0.6083316434771036,0.6359581605548305,0.003210921444502775,-0.23522496531730552,0.005620421335691452,0.10747836,0.29982303,9.77706783,0.004741,-0.000892,0.005167
842480.533653,5.156605000025593,-1.1117433311578941,2.79557144808418,2.360475876749625,-0.6083243072745349,0.6356399872790439,0.0030423072708744554,-0.23522389723401366,0.005579732474729933,0.09355797,0.30326634,9.80954874,0.003544,-0.00051,0.002998
842480.55364,5.176592000061646,-1.1123998120223157,2.8039391482204405,2.3607415224232415,-0.6081917707253567,0.6352281472670427,0.0028742344042594578,-0.2352219875385046,0.0055470161848825425,0.09265545,0.31090833,9.77677353,0.002138,0.001173,0.003479
842480.573627,5.196578999981284,-1.113040636690192,2.8122007295060674,2.3610361925287364,-0.6081621074468588,0.6350113858455944,0.00270709694188829,-0.23521971766780972,0.005543510951093193,0.08741691,0.29862621,9.78574968,0.005329,-0.000729,0.005383
842480.593614,5.2165660000173375,-1.1136780334324616,2.820363373050285,2.3613304672278304,-0.6078484252605794,0.6344792691751917,0.0025400245758261182,-0.23521718028536953,0.005526165215396295,0.08636724,0.32122845,9.79428438,0.001793,-0.001084,0.004458
842480.613601,5.236553000053391,-1.1143066744884018,2.828424483410426,2.361635512203491,-0.6074718368045883,0.6338864901002258,0.002372961671176819,-0.23521437473200754,0.005509106083267252,0.08412075,0.32766381,9.76254903,0.001793,-0.001084,0.004458
842480.633588,5.256539999973029,-1.1149215789532358,2.836378394608718,2.361970625849734,-0.6073896085572967,0.6334967270812427,0.0022064638281149053,-0.2352112110582598,0.005503194505213399,0.08576883,0.3094074,9.77333022,0.005814,-0.001805,0.005185
842480.653575,5.276527000009082,-1.1155271800189757,2.8442366921011235,2.3622699714125233,-0.6072190262123365,0.632974788016301,0.0020400703110553956,-0.23520737815753567,0.005459228039338494,0.08712261,0.31778514,9.75865446,0.001806,-0.002205,0.00263
842480.673562,5.296514000045136,-1.11611962008481,2.852002097167657,2.362565710856474,-0.6069792840923641,0.6324312258118003,0.0018739008911189496,-0.23520286128161136,0.005419107473401928,0.08532738,0.32213097,9.74967831,0.004475,-0.000454,0.002838
842480.693549,5.316500999964774,-1.1166893198912118,2.8596754672117104,2.3628859418885977,-0.6070366267635071,0.6320180312524143,0.0017085636217770723,-0.23519718350323582,0.0054164311518690045,0.09355797,0.30581694,9.78589683,0.003514,-0.000753,0.005308
842480.733522,5.356474000029266,-1.1290296838722778,2.879944692339381,2.3632257307477067,-0.6053495563232069,0.6253610446536536,0.0015276509783556072,-0.23515648294425612,0.00540593403276555,0.10298538,0.32377905,9.76195062,0.005858,-0.001415,0.004792
842480.733522,5.356474000029266,-1.1180502406434452,2.875367362528068,2.363504081614332,-0.6058935718000483,0.6322656556433388,0.001364533748488753,-0.23516322583368918,0.005395872571010898,0.10298538,0.32377905,9.76195062,0.005858,-0.001415,0.004792
842480.773496,5.396447999984957,-1.130335467706139,2.895398695974709,2.3638750809542888,-0.604832521548083,0.6249979559741978,0.0011848697237389046,-0.23513092040660077,0.0053873816875143485,0.10193571,0.31734369,9.7721334,0.002987,0.000263,0.004904
842480.773496,5.396447999984957,-1.1193280318396968,2.890611178680534,2.36418628058639,-0.6054969291563528,0.6315642089200818,0.0010221633169806795,-0.23514037339767263,0.00537925625712246,0.10193571,0.31734369,9.7721334,0.002987,0.000263,0.004904
842480.81347,5.436422000057064,-1.1315616133483986,2.9104136612180724,2.364488942791807,-0.604453004235114,0.6243921997949888,0.0008424999988749667,-0.23511038412043916,0.005349214767178492,0.09310671,0.3125466,9.79727643,0.002661,0.001826,0.003444
842480.81347,5.436422000057064,-1.1205137859205179,2.9054428849669462,2.3647908318798487,-0.6051469864689956,0.6308300538967084,0.0006793846378337426,-0.23512040286889196,0.005320155172078517,0.09310671,0.3125466,9.79727643,0.002661,0.001826,0.003444
842480.853444,5.476396000012755,-1.132704918561807,2.9250229282410007,2.365130984228852,-0.6042369209782857,0.6235997817019869,0.0004991571649704543,-0.23509106209267638,0.0052911347050077365,0.09385227,0.30985866,9.77960862,0.0038,0.000164,0.00345
842480.853444,5.476396000012755,-1.1216277800648649,2.919868972908714,2.3654660400601157,-0.6049496899767824,0.6299694306930618,0.0003352810592540439,-0.23510122993418686,0.005263065530822933,0.09385227,0.30985866,9.77960862,0.0038,0.000164,0.00345
842480.893418,5.516369999968447,-1.1337586038175982,2.939251233723394,2.3657932609463685,-0.6043888779607909,0.6227385985735902,0.00015466611739519445,-0.23507030323119996,0.0052400676864705975,0.10269108,0.30221667,9.79368597,0.004626,-0.001248,0.00379
842480.893418,5.516369999968447,-1.122633984568302,2.933937840326645,2.3661010115895404,-0.6050382570961944,0.6291228824002572,-9.774997041485152e-06,-0.23507923170684944,0.005217844706388627,0.10269108,0.30221667,9.79368597,0.004626,-0.001248,0.00379
842480.933392,5.5563440000405535,-1.1347532576516963,2.953120639908587,2.3664266640118345,-0.6033201288431731,0.621933324509657,-0.0001922588838155129,-0.2350508457834141,0.005200800152661808,0.07364367,0.32452461,9.77168214,0.002626,0.000875,0.00414
842480.933392,5.5563440000405535,-1.1236053428540798,2.9476503861463597,2.3667203750357473,-0.6041055915535929,0.6282515521150223,-0.0003584170405203497,-0.23506081896053532,0.005184354067395842,0.07364367,0.32452461,9.77168214,0.002626,0.000875,0.00414
842480.973366,5.596317999996245,-1.1356576435205956,2.966649038623665,2.367072276081566,-0.6031187142895335,0.6205849406868169,-0.000542540413149228,-0.2350305974224325,0.005169801842511312,0.09864936,0.32138541,9.79952292,0.001457,0.001912,0.004273
842480.973366,5.596317999996245,-1.1244822501085774,2.961028369118758,2.367383145034278,-0.6039055777645451,0.6269691135497287,-0.0007102039809575231,-0.23503937579633716,0.00515577840862878,0.09864936,0.32138541,9.79952292,0.001457,0.001912,0.004273
842481.01334,5.636291999951936,-1.1364958006455168,2.9798308315686253,2.367717119532715,-0.6029297206176877,0.6194220903427969,-0.0008958032040265103,-0.23500775405323665,0.005131218700484179,0.09909081,0.32018859,9.78725061,0.005564,0.000974,0.003566
842481.01334,5.636291999951936,-1.1252915689937568,2.9740652929714866,2.368034813765325,-0.603710171720265,0.6258573071928247,-0.0010648524210198369,-0.2350155608433377,0.005107473779427874,0.09909081,0.32018859,9.78725061,0.005564,0.000974,0.003566
842481.053313,5.6762650000164285,-1.1372626334057168,2.992681809464189,2.3683979958963706,-0.6027919578946608,0.6184862942713251,-0.0012514945797097463,-0.23498304697820974,0.005100357217652412,0.09789399,0.31644117,9.77706783,0.005588,-0.001762,0.004694
842481.053313,5.6762650000164285,-1.1260259308696097,2.986777216508707,2.3686998381754343,-0.6035659337904685,0.6249433130181161,-0.001421568504762543,-0.23499005826692992,0.005093556522263831,0.09789399,0.31644117,9.77706783,0.005588,-0.001762,0.004694
842481.093287,5.71623899997212,-1.1379655608009362,3.005202238837795,2.3690409697084673,-0.6027044186829363,0.6181037860151567,-0.001608738839460767,-0.23495840446397764,0.005074157708032965,0.08576883,0.30476727,9.796373910000002,0.001788,-0.00176,0.003846
842481.093287,5.71623899997212,-1.1267020094293958,2.999149707746487,2.3693531091669575,-0.6035048927467886,0.6244842745192944,-0.001779468290052434,-0.23496564329672998,0.005055422627482774,0.08576883,0.30476727,9.796373910000002,0.001788,-0.00176,0.003846
842481.133261,5.756213000044227,-1.138620437912895,3.0174187531979952,2.3696654379356206,-0.6021550350930902,0.6172791983149275,-0.0019681549045090932,-0.2349346789486279,0.005026581721054839,0.0805302899999999,0.32122845,9.77706783,0.003422,0.000418,0.003163
842481.133261,5.756213000044227,-1.127334942106076,3.011233098425971,2.3699745826632013,-0.6030181801383748,0.6236271031601552,-0.0021403148082430007,-0.2349419788489138,0.004998669844492592,0.0805302899999999,0.32122845,9.77706783,0.003422,0.000418,0.003163
842481.173235,5.796186999999918,-1.139200656328513,3.0293414437699275,2.370336533862269,-0.6020765214440331,0.61639075023254,-0.0023299140207708505,-0.2349099509456045,0.004997700365235983,0.08951625,0.31464594,9.78964425,0.004724,0.00106,0.004998
842481.193222,5.816174000035971,-1.139008757504887,3.0347204249712223,2.37066951480303,-0.6017992114674975,0.6168692448503096,-0.0025164643453165648,-0.23488752492115397,0.004986737499888377,0.10628154,0.32122845,9.76659075,0.001031,0.000271,0.004314
842481.213209,5.836160999955609,-1.1388123481620116,3.0400133427659304,2.371003421165593,-0.6017198269085968,0.6170380056064626,-0.0027007096376880447,-0.23486932430605875,0.004984656119633802,0.09864936,0.31614687,9.79053696,0.004546,-0.001107,0.004907
842481.233196,5.856147999991663,-1.1386186253158268,3.045227681219122,2.3713059077874323,-0.6014672797538692,0.616937989112803,-0.002883736124389594,-0.23485344674457806,0.004950815180667441,0.08667135,0.32782077,9.78709365,0.001295,0.000138,0.002735
842481.253183,5.876135000027716,-1.138408906223049,3.0503770750646737,2.371609846654666,-0.6015112648191212,0.616667600373777,-0.003065508911993825,-0.2348375593296945,0.004938810753011019,0.09968922,0.32018859,9.7664436,0.002101,0.000698,0.00419
842481.253183,5.876135000027716,-1.1270660179366991,3.0437854035938345,2.371873161271015,-0.602607012252177,0.6222452468350624,-0.0032328127491377,-0.23484819414438282,0.004927225868580223,0.09968922,0.32018859,9.7664436,0.002101,0.000698,0.00419
842481.293157,5.916108999983408,-1.1388661733676182,3.0614334152019302,2.372157626257043,-0.6023899380725584,0.6146792187730004,-0.0034185952128400793,-0.23481660253720918,0.004897681252813649,0.09909081,0.3008727,9.78919299,0.002124,-0.000918,0.002967
842481.313144,5.936096000019461,-1.1386302939708859,3.0663978454025687,2.3724362579291576,-0.602038508539139,0.6152283254902654,-0.0036022251524225816,-0.23479291160456403,0.004846313813244257,0.09160578,0.31239945,9.78021684,0.003558,-0.000297,0.001437
842481.333131,5.956083000055514,-1.1383927337165467,3.071293959512145,2.372744121206196,-0.6018479855582836,0.615465154600941,-0.003784109234417715,-0.23477305929591272,0.004828388568476184,0.08517042,0.31194819,9.79038981,0.005741,-0.001036,0.003676
842481.353117,5.976068999967538,-1.138151400025776,3.076125208033335,2.373073341568954,-0.6019113184307072,0.6154106859031288,-0.003964634331410655,-0.23475448389335746,0.004823054034948106,0.09490194,0.30895614,9.7781175,0.001422,-0.000181,0.004522
842481.373104,5.996056000003591,-1.1379138010763092,3.0808943855655766,2.3734128513809285,-0.6018568006800841,0.6152446011530393,-0.004144243683994097,-0.2347366476181149,0.0048228623809269035,0.08801532,0.31524435,9.78814332,0.005994,-0.001684,0.00487
842481.393091,6.0160430000396445,-1.1376666090229717,3.0856094194089914,2.3737277039183198,-0.6020864343733916,0.6149585963886471,-0.004322923177219123,-0.23471797435575287,0.004808640624260477,0.10343664,0.30716091,9.78275763,0.004033,-0.00046,0.003903
842481.413078,6.036029999959283,-1.1374224376206994,3.0902690952204503,2.37406432466204,-0.6021977925668077,0.6145188579570021,-0.0045010003217533946,-0.23469842901111873,0.004806548193251434,0.1067328,0.31658832,9.7957755,0.001005,0.000208,0.004724
842481.433065,6.056016999995336,-1.1371789837968935,3.0948715832936826,2.374387941569063,-0.6022232932346532,0.6142271645005931,-0.004678515199444997,-0.23467847911595327,0.004794766266928348,0.09759969,0.31434183,9.793087560000002,0.004197,-0.000628,0.004053
842481.453052,6.076004000031389,-1.1369337234413004,3.099419089584532,2.3747063985552517,-0.6023516158341117,0.6140192951728984,-0.004855313531438494,-0.23465806787517884,0.004776765699288947,0.09774684,0.30670965,9.78275763,0.003531,-0.000359,0.003611
842481.473039,6.095990999951027,-1.1366899558124168,3.103923451223978,2.375029172342656,-0.6021127155560695,0.6136989675798755,-0.005031785803782277,-0.2346376129480228,0.00478588883522336,0.08622009,0.32557428,9.79024266,0.002016,0.001473,0.005464
842481.473039,6.095990999951027,-1.125298469558807,3.0967686968058885,2.3752842097488047,-0.603169511570807,0.6191755038655423,-0.005194488768011401,-0.23464306904127802,0.004794836951059799,0.08622009,0.32557428,9.79024266,0.002016,0.001473,0.005464
842481.473039,6.095990999951027,-1.1141616981756137,3.0897089735250662,2.3755110526735574,-0.6045463909027455,0.623199208763459,-0.00534695218798331,-0.2346598480206091,0.004803582429028692,0.08622009,0.32557428,9.79024266,0.002016,0.001473,0.005464
842481.493026,6.115977999987081,-1.114510887506078,3.0945271882006584,2.3757715496123666,-0.6056049131147224,0.6200373532701957,-0.005505321889362059,-0.2346612691919006,0.004787138304220898,0.10837107,0.31419468,9.77512545,0.006142,-0.000954,0.003688
842481.552987,6.1759389999788254,-1.138401246924968,3.1241404606113576,2.376156076131055,-0.6029190811227989,0.6065566829634855,-0.005701678248017252,-0.2345852975957151,0.004768678689139095,0.09999333,0.31959018,9.77541975,0.003505,1.7e-05,0.003579
842481.572974,6.195926000014879,-1.1381148189083754,3.128482154065886,2.3765351243499415,-0.6018771933883406,0.6088080992562047,-0.005891914290638175,-0.23454109829208822,0.0047534586964627585,0.08756406,0.31404753,9.77228055,0.002316,0.001607,0.003778
842481.612948,6.23589999997057,-1.1494670315361262,3.144949401611862,2.37695936576043,-0.5998828473939829,0.6040566787050241,-0.006093203550674844,-0.23447388693633828,0.0047524847990004235,0.09774684,0.31658832,9.7781175,0.00283,-0.00159,0.004752
842481.612948,6.23589999997057,-1.137760200746208,3.137459603977504,2.3772754801243376,-0.6005121830857244,0.611525269878442,-0.00627454833306626,-0.23446207510444522,0.004751688193241463,0.09774684,0.31658832,9.7781175,0.00283,-0.00159,0.004752
842481.632935,6.255887000006624,-1.1374345806841177,3.1415545410558674,2.3775731825584394,-0.6009538428680286,0.6106928340176866,-0.0064553383778181124,-0.2344445490592729,0.004744106920017839,0.10253412,0.31614687,9.75461274,0.002729,-0.000492,0.00428
842481.652922,6.275874000042677,-1.137108505044157,3.1455874987144727,2.377871053660316,-0.6011337876898605,0.6103100706048223,-0.006635509745906021,-0.2344244376636993,0.004737220300717653,0.08816247,0.30985866,9.78141366,0.005466,-0.001296,0.00432
842481.692896,6.315847999998368,-1.1484220190255452,3.161760912022806,2.378299604656827,-0.6000596370379757,0.6043491091902066,-0.006830147149739652,-0.23436982814842994,0.004755178619920691,0.09805095,0.30431601,9.79113537,0.002774,-0.002658,0.006028
842481.692896,6.315847999998368,-1.1366700126736293,3.1540119089011056,2.3785866856502844,-0.6007374188319703,0.6111654570033633,-0.007007266700376099,-0.2343610924587806,0.004772759068244278,0.09805095,0.30431601,9.79113537,0.002774,-0.002658,0.006028
842481.732869,6.3558210000628605,-1.1479671093736261,3.1700523087117554,2.378941661437736,-0.599497902920734,0.6045067199243158,-0.00720104805576172,-0.23431528470465648,0.004770168049617939,0.08308089,0.31449879,9.7579089,0.001922,0.000101,0.004653
842481.732869,6.3558210000628605,-1.1361945116888554,3.1621782214836274,2.3792197910946093,-0.6003333953100825,0.6109708789497166,-0.007378090692620675,-0.2343095107103535,0.004767763356200001,0.08308089,0.31449879,9.7579089,0.001922,0.000101,0.004653
842481.772843,6.395795000018552,-1.1474624589481264,3.1781016424991884,2.379576401103975,-0.5992752638129921,0.6036272156237761,-0.0075729479072440455,-0.23426435092621498,0.00476404303556526,0.0956475,0.32332779,9.78185511,0.003354,0.001125,0.00457
842481.772843,6.395795000018552,-1.1356722168816482,3.170128423087536,2.379859906333179,-0.6001510427771458,0.6100637326755477,-0.007751197853860765,-0.23425835876491452,0.00476053915365912,0.0956475,0.32332779,9.78185511,0.003354,0.001125,0.00457
842481.812817,6.435768999974243,-1.1469107131164187,3.1859210294369706,2.3801864132856894,-0.5992524536962669,0.6030968695249856,-0.007946980007021343,-0.23421319937043586,0.0047541229806585695,0.09011466,0.31404753,9.79368597,0.005568,-0.002218,0.004375
842481.812817,6.435768999974243,-1.1350973966628923,3.177859897695452,2.3804488944622904,-0.6001507417122481,0.6095305624498717,-0.008126220052364167,-0.23420678582919127,0.004747996388832469,0.09011466,0.31404753,9.79368597,0.005568,-0.002218,0.004375
842481.852791,6.47574300004635,-1.1463140793948483,3.1935482879640738,2.380820031505623,-0.5995773089779144,0.6022914189105918,-0.008323046717957678,-0.2341596652459814,0.004757132783617956,0.10463346,0.31330197,9.78500412,0.004073,-0.002358,0.005432
842481.852791,6.47574300004635,-1.1344828187022156,3.1854042470456574,2.3810842833032977,-0.6004381742277094,0.608781196097073,-0.008503330567559999,-0.23415194124816976,0.0047661245735993755,0.10463346,0.31330197,9.78500412,0.004073,-0.002358,0.005432
842481.892765,6.5157170000020415,-1.1457068057418514,3.200965952271959,2.3814347650461407,-0.5996186313211082,0.602042655580262,-0.008701052303037795,-0.23410569255651623,0.004757256339380283,0.08786817,0.30895614,9.78156081,0.001495,-0.001999,0.004212
842481.912752,6.535704000038095,-1.1449260519575408,3.204131173970992,2.381774663259282,-0.5994634069835157,0.6029610625308535,-0.008895097714435052,-0.2340699039995389,0.004778869349160652,0.09655002,0.30670965,9.77108373,0.005248,-0.001688,0.006299
842481.932739,6.555690999957733,-1.1441485036159424,3.2072499070977463,2.3820716723724322,-0.5994308954586526,0.6032110923827139,-0.009086896855511924,-0.2340382947314698,0.004782394165257462,0.09984618,0.31749084,9.7752726,0.00269,0.001237,0.005072
842481.952726,6.575677999993786,-1.1433838584588036,3.2103154491998476,2.3823648249912406,-0.5992828218927666,0.6033053069112382,-0.009277251102268522,-0.23400933545696562,0.004775276064657358,0.08502327,0.32318064,9.79443153,0.004032,-0.000787,0.004341
842481.972713,6.59566500002984,-1.1426146027042348,3.2133367521713234,2.3826414651142667,-0.5996271242478715,0.6034021994439049,-0.009465931842757128,-0.23398077337560902,0.004756801950201091,0.09714843,0.30027429,9.80490861,0.004192,-0.00229,0.003548
842481.9927,6.615651999949478,-1.1418571075765005,3.2163236657904974,2.3829277776860653,-0.5997458049799755,0.6031999478859371,-0.009653687877692295,-0.23395209106544895,0.00474465409895172,0.0984924,0.31778514,9.77003406,0.002557,-0.000236,0.003966
842482.012687,6.635638999985531,-1.1411057346207876,3.2192755843766734,2.3831920306594085,-0.5997290532625923,0.6031572538399063,-0.009840626107506203,-0.23392368866475105,0.004729118012844623,0.08382645,0.31689243,9.77601816,0.003004,-0.002271,0.003717
842482.032674,6.655626000021584,-1.1403590928249887,3.22219088897083,2.3834640204734336,-0.5999181648705617,0.6032540628523908,-0.010026499097799067,-0.23389551031283382,0.004719276340191588,0.08232552,0.30282489,9.79398027,0.004226,0.000132,0.004095
842482.052661,6.675613000057638,-1.1396232704082971,3.225078790001926,2.383761706906647,-0.6001069544771052,0.6030817987483781,-0.010211630806935029,-0.2338668800115781,0.004724908038435133,0.09236115,0.31194819,9.78574968,0.00217,-0.001601,0.005158
842482.072648,6.695599999977276,-1.1389043617494865,3.2279327701248195,2.3840445963994066,-0.6002120725492571,0.6028643898049579,-0.010396291196677522,-0.23383798627348548,0.004696384393542762,0.09040896,0.31718673,9.7724277,0.005269,-0.001226,0.002795
842482.092635,6.715587000013329,-1.1381790999395003,3.2307741076465586,2.384296629971316,-0.6005074534904554,0.6025812618319895,-0.010580177127949267,-0.23380739408812462,0.004681993208515627,0.10537902,0.31270356,9.77377167,0.003853,-0.000207,0.003743
842482.112622,6.7355740000493824,-1.1374737988570343,3.2335873959284487,2.384565079739806,-0.6004291338028092,0.6022894375850961,-0.010763798601974548,-0.23377661734457525,0.004674907941770715,0.09176274,0.32871348,9.77826465,0.002989,-0.000601,0.004236
842482.132609,6.7555609999690205,-1.1367751097962295,3.236374694946509,2.3848329436189992,-0.6005030047163187,0.6021048645640175,-0.01094687287330345,-0.233745439423005,0.004671244396391761,0.09295956,0.32018859,9.77407578,0.005528,-0.000774,0.004466
842482.152596,6.775548000005074,-1.136080722311287,3.239140194163332,2.385103685866822,-0.6007878132139215,0.6019364305847451,-0.011129143190629692,-0.23371331232187526,0.004677647955390225,0.10238697,0.31134978,9.76568823,0.001599,-0.001208,0.005162
842482.172582,6.795534000033513,-1.13540080492507,3.2418781174456934,2.385362480683913,-0.6009302379594729,0.6018931359792463,-0.01131068299486742,-0.2336810585523213,0.004670400829722129,0.09145863,0.31165389,9.7841016,0.003342,-0.001127,0.004218
842482.192569,6.815520999953151,-1.1347352917588234,3.2445944252541543,2.385629600332181,-0.6010225914768722,0.6017338706796749,-0.011491637185426649,-0.2336485289922819,0.004665053107802508,0.09340101,0.31763799,9.76180347,0.004033,0.000734,0.004343
842482.212556,6.835507999989204,-1.1340768480915628,3.2472930206617088,2.385892870737594,-0.6012490957782983,0.6014207217208083,-0.011672000384394006,-0.23361483755816043,0.0046592468263625215,0.10762551,0.3182364,9.7869465,0.002796,0.000209,0.004305
842482.232543,6.8554950000252575,-1.1334301092715868,3.2499632156070355,2.3861174771101474,-0.6013788204938372,0.6015169127007265,-0.011851496033502848,-0.23358127623221842,0.00462569240948188,0.08636724,0.30625839,9.7866522,0.003821,-0.00101,0.002362
842482.272517,6.895468999980949,-1.1444415025714822,3.264635597083179,2.3864274526737557,-0.6000622158868928,0.595609053144214,-0.012045665470331146,-0.23351386638297184,0.00461609720860099,0.10148445,0.31569561,9.7869465,0.002146,-5.5e-05,0.004015
842482.292504,6.915456000017002,-1.143448225805127,3.267028333335809,2.386694290722266,-0.5996389089746401,0.5973159707061432,-0.012234455059520978,-0.23346499313378113,0.004598677671021375,0.08846658,0.30132396,9.78141366,0.00502,-0.000387,0.003461
842482.292504,6.915456000017002,-1.1314029312608822,3.258081092222885,2.3869109048279675,-0.6006348752929611,0.6035650069367718,-0.012407260885770632,-0.23345103997175146,0.004581843935358496,0.08846658,0.30132396,9.78141366,0.00502,-0.000387,0.003461
842482.332478,6.955429999972694,-1.142409745193526,3.2726545516429697,2.3872080211301023,-0.6000919317849899,0.5962598270531588,-0.012597329703412485,-0.2333958551867989,0.0045760720702178554,0.10552617,0.31390038,9.80206371,0.004409,-0.000205,0.004231
842482.332478,6.955429999972694,-1.130360375146306,3.263654878299385,2.3874395516169074,-0.6009336386290854,0.6026758998466287,-0.012771421186336781,-0.23337919088813064,0.004570569406354993,0.10552617,0.31390038,9.80206371,0.004409,-0.000205,0.004231
842482.372452,6.9954040000448,-1.1413820311039746,3.2781474320191895,2.3877194839229885,-0.5997694813737316,0.5956301269431825,-0.01296329268519503,-0.23332330486729846,0.0045643804198398485,0.09086022,0.32287653,9.80026848,0.001999,-0.000506,0.004189
842482.372452,6.9954040000448,-1.129334255954949,3.2691017931856043,2.3879353121290716,-0.6006466465300551,0.6020846442309747,-0.013139038789948288,-0.23330622150121708,0.0045584717277405975,0.09086022,0.32287653,9.80026848,0.001999,-0.000506,0.004189
842482.412426,7.035378000000492,-1.140339130527119,3.2835290120314444,2.388163236468026,-0.6000472240025758,0.5948877984226726,-0.013332274027825332,-0.2332479100924994,0.004528178438705738,0.10867518,0.31598991,9.77092677,0.003915,0.001295,0.002511
842482.412426,7.035378000000492,-1.1282900038883599,3.2744377243164164,2.3883892191688503,-0.6008862426618851,0.6014205433236434,-0.013509315744208421,-0.23322938734595555,0.0044988399509516734,0.10867518,0.31598991,9.77092677,0.003915,0.001295,0.002511
842482.4524,7.075351999956183,-1.1393095212426272,3.2887890068879324,2.3886550016979964,-0.5997249360239747,0.5948152831114367,-0.013703723184713504,-0.2331727197799737,0.004498526399041482,0.08262963,0.31689243,9.78245352,0.004849,-0.001962,0.00452
842482.4524,7.075351999956183,-1.127260713368816,3.2796537142670674,2.38884270132177,-0.6006374813030092,0.6012940911297294,-0.013881895463810507,-0.23315474165077177,0.0044983270850773634,0.08262963,0.31689243,9.78245352,0.004849,-0.001962,0.00452
842482.492374,7.11532600002829,-1.1382860569944429,3.2939443848494174,2.3890987354150877,-0.5995033103003583,0.594556579757137,-0.0140776694825013,-0.2330991423749084,0.004486302797355236,0.08172711,0.31959018,9.77677353,0.005553,-0.001319,0.00371
842482.492374,7.11532600002829,-1.1262489991793496,3.2847573258728247,2.389307433587878,-0.6004901098346499,0.6009833670368777,-0.014257135431444025,-0.23308157647424643,0.0044747188170098755,0.08172711,0.31959018,9.77677353,0.005553,-0.001319,0.00371
842482.532348,7.155299999983981,-1.1372675157845502,3.298998657394115,2.3895488523172226,-0.5996568510565436,0.5939745460607604,-0.014454106184278158,-0.23302457131397397,0.004458720573783159,0.09445068,0.31943322,9.78649524,0.001302,-0.000905,0.00341
842482.552335,7.175287000020035,-1.1363003346032101,3.3009942339468683,2.3898290038338477,-0.5995031464766498,0.5951146015354446,-0.014647304462991291,-0.2329790098509941,0.00446142206363807,0.08471916,0.30536568,9.78934014,0.005296,0.000233,0.004688
842482.572322,7.195274000056088,-1.1353361090774958,3.3029759213093963,2.3900576270101874,-0.5994938306033812,0.5952244828123229,-0.014838332386347014,-0.23293678000522997,0.004457990328943961,0.10687995,0.32827203,9.78320889,0.002547,4.4e-05,0.004262
842482.592309,7.215260999975726,-1.1343824107461942,3.304920117764389,2.390290185875495,-0.5996830046824252,0.5953810103099338,-0.015027480887191233,-0.23289631353744072,0.004454610796894446,0.10073889,0.31344912,9.78754491,0.002547,4.4e-05,0.004262
842482.612296,7.235248000011779,-1.1334373544954373,3.3068389703765013,2.3905286339864986,-0.5999983751536877,0.5954510635782436,-0.015215012994762054,-0.2328562235165387,0.004460519549299454,0.10432935,0.30730806,9.78275763,0.004969,0.000523,0.004903
842482.632283,7.255235000047833,-1.1325089328824185,3.3087331146472576,2.3907726613395166,-0.6001297404683722,0.5955495646326815,-0.015401332047579121,-0.2328167806010987,0.004472026301948136,0.09176274,0.31060422,9.77137803,0.002598,0.000294,0.005298
842482.65227,7.275221999967471,-1.1315901792981373,3.310612441029935,2.390990064961871,-0.600379151090076,0.595433698246387,-0.015586706550182138,-0.23277681067282355,0.004461064325952746,0.10448631,0.31239945,9.76913154,0.002048,0.000328,0.003747
842482.672257,7.295209000003524,-1.1306842036025468,3.3124850233349674,2.3911807908533937,-0.600272680355694,0.5951998266254258,-0.01577166433538384,-0.23273649497471274,0.0044540519893843545,0.09624591,0.33141123,9.78320889,0.004416,0.000496,0.004008
842482.692244,7.3151960000395775,-1.129791155617041,3.3143314162596744,2.3913919672224875,-0.6004374747461143,0.5952618148963043,-0.01595576528127652,-0.23269640045781348,0.0044494417686030945,0.09205704,0.31045707,9.77572386,0.000594,-0.000178,0.004169
842482.712231,7.3351829999592155,-1.1289049885975242,3.3161766561935124,2.3915878186096506,-0.6006004830980496,0.5950841867051703,-0.016139208994515198,-0.23265538032692007,0.004456210139526429,0.10358379,0.31928607,9.7755669,0.003614,-0.000472,0.004955
842482.732218,7.355169999995269,-1.1280360432915886,3.318005205353065,2.3917513017793155,-0.6007056994944387,0.5950372932930438,-0.016322049631110877,-0.23261418775960624,0.004427797718704524,0.09595161,0.31718673,9.77692068,0.004536,-0.000738,0.002509
842482.752205,7.375157000031322,-1.1271861969091583,3.3198124992654865,2.3919521308379466,-0.600833722104855,0.5952183534132379,-0.016504018550641684,-0.23257358220534002,0.004417451709634955,0.0839736,0.30746502,9.79473564,0.001656,-5e-06,0.003741
842482.752205,7.375157000031322,-1.1152435637829141,3.310376611702135,2.392110789156419,-0.6020034589223066,0.6007666564172739,-0.016672340504733905,-0.23255868051934075,0.004407466264107188,0.0839736,0.30746502,9.79473564,0.001656,-5e-06,0.003741
842482.792179,7.415130999987014,-1.1264468515267676,3.3243759629544423,2.3922867242165182,-0.6009703158610123,0.5932569158797452,-0.01686029840568528,-0.23250357484534942,0.004384695351725708,0.08457201,0.3270654,9.76508982,0.001841,-0.000212,0.002855
842482.812166,7.435118000023067,-1.1256229727114866,3.3261704971292176,2.3924919817408625,-0.601015411143074,0.5937769668669299,-0.017045990341117756,-0.2324550798743737,0.004356236773483987,0.10747836,0.31569561,9.76508982,0.004979,0.000494,0.002434
842482.832152,7.455104000051506,-1.124814783503527,3.3279496017389487,2.392707051020558,-0.6009823390014011,0.5939814047425995,-0.01723009059165982,-0.23240963650177404,0.004353544802951681,0.09834525,0.32467176,9.79143948,0.004859,-0.000358,0.004203
842482.852139,7.475090999971144,-1.1240217768136445,3.3297075122784947,2.3928939546265973,-0.6010644443623391,0.5942209304509898,-0.017412751317007962,-0.23236598953187254,0.004324331498882556,0.0896634,0.31494024,9.79248915,0.001442,-0.000146,0.002346
842482.872126,7.495078000007197,-1.1232438817118435,3.3314568111053577,2.39310407452262,-0.6009651616769469,0.5942061789955511,-0.017594513681515253,-0.23232324990250938,0.0043290533740232996,0.08636724,0.32916474,9.77826465,0.00501,5.9e-05,0.004688
842482.892113,7.515065000043251,-1.1224666954484603,3.333193761696824,2.393299922495382,-0.6013614881657734,0.5942515381412821,-0.01777494424550216,-0.2322800154452817,0.0043312761388734,0.10193571,0.30536568,9.78919299,0.003297,-0.0005,0.004517
842482.932088,7.5550400000065565,-1.1333643642609053,3.346779684103641,2.393544072528151,-0.5995378731471248,0.5885894954682861,-0.017970120757872743,-0.23220553463887408,0.004324668267652563,0.08547453,0.3267711,9.77826465,0.005016,-0.001358,0.003913
842482.932088,7.5550400000065565,-1.1212014772962984,3.3371147898395632,2.393714369051372,-0.6003843339688484,0.5955339052277334,-0.01814778150164548,-0.23217691750851233,0.004318366299122744,0.08547453,0.3267711,9.77826465,0.005016,-0.001358,0.003913
842482.972062,7.595013999962248,-1.1320826273705358,3.3506502140479983,2.393973215124042,-0.5991836774643573,0.589013817915396,-0.018341663635975128,-0.23211145560978833,0.004326318949253644,0.08667135,0.32377905,9.77916717,0.003031,-0.00238,0.004904
842482.972062,7.595013999962248,-1.1199231468542037,3.340923730297085,2.3941300557669543,-0.6001552035256043,0.5955869808877626,-0.01851890077889466,-0.23208573521333337,0.0043341570465720404,0.08667135,0.32377905,9.77916717,0.003031,-0.00238,0.004904
842482.992049,7.615000999998301,-1.1191529400136253,3.3425408854471743,2.3942830184155435,-0.6008518179952873,0.5946953791796299,-0.018697075564423973,-0.23205189032659032,0.004334653312015359,0.09011466,0.30625839,9.77347737,0.004407,0.000631,0.004397
842483.012036,7.634988000034355,-1.1184028426510495,3.34415581918949,2.394445689353068,-0.6013146773990469,0.5939215785903657,-0.018875976802606782,-0.23201267153708838,0.004325255674435867,0.10537902,0.3179421,9.77946147,0.002697,0.001255,0.003705
842483.05201,7.674961999990046,-1.1293149523883623,3.357610566662669,2.394729855024236,-0.6002383980280285,0.5880989021868314,-0.01907002071523172,-0.23193871680498784,0.004346268938849348,0.09640287,0.31105548,9.76988691,0.004301,0.000346,0.005815
842483.05201,7.674961999990046,-1.1171666152413071,3.34784897752306,2.3948703961290203,-0.6010289775482651,0.5949180501857864,-0.01924731346465143,-0.23190903593271686,0.004366813515938154,0.09640287,0.31105548,9.76988691,0.004301,0.000346,0.005815
842483.091984,7.714936000062153,-1.1280848758791027,3.361262272802226,2.3950741807849107,-0.6001082729282216,0.5887816748063666,-0.019440552913667686,-0.2318424943247364,0.004364541145511286,0.08382645,0.30866184,9.77572386,0.003704,-0.001673,0.004242
842483.091984,7.714936000062153,-1.115939549771784,3.351449162813995,2.395205605650652,-0.6010079763811513,0.5952837465333956,-0.01961765966752582,-0.2318153174282067,0.0043624361873485385,0.08382645,0.30866184,9.77572386,0.003704,-0.001673,0.004242
842483.131958,7.754910000017844,-1.1268770867121405,3.3648303302284934,2.395454660258773,-0.5999344842559499,0.5883272771792417,-0.01981209270337394,-0.23174989642495047,0.004365699395759049,0.09265545,0.32572143,9.77737194,0.003405,-0.000999,0.004623
842483.131958,7.754910000017844,-1.1147472273040981,3.354977136049006,2.3956156368511046,-0.6008765500221659,0.5947741929196367,-0.019990456490861258,-0.2317229754011862,0.004368976245208036,0.09265545,0.32572143,9.77737194,0.003405,-0.000999,0.004623
842483.171932,7.7948839999735355,-1.1256861929838882,3.3683075294198495,2.3958257090517616,-0.5998616685987318,0.5880129706838498,-0.020186042399963314,-0.2316577123350747,0.00436208328526383,0.08861373,0.32182686,9.76793472,0.001217,-0.000307,0.003924
842483.171932,7.7948839999735355,-1.1135608940035249,3.358426923414991,2.3959761662306756,-0.6008296199789092,0.5944540191542427,-0.02036555724597929,-0.23163057057516592,0.004355484624529822,0.08861373,0.32182686,9.76793472,0.001217,-0.000307,0.003924
842483.211906,7.834858000045642,-1.1244946106149862,3.371702823672768,2.3962192749823803,-0.6005087788002405,0.5881705857561239,-0.020561114032185558,-0.2315648988211401,0.004357908528911256,0.09190989,0.29833191,9.79758054,0.002789,-0.000428,0.004557
842483.231893,7.85484499996528,-1.1234388109420455,3.3729068295222695,2.3964008598598365,-0.6001561843516396,0.5890411860842252,-0.020753442566824706,-0.23150970373508742,0.004356873248059942,0.09295956,0.32213097,9.77496849,0.001712,-0.00156,0.004315
842483.25188,7.874832000001334,-1.1223956515908668,3.3740850090838657,2.396568301500441,-0.6000491011692157,0.5894031117873066,-0.020943592945807575,-0.23145906259487636,0.004350873361384876,0.09400923,0.32302368,9.77916717,0.002919,0.002255,0.003968
842483.271867,7.894819000037387,-1.121364410301397,3.375239329121821,2.3967438951141427,-0.6000969573401742,0.5896777465060101,-0.021131973233016053,-0.23141072268901194,0.004356161427407667,0.08876088,0.3150972,9.78799617,0.003994,0.000273,0.004746
842483.271867,7.894819000037387,-1.1092643621973506,3.3652539517427953,2.396856564704203,-0.6012581923138874,0.5953038577683516,-0.021306297292217096,-0.2313890566036398,0.0043613780348428915,0.08876088,0.3150972,9.78799617,0.003994,0.000273,0.004746
842483.271867,7.894819000037387,-1.0974507694797822,3.355421145500206,2.3969410571830636,-0.6027255717001702,0.5994589558843563,-0.02147014251591481,-0.23137912380986975,0.004366490866336186,0.08876088,0.3150972,9.78799617,0.003994,0.000273,0.004746
842483.331828,7.954780000029132,-1.1204927039712909,3.3809390341342715,2.397135177877651,-0.6015028462222819,0.5859713907980346,-0.021672498656110057,-0.23129388347247462,0.00435280689667511,0.09550035,0.30565998,9.79517709,0.001541,0.001199,0.003449
842483.351815,7.97476699994877,-1.1194785563731384,3.382094607357425,2.3973286226209147,-0.6009948575555394,0.5878811783156791,-0.021869786463830473,-0.23123034293753264,0.004339741385409612,0.08861373,0.30326634,9.77916717,0.003398,-0.000247,0.003474
842483.371802,7.994753999984823,-1.118474656166558,3.3832235690396364,2.397497436639032,-0.6010263023371494,0.5888141586677984,-0.022063453418494763,-0.23117497354680216,0.004334470603412601,0.09714843,0.30192237,9.780815250000002,0.005148,-0.001841,0.004
842483.391789,8.014741000020877,-1.1174960166582861,3.3843268014830477,2.397677470513405,-0.6009719768118481,0.5890749338398713,-0.022255042324085976,-0.23112338683151445,0.004324528420970897,0.09759969,0.32093415,9.78185511,0.000596,0.000789,0.00367
842483.411776,8.03472800005693,-1.1165296943500183,3.3854055673376697,2.3978384596898605,-0.6010061756282982,0.5894467485533132,-0.022444763381355173,-0.23107407687492518,0.004307374706474397,0.08277678,0.30835773,9.7841016,0.004649,-0.001482,0.003156
842483.431763,8.054714999976568,-1.1155773000932125,3.386470605955618,2.3980063463366967,-0.6009925853531485,0.589728466581005,-0.022633064063670418,-0.23102631033696552,0.004306668005919481,0.07484049,0.31000581,9.7724277,0.002362,-0.000575,0.004284
842483.45175,8.074702000012621,-1.1146402384332745,3.387528182719149,2.3981898113128075,-0.6009895919620275,0.5896881885826507,-0.022820485883159946,-0.23097902015495358,0.004317278785150233,0.08337519,0.32003163,9.77632227,0.004639,0.001308,0.005073
842483.471737,8.094689000048675,-1.1137106083149173,3.3885711017785707,2.398362857328177,-0.6014319038223016,0.5898127553651109,-0.023006554162339845,-0.23093139898279458,0.004311082088353631,0.09295956,0.2948886,9.79143948,0.004745,-0.001275,0.003911
842483.491724,8.114675999968313,-1.1127974138282604,3.389618841156351,2.398522664237528,-0.6015397808328393,0.5896320028659198,-0.023191970439695026,-0.23088309338845134,0.00431132738085508,0.09504909,0.31838355,9.77632227,0.002659,-0.000132,0.004353
842483.511711,8.134663000004366,-1.1118958640614653,3.390661776511516,2.398670740302972,-0.6017391974514937,0.5895364801533374,-0.023376641074660698,-0.23083416779161822,0.004306842201515455,0.09700128,0.3122523,9.77482134,0.004042,-1.6e-05,0.004022
842483.531698,8.15465000004042,-1.111006483268158,3.3917047928005095,2.3988142084221877,-0.6020135586319968,0.5893588978291017,-0.023560605756017955,-0.2307841740891141,0.0043030170603818195,0.1070271,0.3125466,9.79053696,0.004087,-0.001468,0.004063
842483.551685,8.174636999960057,-1.1101464422665308,3.392739117797092,2.3989436387665792,-0.60180450710587,0.589273107586353,-0.023744340701323426,-0.23073475958001013,0.004274943309872885,0.08308089,0.32976315,9.77737194,0.001843,7.4e-05,0.002363
842483.571672,8.19462399999611,-1.109295897960128,3.393772269535379,2.399083865658083,-0.6018765326532638,0.589199881439562,-0.023927510727142644,-0.2306850923410452,0.004260203779602203,0.09236115,0.3198844799999999,9.76329459,0.004913,-0.001252,0.003267
842483.591659,8.214611000032164,-1.1084585458149436,3.3948063627942053,2.3992066056422496,-0.6019501807065892,0.5891745888989915,-0.02411006588718054,-0.2306351868667744,0.004241171470453845,0.09056592,0.31883481,9.78754491,0.001794,9.2e-05,0.00295
842483.611646,8.234597999951802,-1.1076364966943455,3.39583331819934,2.399346283179563,-0.6022409753478911,0.5892791538422699,-0.02429168792527566,-0.23058512332124256,0.004224962522543585,0.09310671,0.30506157,9.7894971,0.003395,-0.000692,0.003129
842483.65162,8.274572000023909,-1.1184995151760453,3.408613298318665,2.3995121782842004,-0.6005906902161967,0.5837654459233332,-0.024487724340532993,-0.23050366900035682,0.0042031594493462335,0.0865242,0.32213097,9.77692068,0.000878,0.000382,0.002746
842483.65162,8.274572000023909,-1.1062746972855464,3.398358486581735,2.399646581069547,-0.6013953932277383,0.5906099134724433,-0.02466684467159932,-0.23046742135730858,0.004182082120022453,0.0865242,0.32213097,9.77692068,0.000878,0.000382,0.002746
842483.671607,8.294559000059962,-1.1054708958682329,3.399355684163081,2.3997795006015643,-0.6020034941861213,0.5895765032867833,-0.024846729325977566,-0.23042363488649595,0.004172588420168473,0.10896948,0.320787,9.77362452,0.005348,0.00016,0.003538
842483.691594,8.3145459999796,-1.1046914072474407,3.400346666024696,2.3999452468939664,-0.6022893244962855,0.5890930964140946,-0.025026921250828088,-0.23037612435569974,0.004176780165388217,0.09714843,0.31928607,9.7929306,0.004527,-0.000101,0.00449
842483.711581,8.334533000015654,-1.1039303182785272,3.401340428902079,2.400115301179923,-0.6023610821065534,0.5888519243295793,-0.025207173279382288,-0.23032685765538075,0.0041904168997359435,0.08935929,0.32302368,9.8043102,0.003036,-0.000399,0.005157
842483.731568,8.354520000051707,-1.1031818805063651,3.4023396717173244,2.400251396274065,-0.6025379924588204,0.5886398575236049,-0.025387217140521244,-0.23027611992183283,0.004177709059886803,0.0984924,0.32063004,9.79413723,0.005358,0.000112,0.00332
842483.771542,8.394494000007398,-1.1141074028047775,3.4150898663662415,2.400477412108814,-0.6013796245904185,0.5829637209450927,-0.025581509134188,-0.23019155762269933,0.0041911790142092845,0.10343664,0.31629402,9.79533405,0.002765,-0.000329,0.005138
842483.791529,8.414481000043452,-1.1130179223160581,3.4158452433798234,2.400631047725243,-0.6009594895689142,0.5844349480539567,-0.025771057978290414,-0.23012435543918414,0.004169549731092632,0.10328949,0.31703958,9.77302611,0.005504,-0.000493,0.002715
842483.811516,8.43446799996309,-1.1119399476337088,3.4165706235527282,2.4007991049917212,-0.6008640163133412,0.5851754532565986,-0.025957362130679694,-0.23006432793948395,0.004183765641820263,0.1013373,0.31658832,9.78470001,0.002109,-0.000121,0.005179
842483.811516,8.43446799996309,-1.0997912847226319,3.4062312775229304,2.4008874638378863,-0.6019129691770231,0.5910709216735766,-0.026129180579737527,-0.2300342611849037,0.004197668556483332,0.1013373,0.31658832,9.78470001,0.002109,-0.000121,0.005179
842483.85149,8.474442000035197,-1.1107578112051226,3.418928924998045,2.401036049791699,-0.6009987592935759,0.584192326875528,-0.02631869262725938,-0.22996508185519776,0.0041895613175037495,0.08636724,0.32063004,9.76778757,0.003874,-0.000492,0.003658
842483.85149,8.474442000035197,-1.0986186847761379,3.4085883211954133,2.4011341966179174,-0.601927282662494,0.5904413419117449,-0.026493112224476707,-0.22993161747697133,0.004181773766847891,0.08636724,0.32063004,9.76778757,0.003874,-0.000492,0.003658
842483.891464,8.514415999990888,-1.1095885746770104,3.4212797517492652,2.401289590280654,-0.6010811558235849,0.5831466551207155,-0.026685366068693508,-0.22985750390633852,0.004175437614280016,0.1077726599999999,0.33095997,9.7724277,0.00644,-0.00143,0.003765
842483.891464,8.514415999990888,-1.0974589390033958,3.4109414015258843,2.4013855166215414,-0.6019640819038067,0.5896153038364929,-0.026862077314450335,-0.2298216948548225,0.004169377470708338,0.1077726599999999,0.33095997,9.7724277,0.00644,-0.00143,0.003765
842483.931437,8.55438900005538,-1.1084392244055605,3.4235795773513873,2.401559477752821,-0.6012848188304315,0.5833692520706767,-0.02705527289087251,-0.22974784943197268,0.004169423802366519,0.08981055,0.31000581,9.78829047,0.002124,-0.000361,0.004196
842483.931437,8.55438900005538,-1.0963191810893866,3.413222369173366,2.401656802125837,-0.6021901607306788,0.5898144918560054,-0.02723289746670886,-0.22971217747917977,0.004169569003389695,0.08981055,0.31000581,9.78829047,0.002124,-0.000361,0.004196
842483.971411,8.594363000011072,-1.1073083440229872,3.4258508798468728,2.4018430695139648,-0.6018187549005366,0.5836466313638656,-0.027426372868426998,-0.22963803217986495,0.004178874245741143,0.09355797,0.30117681,9.77482134,0.003082,2.1e-05,0.004839
842483.991398,8.614350000047125,-1.1062840683751687,3.426508994231396,2.4019882238306565,-0.6014775486469762,0.584520408965539,-0.027616738476259235,-0.22957433739116723,0.004202245913306234,0.09968922,0.32437746,9.77452704,0.004671,-0.00057,0.005824
842484.011385,8.634336999966763,-1.1052721484311214,3.427144244280558,2.40210007247188,-0.6014171548888138,0.5852216290822059,-0.027804600418454117,-0.22951588006814505,0.0042121497281381,0.08592579,0.3107513699999999,9.79173378,0.004186,1.7e-05,0.004909
842484.031372,8.654324000002816,-1.1042816376690816,3.4277630185801278,2.402208249241773,-0.6014744837055054,0.5854866076627226,-0.02799081212040909,-0.22945979949442694,0.004195101841954163,0.0925083,0.31614687,9.77437008,0.002343,-0.000363,0.003043
842484.031372,8.654324000002816,-1.0922008007106137,3.4173328062549877,2.4022835403031078,-0.6025925392693487,0.5910719902039967,-0.028163368645046673,-0.22943029915877722,0.004178598040778549,0.0925083,0.31614687,9.77437008,0.002343,-0.000363,0.003043
842484.051359,8.67431100003887,-1.0915712305188499,3.4181913681326135,2.4023544796175944,-0.6032584540336895,0.5895245140850323,-0.02833882368562483,-0.22939000537747584,0.004157634098374127,0.0928026,0.31868766,9.78620094,0.00588,-0.000777,0.002713
842484.091333,8.714284999994561,-1.102659560631177,3.4308141635752114,2.4025068142763644,-0.6022815139955894,0.5831880330528927,-0.028531039313985596,-0.22931226800394477,0.004165061470510711,0.09355797,0.31778514,9.77572386,0.001051,1.5e-05,0.004695
842484.11132,8.734272000030614,-1.1017107837092595,3.431456686970439,2.4026316910372385,-0.6020846984016626,0.5842675273352348,-0.028719917150075956,-0.22924648999017028,0.004160232561481431,0.10298538,0.31449879,9.79248915,0.005399,0.000518,0.003847
842484.131307,8.754258999950252,-1.100777689302313,3.432081488739734,2.4027351109201405,-0.6021034190098183,0.5850189963640734,-0.028906188529594704,-0.2291862725818566,0.004150496732388728,0.09116433,0.30775932,9.79038981,0.000396,0.000325,0.003498
842484.151294,8.774245999986306,-1.0998659310894998,3.4327019316230727,2.40285191893393,-0.6019959205282808,0.5851445661079846,-0.02909107816775811,-0.22912844100780258,0.00415163277423838,0.09640287,0.33006726,9.77257485,0.004558,0.001869,0.004247
842484.171281,8.79423300002236,-1.0989659219927865,3.4333158066225957,2.402953215956866,-0.6019598329189769,0.5852829568415907,-0.02927477454284555,-0.22907184512515946,0.004152641269902458,0.09056592,0.32467176,9.79697232,0.004143,-0.001164,0.004238
842484.191268,8.814220000058413,-1.0980814388679945,3.433920105959791,2.4030509371612236,-0.6021047713249346,0.5854315055074911,-0.029457326444658018,-0.22901590220898704,0.004138405190365659,0.09205704,0.31524435,9.77916717,0.00104,0.001575,0.003174
842484.211255,8.83420699997805,-1.0972032294383862,3.4345347471981347,2.4031341554642056,-0.6022646847582489,0.5854276478311699,-0.029638937348869767,-0.22895947262456345,0.004144046305336465,0.09954207,0.31898196,9.77572386,0.004495,-0.000208,0.004547
842484.231242,8.854194000014104,-1.096343977738748,3.435143056703057,2.403238439626694,-0.6024193872170913,0.5855357448624177,-0.029819666433165595,-0.22890327900543875,0.004158138085168846,0.09340101,0.31434183,9.77182929,0.00249,-0.000168,0.005145
842484.251229,8.874181000050157,-1.0955044422868798,3.435748097391198,2.4033527696767596,-0.6025987630769067,0.5856112282650169,-0.02999958739669183,-0.2288471954844598,0.004166408699457658,0.09430353,0.31374342,9.79233219,0.003505,0.000501,0.004753
842484.271216,8.894167999969795,-1.0946827121241474,3.436349948317711,2.4034796758810337,-0.6027848240905224,0.5858365806383993,-0.03017856682657417,-0.2287915324407745,0.004182119762705892,0.08607294,0.3070137599999999,9.78424875,0.005541,-0.000871,0.005283
842484.291203,8.914155000005849,-1.09387548581925,3.4369616794290034,2.403564648459831,-0.6029082848838007,0.5858699944639614,-0.030356863065288727,-0.22873564067313942,0.004172205767766068,0.09116433,0.31584276,9.768690090000002,0.00265,-0.001652,0.003502
842484.311191,8.934143000049517,-1.0930870377194988,3.437571346033715,2.403676464137929,-0.6031623569263014,0.5859522588322202,-0.030534346565718552,-0.22867965530664397,0.004170050115651605,0.09385227,0.30835773,9.77781339,0.002478,-0.002311,0.004037
842484.331178,8.954129999969155,-1.0923190584590838,3.4381835199305,2.4037529253059926,-0.6031746496092836,0.5860711819114001,-0.030711218034682457,-0.2286240349407144,0.004138854317857207,0.08143281,0.31629402,9.7433901,0.005162,-0.001636,0.001997
842484.351165,8.974117000005208,-1.0915640945446585,3.4387993364769307,2.4038653103167142,-0.6034029616938587,0.5861453391891307,-0.030887298951191022,-0.2285682363400622,0.004136451959476893,0.09086022,0.30895614,9.76809168,5.9e-05,-0.00112,0.003986
842484.391139,9.0140909999609,-1.1025111235861094,3.451104841294502,2.4040479187249915,-0.6018219756020371,0.5807262331698057,-0.0310773064027181,-0.22848149853634667,0.00414461312730302,0.08607294,0.32138541,9.752817510000002,0.001621,-8.6e-05,0.004722
842484.411126,9.034077999996953,-1.101416375543852,3.451478900459743,2.4041784474660624,-0.601268034355143,0.5820564823860095,-0.031262845597138364,-0.2284116716423262,0.004139620337800414,0.0925083,0.32662395,9.75731049,0.002052,0.00063,0.003816
842484.411126,9.034077999996953,-1.0892472238562037,3.4408409738987995,2.404248638882173,-0.6022806744743444,0.5881360611375777,-0.03143344259247407,-0.22837511681467068,0.004134854518106475,0.0925083,0.32662395,9.75731049,0.002052,0.00063,0.003816
842484.4511,9.074051999952644,-1.1001856572450173,3.4531190387062853,2.404392549667058,-0.6019693860124753,0.5814571596615243,-0.031620012294205614,-0.22829889187917904,0.00413150287957765,0.10119015,0.30880899,9.7986204,-0.000408,0.000623,0.003921
842484.4511,9.074051999952644,-1.0880161012060154,3.4424701680989083,2.4044714001743817,-0.602810360235657,0.587728764898935,-0.031791679583518646,-0.22825959817325078,0.0041283412106546125,0.10119015,0.30880899,9.7986204,-0.000408,0.000623,0.003921
842484.491074,9.11402600002475,-1.0989820096555958,3.454728150712308,2.4046689662922542,-0.6019455825066956,0.5811913719093394,-0.031979827054447615,-0.22818225825633412,0.004153536196831494,0.09160578,0.31808925,9.78485697,0.005865,-0.000834,0.005894
842484.491074,9.11402600002475,-1.086819529983915,3.4440735566423366,2.4047252272032615,-0.6027817248734432,0.5875097010405547,-0.032152982340404694,-0.22814238259932546,0.004178128467684462,0.09160578,0.31808925,9.78485697,0.005865,-0.000834,0.005894
842484.531048,9.153999999980442,-1.0977972916680303,3.456328729466381,2.4048671626610236,-0.601767557932911,0.5805529085075589,-0.03234330585473198,-0.22806355458899813,0.004184097742005546,0.10014048,0.33095997,9.78005988,0.004114,0.001362,0.004609
842484.531048,9.153999999980442,-1.0856473427949163,3.4456751281304903,2.404918772146509,-0.6026226936111552,0.5869596732941388,-0.032518391566353666,-0.22802275469464592,0.0041899989007683795,0.10014048,0.33095997,9.78005988,0.004114,0.001362,0.004609
842484.571022,9.193974000052549,-1.096635387299304,3.4578833036514376,2.4050450946643176,-0.6019755898495218,0.5808759623265384,-0.03270946920830246,-0.22794485820046076,0.004179590340105764,0.08712261,0.30866184,9.79353882,0.003722,-0.000281,0.003485
842484.571022,9.193974000052549,-1.0845005974363038,3.447209044432161,2.4051239595007656,-0.6028641710008453,0.5872242792755462,-0.03288536288949261,-0.227904536268505,0.004169568670358862,0.08712261,0.30866184,9.79353882,0.003722,-0.000281,0.003485
842484.610996,9.23394800000824,-1.0955048800383014,3.459422135069177,2.405215968705293,-0.6022304822579639,0.5808635387430883,-0.03307738414248506,-0.22782603119102576,0.004148545741695738,0.09340101,0.3129978599999999,9.77766624,0.001594,0.000228,0.002726
842484.630983,9.253935000044294,-1.0944770425800885,3.459708363706776,2.405339450467297,-0.6020977383774816,0.581912324600695,-0.033265972275693945,-0.22775797596161046,0.004154308429713511,0.09924777,0.31150674,9.7781175,0.00454,-0.000505,0.004564
842484.65097,9.273921999963932,-1.0934609590869184,3.4599829999428056,2.4054226020394367,-0.602252124933119,0.5824915546149158,-0.03345201187741764,-0.22769415286090916,0.004140288862829407,0.10223982,0.30730806,9.81733788,0.003899,-0.000597,0.003192
842484.65097,9.273921999963932,-1.0813519042762199,3.4492671837725406,2.405467254958916,-0.6032921237246092,0.5881835516322882,-0.03362437212934753,-0.2276584239088092,0.004126732094102634,0.10223982,0.30730806,9.81733788,0.003899,-0.000597,0.003192
842484.690944,9.313896000036038,-1.092413983489994,3.4614726796898765,2.4056133912605002,-0.6026404718931742,0.5816434909801883,-0.0338138879532115,-0.22758441961350936,0.004138148651799869,0.08292393,0.31150674,9.78470001,0.00483,-0.000879,0.004936
842484.690944,9.313896000036038,-1.080318347110423,3.450772619424156,2.405660382454265,-0.603536193970317,0.5877476579454287,-0.033988954620964885,-0.22754492497278136,0.00414933870088924,0.08292393,0.31150674,9.78470001,0.00483,-0.000879,0.004936
842484.730918,9.35386999999173,-1.0913891156914324,3.4629873291307454,2.405762506160549,-0.6030890517017014,0.5812509765985846,-0.034180366083943384,-0.2274664996793608,0.004145942475632726,0.09684432,0.30955455,9.77721498,0.003234,8.1e-05,0.003927
842484.750905,9.373857000027783,-1.0904239338598414,3.4632721151770194,2.405853088315377,-0.6027105551070436,0.5821626976181559,-0.03436898711315895,-0.22739828474473045,0.004150351943813065,0.09236115,0.32318064,9.79383312,0.004739,-0.001073,0.004465
842484.770893,9.393844999955036,-1.0894754545137877,3.463539885794045,2.405956306046405,-0.6028498102944501,0.5826928848723069,-0.03455528603836259,-0.22733437280619978,0.00415149801723781,0.10014048,0.30835773,9.780511140000002,0.002964,-0.001333,0.004243
842484.770893,9.393844999955036,-1.077419530365741,3.4528160632411184,2.406001553253253,-0.6038934648190379,0.5883373385379044,-0.03472803535573707,-0.2272981993183119,0.0041526864238200685,0.10014048,0.30835773,9.780511140000002,0.002964,-0.001333,0.004243
842484.810867,9.433819000027142,-1.0885545431601076,3.465038464796296,2.406089420753931,-0.6033038230009662,0.5812756260175901,-0.034918316245547615,-0.22722178579819113,0.00414345965039935,0.09834525,0.3204828899999999,9.79697232,0.00511,-0.0004,0.003523
842484.830854,9.453806000063196,-1.1045649874500496,3.500252374274218,2.4025349376247025,-0.6164085653545123,0.6007021191667653,-0.03505567105544703,-0.227327377777454,0.004142971629948047,0.10657584,0.31554846,9.77257485,0.001607,-0.000101,0.004023
842484.850841,9.473792999982834,-1.1202895710099465,3.535037459443286,2.3990965819674823,-0.6277078457961368,0.6170378634175757,-0.035163890991937244,-0.2274419084763024,0.004151221642550792,0.09759969,0.30806343,9.77063247,0.004647,4e-05,0.004638
842484.870828,9.493780000018887,-1.1357376376279877,3.569407466856363,2.395737172949259,-0.6370721538209102,0.6309065179820869,-0.035248583097028136,-0.22756144094567748,0.004130557256744434,0.08262963,0.31479309,9.7692885,0.003061,3.5e-05,0.002633
842484.890815,9.51376700005494,-1.1509057742918154,3.6033829966151205,2.3925231736271293,-0.6448627572786242,0.6423607640663668,-0.035314412155745906,-0.22768248215958514,0.004147851564352776,0.09714843,0.33215679,9.78829047,0.002117,0.001201,0.00527
842484.910802,9.533753999974579,-1.1657982571263448,3.636947861108631,2.3893953035101205,-0.6515745806873314,0.652517427880227,-0.03536422737335504,-0.22780412457789562,0.004125109431151767,0.09236115,0.30895614,9.79967007,0.004233,-0.00228,0.002496
842484.930789,9.553741000010632,-1.1804132838238022,3.6701246109063566,2.3863761122210736,-0.6571204583340401,0.6613734863041353,-0.03540070662366463,-0.22792531535234592,0.004122893276589187,0.09011466,0.30431601,9.78261048,0.003761,-0.002438,0.003913
842484.950776,9.573728000046685,-1.1947645913875602,3.7029164916973967,2.3834741390735257,-0.6614630600439997,0.6688649938086526,-0.03542660523389625,-0.22804574289171145,0.00412716324329341,0.09071307,0.3182364,9.78455286,0.002088,0.00011,0.004371
842484.99075,9.613702000002377,-1.2219793220336963,3.7491529409728668,2.380612589463615,-0.6643606431249456,0.6712449548903382,-0.035463844225353494,-0.2281342507811816,0.004130966709344248,0.08921214,0.31524435,9.79084107,0.001651,0.000736,0.004343
842485.010737,9.63368900003843,-1.2357085689684175,3.781419511139716,2.377801868952398,-0.667021039673252,0.6792414330582329,-0.03548737808546499,-0.22823930843576995,0.0041160853387487185,0.09100737,0.31644117,9.77467419,0.004338,-0.000416,0.003058
842485.030724,9.653675999958068,-1.249173979716998,3.8132646333471634,2.37514133141638,-0.669327867445637,0.6855065589694012,-0.03550070823739032,-0.2283511113981457,0.004125747565538402,0.0928026,0.31419468,9.7897914,0.003423,-0.002664,0.004748
842485.030724,9.653675999958068,-1.2497798934665647,3.831381261028079,2.3726266744121656,-0.6714942972386817,0.6953881666026416,-0.03549030390448058,-0.22849130315814048,0.004135037905795764,0.0928026,0.31419468,9.7897914,0.003423,-0.002664,0.004748
842485.070699,9.69365100003779,-1.276116108908996,3.876525476405604,2.370183938769772,-0.6726552730648279,0.6924866346906668,-0.03549344895596455,-0.2285927410299175,0.004129363516897341,0.10044459,0.31239945,9.76508982,0.004423,-0.001136,0.00372
