timestamp,x,y,theta,vx,vy,bias_accel_x,bias_accel_y,bias_angular_velocity,accel_x,accel_y,accel_z,gyro_x,gyro_y,gyro_z,cov_trace
1758011379.8745136,0.0,0.0,0.0,0.0,0.0,-0.09378657213861386,-0.15184347308910892,0.0042307524752475244,-0.10492776000000001,-0.16121754000000002,-9.81389457,0.004109,-0.000859,0.002688,3.13
1758011379.896845,-0.0009590566848675924,-4.453526329123295e-05,0.6028360181079124,-0.3859866676323304,-0.01632933269209383,-0.09372907055723229,-0.1518408029152736,0.0001800518754014495,-0.09894366,-0.15672456,-9.799071660000001,0.003009,0.000967,0.00373,0.9356976334258779
1758011379.9201636,-0.013404911177356673,0.0014125883702961932,0.919485533169266,-0.4524536289804366,0.05392642247113116,-0.0941027335592673,-0.15256562476126462,5.5903588329573444e-05,-0.09924777,-0.14893542,-9.79877736,0.003735,-0.002032,0.004041,0.5905436180952428
1758011379.9434023,-0.007928953004570034,0.003457362834219022,1.0840508119940147,-0.2704947455687604,0.13034476648168314,-0.09571348483056111,-0.15339453428264907,9.83336549589912e-06,-0.09011466,-0.15387966,-9.82646118,0.002518,-0.000753,0.003246,0.33830167466292044
1758011379.9647782,-0.010516606954000586,0.005256568511335933,1.3561690154958743,-0.28871469801109445,0.15992490554661673,-0.09712738381972717,-0.15482791327970707,-3.313474644890388e-05,-0.1013373,-0.13981212,-9.7954812,0.001402,3.8e-05,0.005137,0.28189235686588376
1758011379.9897616,-0.016310725091331885,0.012462707344420893,1.5036724246101016,-0.32960277808032806,0.27010768998580403,-0.10033010214991794,-0.15762764204790558,-5.554471348113769e-05,-0.08876088000000001,-0.14340258,-9.82241946,0.002282,1.6e-05,0.002066,0.22050791082106133
1758011380.0111206,-0.018647573359405423,0.016007209417678893,1.5583246356499956,-0.34768820341051554,0.3177457409635839,-0.1020495198542659,-0.15893738495260668,-6.231401134022471e-05,-0.0896634,-0.15088761,-9.81373761,0.00164,0.00037,0.00335,0.19996313919346048
1758011380.0331597,-0.02250697005887512,0.029510268033045274,1.6362745532932905,-0.26456298328127736,0.36871108427088695,-0.10454466243919898,-0.15724331744346703,-7.572378039414322e-05,-0.09849240000000001,-0.16390548000000002,-9.82257642,0.003325,0.000224,0.004596,0.18188015926918027
1758011380.053984,-0.02301153969349354,0.038058601145256804,1.6927832688770277,-0.23544353809330285,0.4164854690161977,-0.10698147238888424,-0.1567681981928538,-8.518971361135725e-05,-0.08457201,-0.16346403,-9.82556847,0.003541,0.000583,0.00305,0.16724061428201142
1758011380.0742128,-0.020230595052357563,0.037623836306655875,1.7379006340217868,-0.22376823470456148,0.45948150718280156,-0.10941233997536413,-0.15673756115157222,-9.263279349594554e-05,-0.08457201,-0.16346403,-9.82556847,0.003541,0.000583,0.00305,0.15177551091545424
1758011380.0985212,-0.02547048342037506,0.05392262468785869,1.8075050752435056,-0.23380845120138116,0.5387694349363518,-0.11427879875118213,-0.1572324968527183,-0.00010404150487691037,-0.09145863,-0.15552774,-9.81090252,0.004426,0.000989,0.004011,0.13511528158958533
1758011380.119283,-0.028803518732899155,0.06260777702239184,1.8350262308338339,-0.24531902945795112,0.5722103865274123,-0.11650581303210979,-0.15769639233306693,-0.00010742851146862772,-0.09894366,-0.14954364,-9.81898596,0.003459,-0.000541,0.003597,0.12905092264388576
1758011380.139567,-0.028803518732899155,0.06260777702239184,1.8350262308338339,-0.24531902945795112,0.5722103865274123,-0.11650581303210979,-0.15769639233306693,-0.00010742851146862772,-0.09894366,-0.14954364,-9.81898596,0.003459,-0.000541,0.003597,0.12905092264388576
1758011380.1654289,-0.03819724813820032,0.0846854966880199,1.8804829871196134,-0.27440222969595546,0.632666857686286,-0.12093698303735889,-0.15859763232982402,-0.00011339351297876849,-0.09205704,-0.15687171,-9.82152675,0.002414,-0.000438,0.00423,0.12001085855778636
1758011380.185844,-0.04090066097953785,0.09024457985976639,1.899189398442802,-0.2884112142867777,0.6562842556331441,-0.12283478032561623,-0.159140929777589,-0.00011457218791033271,-0.08262963000000001,-0.15163317,-9.8245188,0.002654,0.000474,0.005391,0.11499551204727365
1758011380.2063456,-0.04526607536252161,0.0992308919456981,1.9158504667060106,-0.30319946105246304,0.6780268810823352,-0.12461686520004912,-0.15966054816101216,-0.00011528309963564784,-0.09445068,-0.14474655,-9.821821049999999,0.002335,0.000472,0.004812,0.11153924608678577
1758011380.2269166,-0.04995935061878842,0.10857627226390627,1.9307615221265841,-0.31780591050575124,0.6974838132849177,-0.1262863556337874,-0.16014659631939177,-0.00011562225897057533,-0.08352234000000001,-0.14414814,-9.808351920000002,0.002597,0.002357,0.004176,0.10850876144910737
1758011380.2478573,-0.0558809770151513,0.12027112263804683,1.9442431741097188,-0.332755945192491,0.7154936610154448,-0.12786725984191405,-0.16057419405656678,-0.00011579307353779317,-0.08292393,-0.15507648,-9.800121330000001,0.003446,-0.00148,0.005361,0.1063156019816219
1758011380.268115,-0.0600390277023183,0.12779911078746053,1.9563834798763988,-0.34612101424607733,0.7313537663023033,-0.12930369680276893,-0.1609754155486184,-0.00011556084813729729,-0.09669717,-0.1651023,-9.803417490000001,0.002694,-0.000401,0.005084,0.1032672872907085
1758011380.2885668,-0.0665359705111714,0.14003684340127928,1.9674106087741023,-0.3597761401944196,0.7459927430395474,-0.1306496635390892,-0.16131171105882497,-0.000115241663065418,-0.08636724,-0.14849397,-9.822870720000001,0.002804,-0.000179,0.003778,0.10163866624360642
1758011380.3093076,-0.0705844070762316,0.1468872933235589,1.977428277237152,-0.3714436437991941,0.7585434970424142,-0.13185745414843786,-0.16162565515574387,-0.00011458197425803,-0.09086022,-0.15148602000000003,-9.80236782,0.002182,-0.000137,0.004844,0.09884289426665879
1758011380.3294456,-0.076121209663029,0.1566254443301676,1.986546428439362,-0.3829447879942825,0.7700073874005473,-0.13296034788237662,-0.16189367557633844,-0.00011377331164812057,-0.0925083,-0.13981212,-9.80820477,0.002271,-0.001868,0.002921,0.09702004996846623
1758011380.3497806,-0.08185241469784632,0.16657208295375645,1.9949259436614506,-0.39398138370677654,0.7803507291261627,-0.13396211578680567,-0.16211288943126362,-0.00011284860762975099,-0.09340101,-0.15103476000000002,-9.82062423,0.004181,-0.002226,0.003982,0.09536876520233503
1758011380.369933,-0.08770915978769608,0.17659459052979748,2.002606408495934,-0.4043102465488825,0.7896724752172949,-0.13486625938397953,-0.16228590503586543,-0.0001118257250761246,-0.09624591,-0.15133887000000001,-9.79817895,0.003356,-0.001028,0.00271,0.09384112214162188
1758011380.3905058,-0.09285787450737852,0.18507856572540582,2.0097184456877786,-0.41366031546017207,0.7980394959793049,-0.13567010824075953,-0.16242749585845445,-0.00011066476194827101,-0.10972485000000001,-0.15538058999999999,-9.826912440000001,0.001292,-0.001975,0.005161,0.09208672072279575
1758011380.410864,-0.09858523966765782,0.19457960498247942,2.0162562741650643,-0.4224797482163645,0.8051927514938002,-0.13638826340695584,-0.1625295803541806,-0.00010942555164058235,-0.08906499000000001,-0.14714019,-9.824822910000002,0.002553,0.000402,0.003278,0.09070638283676483
1758011380.4318523,-0.10446258151106123,0.2042541036175472,2.0223518770911753,-0.4307278479881351,0.811792975428013,-0.1370242898174158,-0.16259625319676071,-0.000108118515782127,-0.10164141000000002,-0.14864112000000002,-9.7929306,0.002182,-0.000982,0.005266,0.08945587126310692
1758011380.4522562,-0.10446258151106123,0.2042541036175472,2.0223518770911753,-0.4307278479881351,0.811792975428013,-0.1370242898174158,-0.16259625319676071,-0.000108118515782127,-0.10164141000000002,-0.14864112000000002,-9.7929306,0.002182,-0.000982,0.005266,0.08945587126310692
1758011380.4771771,-0.12308764114332646,0.2363881471562397,2.03350034046624,-0.4473352723088416,0.8241401925881353,-0.13809132713081584,-0.16243006711253505,-0.00010607439458322176,-0.09640287000000002,-0.15268284000000001,-9.7926363,0.005518,-0.000908,0.002922,0.0887775750935367
1758011380.5011187,-0.12740455386581226,0.24131638043509604,2.0428907846607736,-0.45714579866329214,0.8312018654818872,-0.1388610522041321,-0.1624363948174981,-0.00010285099036725039,-0.10852803000000001,-0.14789556,-9.80416305,0.004082,0.000669,0.002757,0.08376499843592265
1758011380.5237129,-0.1399945527407133,0.26420804996773106,2.0429065405086515,-0.46286783783000424,0.8328065304936145,-0.1388610522041321,-0.1624363948174981,-0.00010285099036725039,-0.10223982000000001,-0.15223158,-9.808499070000002,0.005281,0.000256,0.0047,0.0898274594142397
1758011380.544054,-0.13765554728229953,0.25715567339387224,2.051180319748422,-0.4677653498598684,0.8372961358073778,-0.1394161603071872,-0.1623191891138115,-9.958522588465528e-05,-0.10283823,-0.16375833,-9.83200383,0.003213,-0.000871,0.005038,0.08166962868292561
1758011380.5645804,-0.143200947535743,0.2657592396086954,2.0549329373272816,-0.4726377773301545,0.8395876557666827,-0.13963037070842735,-0.16224685312824297,-9.787318359127931e-05,-0.09190989000000001,-0.14714019,-9.79697232,0.00458,0.00061,0.004995,0.08104042852933821
1758011380.5854738,-0.14891097402257478,0.27462304063148496,2.0584497662213437,-0.4770142457234516,0.8416259569413752,-0.13980615348184827,-0.16215060956100086,-9.617006734092318e-05,-0.09325386000000001,-0.13950801,-9.82901178,0.002412,-0.001631,0.003875,0.08044482786993579
1758011380.605654,-0.15476481031284767,0.2837199008278711,2.0617839858497735,-0.4813209703324765,0.8435575760119439,-0.13994356190422,-0.1620300695206905,-9.448193551096727e-05,-0.10073889000000001,-0.15402681000000001,-9.811343970000001,0.003489,-0.001522,0.004475,0.07988596391200026
1758011380.62567,-0.1605029646086064,0.2925892141175238,2.0649335289970594,-0.4852433646055962,0.8450625676462447,-0.1400468912113118,-0.1618889917051507,-9.280540819232231e-05,-0.09265545000000001,-0.15552774,-9.80820477,0.004054,0.000768,0.004269,0.07927239115248987
1758011380.6465905,-0.1661675605231622,0.3013098838824383,2.067940559683473,-0.4889385118148966,0.8463435657574045,-0.14011844777667495,-0.1617295203699804,-9.113927359286421e-05,-0.09340101,-0.16286562,-9.823626090000001,0.003791,-0.000197,0.005543,0.07864399149542999
1758011380.6667042,-0.1719523009174873,0.3102110390468534,2.070763321731171,-0.4921201128059041,0.8474476718098756,-0.14016118159597998,-0.16155782022765994,-8.947873787025508e-05,-0.09609875999999999,-0.14818986,-9.799522920000001,0.003824,-0.000384,0.00405,0.07807653610492328
1758011380.6871257,-0.17932722968276912,0.321845601505704,2.0734768412254008,-0.49538309588643115,0.84853390745816,-0.14017141884053916,-0.16136146307836727,-8.785617117383427e-05,-0.09805095000000001,-0.13981212,-9.83634966,0.002453,0.001634,0.004922,0.07806896967032594
1758011380.70761,-0.18320836605270233,0.3274328711746097,2.0759997001611126,-0.49751804143773065,0.8490080105130057,-0.14016579968368503,-0.16117989855280437,-8.618883731273454e-05,-0.09564750000000001,-0.15507648,-9.80670384,0.003094,-0.001182,0.002945,0.07676799533679306
1758011380.7283747,-0.18916463588809743,0.3365835147147112,2.0784244754300616,-0.5001394374561654,0.8493953945472351,-0.14013877111461773,-0.16098325505555594,-8.454565711849458e-05,-0.08891784,-0.14789556,-9.80505576,0.00314,0.000559,0.004235,0.07636894304711614
1758011380.7488158,-0.18916463588809743,0.3365835147147112,2.0784244754300616,-0.5001394374561654,0.8493953945472351,-0.14013877111461773,-0.16098325505555594,-8.454565711849458e-05,-0.08891784,-0.14789556,-9.80505576,0.00314,0.000559,0.004235,0.07636894304711614
1758011380.7695007,-0.20930905572486813,0.37004920312120243,2.080946260079644,-0.5066261174118286,0.8511851247311716,-0.14001658309231096,-0.1606047289015407,-8.327017725895333e-05,-0.09700128,-0.14923953,-9.822272309999999,0.004319,-0.000317,0.005741,0.08067227934072592
1758011380.7903621,-0.20983950893313688,0.3689842690743961,2.085300236917428,-0.5062068929810335,0.8499303514334106,-0.13983559870198994,-0.16015744806388,-8.000728950271265e-05,-0.09295956000000001,-0.15163317,-9.836045550000001,0.003504,-0.000285,0.004312,0.0747282892594008
1758011380.8124554,-0.21026415064603737,0.3687104689926399,2.0872726974587437,-0.5067090849205261,0.8492948218349808,-0.139766874457663,-0.16000064007391662,-7.825877463925954e-05,-0.09744273000000002,-0.15672456,-9.80131815,0.005287,-0.000296,0.00527,0.07265207998374909
1758011380.832458,-0.2167682769119151,0.37870429795410554,2.0891846859204524,-0.5091756499367459,0.8491541373351859,-0.13968018134750468,-0.15980648904949937,-7.659714449238622e-05,-0.09415638000000001,-0.14923953,-9.82886463,0.003156,-0.001107,0.005086,0.07298145054214303
1758011380.8527985,-0.23110797455828072,0.4016830389133413,2.0910203461984267,-0.5147637329155654,0.8495787090069509,-0.13957953496394773,-0.15959449256733407,-7.498433686510168e-05,-0.07993188000000001,-0.1505835,-9.82257642,0.003992,0.000266,0.004145,0.07661626425598209
1758011380.8730612,-0.236653969795739,0.40998382276361256,2.0927623385614424,-0.5165084405144289,0.8492222633958109,-0.13947730787925242,-0.1593813442624196,-7.339029760538531e-05,-0.09100737,-0.14893542,-9.82766781,0.003363,-0.000607,0.004657,0.0765276445073644
1758011380.8936446,-0.24248157084369126,0.4187532314552296,2.094415797427147,-0.5183094591322451,0.8487858666798371,-0.13936537890218403,-0.1591544547158006,-7.183776067441028e-05,-0.08756406,-0.15567489,-9.79069392,0.004578,0.001016,0.00363,0.0764977257147314
1758011380.9181843,-0.2425497524292189,0.41728477035687106,2.0975625601027508,-0.5165127046351953,0.8473189529068728,-0.13911435468858796,-0.15867066862141616,-6.883761232903769e-05,-0.10358379000000001,-0.14550192,-9.83320065,0.003592,0.001028,0.004526,0.07138792972669655
1758011380.9384778,-0.24816150823403413,0.42575272655821333,2.0990397204831375,-0.517598109226851,0.8467222348463139,-0.138978859528005,-0.15842225297278173,-6.737525987224685e-05,-0.08696565,-0.14265702,-9.80206371,0.004358,0.000247,0.00407,0.07120999770729977
1758011380.958864,-0.2531273167834926,0.43315407262867667,2.1004841003740022,-0.5184962931486571,0.8461974902310722,-0.13883921777228242,-0.1581748757272455,-6.59283921227987e-05,-0.09564750000000001,-0.1474443,-9.81583695,0.002542,0.00111,0.005485,0.07080144205224392
1758011380.9799497,-0.2594954877358529,0.44287412700896256,2.101851560197228,-0.5200795830615751,0.84583459238298,-0.13868555445822747,-0.15790685948450175,-6.45378161895035e-05,-0.09968922,-0.16585766999999998,-9.80595828,0.003941,-0.001442,0.003814,0.07089030080813326
1758011381.0007896,-0.26408143531978384,0.44965550906251506,2.1031974277002945,-0.5205619107805657,0.845073626956622,-0.138533210894764,-0.1576479860689449,-6.314793017721307e-05,-0.08906499000000001,-0.14429529,-9.814787280000001,0.003998,0.000337,0.005739,0.07032098036142426
1758011381.0210032,-0.2688473244341052,0.4567362105665322,2.104479617310007,-0.5212235447900271,0.8442407308353553,-0.138381097210703,-0.1573897014442614,-6.177709970935404e-05,-0.08517042000000001,-0.15074046,-9.81254079,0.003021,0.000202,0.005083,0.06988981291140395
1758011381.0413654,-0.2688473244341052,0.4567362105665322,2.104479617310007,-0.5212235447900271,0.8442407308353553,-0.138381097210703,-0.1573897014442614,-6.177709970935404e-05,-0.08517042000000001,-0.15074046,-9.81254079,0.003021,0.000202,0.005083,0.06988981291140395
1758011381.0617983,-0.2688473244341052,0.4567362105665322,2.104479617310007,-0.5212235447900271,0.8442407308353553,-0.138381097210703,-0.1573897014442614,-6.177709970935404e-05,-0.08517042000000001,-0.15074046,-9.81254079,0.003021,0.000202,0.005083,0.06988981291140395
1758011381.0837615,-0.2905529041973037,0.49100464038183,2.1070459810960767,-0.5242125737700126,0.8434406359305171,-0.13790992832071344,-0.1566172458654499,-5.949045653911211e-05,-0.10073889000000001,-0.15358536,-9.82212516,0.00363,0.00017,0.005753,0.07180685490224836
1758011381.1040342,-0.2898550931461313,0.4885592995411255,2.1092392012137458,-0.5219038837782337,0.8407208627148354,-0.13760522748981985,-0.1561668654737386,-5.669148190750689e-05,-0.09190989000000001,-0.14190165000000002,-9.82332198,0.002932,0.000263,0.004319,0.06740021105921708
1758011381.124216,-0.2933898856373926,0.4936206144424414,2.110257220070772,-0.5224915335003417,0.8399030213183448,-0.13747366124939656,-0.15595442492977865,-5.53306065645047e-05,-0.10104300000000001,-0.14983794,-9.82078119,0.004376,-0.00084,0.0038,0.0670671429234426
1758011381.144291,-0.2984697748391782,0.5011897133657043,2.111253922401624,-0.5234332813755906,0.8392569117801729,-0.13733771465244007,-0.1557227855996051,-5.4035848919807626e-05,-0.10014048,-0.14833701000000002,-9.815238540000001,0.003224,-0.001677,0.0042,0.0672398540023269
1758011381.1643233,-0.3041657842069454,0.5097696743098293,2.112265257064795,-0.5246206327421661,0.8385105080817524,-0.13719461316475076,-0.15546617296832183,-5.281030636526457e-05,-0.09056592000000001,-0.16226721000000002,-9.8245188,0.002871,-0.000796,0.006047,0.0675127311495288
1758011381.1848266,-0.32034241590869544,0.5356250730889167,2.112277623648227,-0.5307797625114562,0.8397710402284148,-0.13719461316475076,-0.15546617296832183,-5.281030636526457e-05,-0.09714843000000001,-0.14759145,-9.80206371,0.003018,-0.001607,0.004579,0.07434149188395012
1758011381.2052975,-0.3143796573261195,0.5250717673521579,2.1141514697638,-0.5252151358025039,0.8370990693812496,-0.13687401776922367,-0.15489865854341114,-5.050851231671138e-05,-0.09669717,-0.14909238,-9.82078119,0.002614,-0.000345,0.003891,0.06703767735412045
1758011381.2254486,-0.3181457834520219,0.5305428018732432,2.115003177592177,-0.5255185169716109,0.8363625983707514,-0.1367345132392889,-0.15464890810639093,-4.933900908926759e-05,-0.10073889000000001,-0.15522363,-9.815689800000001,0.003806,-0.000453,0.003062,0.06662113869856301
1758011381.2463086,-0.32526061947500035,0.5413941770019042,2.115866510465569,-0.5267291773206544,0.8359042449413102,-0.1365794129857441,-0.1543682599772035,-4.8246456754861654e-05,-0.10059174,-0.15373251000000002,-9.81494424,0.003471,-0.001313,0.004369,0.06733562019182704
1758011381.2665842,-0.32796368577376545,0.5451823582558815,2.116682719849358,-0.5264349955589698,0.8349285206950104,-0.1364375351485252,-0.15410762101527617,-4.714381780946074e-05,-0.09026181000000001,-0.15328125,-9.808803180000002,0.003496,0.000237,0.004017,0.06642637007436686
1758011381.2867768,-0.3351983920388751,0.5562197763941453,2.117481814908725,-0.5274603901358152,0.8343641945202775,-0.1362810404483991,-0.15381775722094682,-4.611407362636564e-05,-0.0953532,-0.14969079000000002,-9.817485030000002,0.004661,-0.001059,0.00382,0.06714898369157905
1758011381.3072672,-0.33745493434170337,0.5593089093992044,2.1182478010958885,-0.5268943554367318,0.833458190538911,-0.13614033058940803,-0.1535565252612278,-4.5057223779722115e-05,-0.09729558,-0.14833701000000002,-9.816582510000002,0.003868,-0.000873,0.004144,0.06607472053914257
1758011381.3281744,-0.34217308135511953,0.5663189642730632,2.118999654625318,-0.5270799617699718,0.8326805676801354,-0.1360004452382971,-0.15329229729258562,-4.402946519230477e-05,-0.09340101,-0.14115609,-9.82676529,0.00471,0.00083,0.004628,0.06600310564736035
1758011381.3485627,-0.34217308135511953,0.5663189642730632,2.118999654625318,-0.5270799617699718,0.8326805676801354,-0.1360004452382971,-0.15329229729258562,-4.402946519230477e-05,-0.09340101,-0.14115609,-9.82676529,0.00471,0.00083,0.004628,0.06600310564736035
1758011381.3689232,-0.361860024357405,0.5972739057820752,2.1197944829671496,-0.5313465619039309,0.832850929783974,-0.13576947591250252,-0.1528642600881657,-4.330234705129168e-05,-0.09400923,-0.15478218000000002,-9.820928340000002,0.004117,-0.000305,0.003939,0.07065701079912842
1758011381.3900914,-0.36034037469492997,0.5940336427617674,2.1212025384382294,-0.5272643598388014,0.8302210112425604,-0.13544746392672655,-0.15229936015015635,-4.1332423238082375e-05,-0.1041822,-0.15358536,-9.83738952,0.002827,-0.001467,0.005378,0.06557612097605936
1758011381.4107687,-0.36110661366491387,0.594780356777074,2.1218288277623767,-0.5265360222199097,0.8290265684094277,-0.13533057152788372,-0.15207071481154905,-4.0304587548162195e-05,-0.09325386000000001,-0.1474443,-9.80101404,0.00382,-0.000421,0.004028,0.06431375801175442
1758011381.4316804,-0.364956049218021,0.6004123896756944,2.1224446452598986,-0.5268113487648138,0.8281755693450558,-0.1352177185627507,-0.15183173173959197,-3.932853929289393e-05,-0.09325386000000001,-0.1474443,-9.80101404,0.00382,-0.000421,0.004028,0.06427794285641134
1758011381.4527802,-0.3800669232293343,0.6237611367840452,2.1230179195416845,-0.5311388211248771,0.8282616885102908,-0.13509010118258227,-0.15155722559671514,-3.844066247678131e-05,-0.09011466,-0.14998509000000002,-9.79562835,0.003655,-0.000512,0.002776,0.0686398913402036
1758011381.4778054,-0.3786014678820614,0.6206842946331341,2.124210008363761,-0.5280152405139238,0.8263728717342951,-0.13485953591805122,-0.15103299670425327,-3.669499123459398e-05,-0.10657584,-0.16016787000000002,-9.83798793,0.00317,-6.8e-05,0.005617,0.06441684780932055
1758011381.4981587,-0.3832940259223784,0.6276757992702444,2.1247896572520535,-0.5283251525442256,0.8255539525214609,-0.13474287834094378,-0.15075719152091768,-3.5877150616446855e-05,-0.08576883000000002,-0.15507648,-9.796226760000001,0.00378,0.001294,0.005154,0.06448419876228398
1758011381.5186036,-0.3832940259223784,0.6276757992702444,2.1247896572520535,-0.5283251525442256,0.8255539525214609,-0.13474287834094378,-0.15075719152091768,-3.5877150616446855e-05,-0.08576883000000002,-0.15507648,-9.796226760000001,0.00378,0.001294,0.005154,0.06448419876228398
1758011381.5394511,-0.39220791508816605,0.6409835323977049,2.125909455372959,-0.5281577832496527,0.8239412461924853,-0.13448754354872883,-0.15016002879788765,-3.43600364746081e-05,-0.08427771,-0.16151184,-9.815238540000001,0.003228,0.000183,0.004537,0.06400250789624634
1758011381.5599186,-0.3962429894068263,0.6469341252182986,2.1264039337970004,-0.5280780519247551,0.8234024452871583,-0.13437969453913082,-0.14989494970076525,-3.357221885941764e-05,-0.10298538000000002,-0.14190165000000002,-9.796079610000001,0.004783,-0.002165,0.003596,0.06390806892925416
1758011381.5818923,-0.40281526460002026,0.6568967327762991,2.1269026567694773,-0.5288397681477753,0.8227097897022271,-0.13426122925118725,-0.1496017212999928,-3.285350621532353e-05,-0.0865242,-0.15358536,-9.84083283,0.003133,0.00068,0.003967,0.06462357552795503
1758011381.6019394,-0.40496690043721484,0.6599221254195045,2.1273828918780797,-0.5284082027690811,0.8218706608372162,-0.13415612008926017,-0.14932779032184262,-3.211899334820985e-05,-0.09131148000000001,-0.16884972000000004,-9.787692060000001,0.005033,0.001159,0.004255,0.06374090182638274
1758011381.622717,-0.40921713960590167,0.6662294170682871,2.1278501626504216,-0.528476880116441,0.8212294261347473,-0.13405197562992538,-0.1490506632173203,-3.1409588247641946e-05,-0.09340101,-0.15268284000000001,-9.8387433,0.002488,-7.2e-05,0.004235,0.06371061699473199
1758011381.643184,-0.40921713960590167,0.6662294170682871,2.1278501626504216,-0.528476880116441,0.8212294261347473,-0.13405197562992538,-0.1490506632173203,-3.1409588247641946e-05,-0.09340101,-0.15268284000000001,-9.8387433,0.002488,-7.2e-05,0.004235,0.06371061699473199
1758011381.6634455,-0.40921713960590167,0.6662294170682871,2.1278501626504216,-0.528476880116441,0.8212294261347473,-0.13405197562992538,-0.1490506632173203,-3.1409588247641946e-05,-0.09340101,-0.15268284000000001,-9.8387433,0.002488,-7.2e-05,0.004235,0.06371061699473199
1758011381.6838572,-0.40921713960590167,0.6662294170682871,2.1278501626504216,-0.528476880116441,0.8212294261347473,-0.13405197562992538,-0.1490506632173203,-3.1409588247641946e-05,-0.09340101,-0.15268284000000001,-9.8387433,0.002488,-7.2e-05,0.004235,0.06371061699473199
1758011381.704283,-0.40921713960590167,0.6662294170682871,2.1278501626504216,-0.528476880116441,0.8212294261347473,-0.13405197562992538,-0.1490506632173203,-3.1409588247641946e-05,-0.09340101,-0.15268284000000001,-9.8387433,0.002488,-7.2e-05,0.004235,0.06371061699473199
1758011381.7250714,-0.4506577885137511,0.73139308059577,2.1290044508021566,-0.5320989805223084,0.8201413725624793,-0.13346876410738737,-0.14788356878804443,-3.100975886413111e-05,-0.10492776000000001,-0.15402681000000001,-9.80820477,0.003411,-0.000328,0.004962,0.07095997048924295
1758011381.7468534,-0.44702889168259596,0.7252901897821847,2.1298637634609348,-0.5265853902597802,0.8163519082061267,-0.13320075929384018,-0.14729922608720802,-2.9448718672411953e-05,-0.10238697000000001,-0.15373251000000002,-9.80385894,0.001983,0.001242,0.003416,0.06509904603975186
1758011381.7736237,-0.4424621975098189,0.7171281977407803,2.130950177600546,-0.5229418844241499,0.8123475080219899,-0.13311486986828142,-0.14668868578159236,-2.6991096016335117e-05,-0.08726976,-0.15492933000000003,-9.82646118,0.003529,-0.002363,0.005388,0.06026838011438076
1758011381.7941675,-0.44956767129066993,0.7277849404159952,2.131256941955715,-0.5255138475181712,0.8121265392451159,-0.13313860938334118,-0.14651258913507467,-2.6221156561905162e-05,-0.10028763,-0.15717582000000002,-9.80565417,0.003063,-0.001286,0.003814,0.06272124448230493
1758011381.817295,-0.44624544701552216,0.721937472960587,2.1318889138511397,-0.5235388049044564,0.8107727883954678,-0.13319581186593618,-0.1461102549223867,-2.4867303187976797e-05,-0.09504909,-0.1505835,-9.836948070000002,0.002078,-0.000585,0.004495,0.05980717616673831
1758011381.8376732,-0.4505434208532302,0.7283012477022608,2.1321660388423567,-0.5242738288168706,0.8102151439145656,-0.13322235448977618,-0.1458735647041227,-2.428869840888809e-05,-0.07095573000000001,-0.14610033,-9.80521272,0.003941,-0.000898,0.002325,0.060503562060079556
1758011381.8617828,-0.4565384746185718,0.7373155388809817,2.1325192635710337,-0.525151044136032,0.8099810141891046,-0.13323824309346508,-0.1456074973386125,-2.3773843998410332e-05,-0.08053028999999999,-0.14130324,-9.815689800000001,0.002679,0.000428,0.005621,0.06156542525766472
1758011381.8822317,-0.4602194889090971,0.7427415717264918,2.132844305669103,-0.5254169127582012,0.809872997891952,-0.1332508662619651,-0.14533982052934052,-2.327406054608539e-05,-0.09385227000000002,-0.15358536,-9.82886463,0.003001,-0.000401,0.004906,0.061624773812164954
1758011381.9027083,-0.46224719998781866,0.7455942340113523,2.1331416249740016,-0.5251710399659792,0.8099657728483998,-0.13326582531457418,-0.14508922768614338,-2.2758426322027053e-05,-0.11735703,-0.14893542,-9.78844743,0.003892,-0.000755,0.004286,0.06112368084777054
1758011381.9236574,-0.4661656546913942,0.7513945000738922,2.1334558547028992,-0.5255424687763393,0.8098968938937307,-0.13327562740560572,-0.14483238873635673,-2.226721249098627e-05,-0.09939492000000001,-0.15088761,-9.84218661,0.003027,-0.00056,0.005404,0.06133109172042812
1758011381.9439702,-0.4661656546913942,0.7513945000738922,2.1334558547028992,-0.5255424687763393,0.8098968938937307,-0.13327562740560572,-0.14483238873635673,-2.226721249098627e-05,-0.09939492000000001,-0.15088761,-9.84218661,0.003027,-0.00056,0.005404,0.06133109172042812
1758011381.964318,-0.4661656546913942,0.7513945000738922,2.1334558547028992,-0.5255424687763393,0.8098968938937307,-0.13327562740560572,-0.14483238873635673,-2.226721249098627e-05,-0.09939492000000001,-0.15088761,-9.84218661,0.003027,-0.00056,0.005404,0.06133109172042812
1758011381.9889069,-0.4957592937429676,0.7972952649230631,2.133878460541565,-0.5316043045318168,0.811467124077983,-0.13314345783775214,-0.14432897020817068,-2.2223778501788093e-05,-0.09805095000000001,-0.14519781,-9.79727643,0.002821,-0.001315,0.004592,0.06953011862849319
1758011382.0098624,-0.4919710854876695,0.7911863389083428,2.1344762807539004,-0.5260392133066022,0.8089845745791477,-0.1330391282837314,-0.14370883953381464,-2.133078901900131e-05,-0.10269108,-0.14369688,-9.81688662,0.003832,0.000441,0.00399,0.06343013387673536
1758011382.0301244,-0.488652089873094,0.7855480024793514,2.1349504543627464,-0.523325901689828,0.8068998370628884,-0.1330771598086717,-0.1432805461317046,-2.018955573860932e-05,-0.09684432000000001,-0.15447807000000002,-9.82241946,0.003353,-0.000271,0.003577,0.05994613175971774
1758011382.0520062,-0.4974524956442526,0.798833300120002,2.1351537734427772,-0.5261752696200116,0.8067689150805245,-0.13313179356985222,-0.14309497958139542,-1.9622612081997384e-05,-0.09400923,-0.1474443,-9.822272309999999,0.003974,4.7e-05,0.004474,0.06303387720929389
1758011382.07433,-0.5024603060398123,0.8062812685093559,2.1353646384259246,-0.5275509571615304,0.8067014630222399,-0.13318410785522453,-0.14288633325434844,-1.9122440469370593e-05,-0.10104300000000001,-0.15358536,-9.813139200000002,0.0033,0.000785,0.00396,0.06428601366059611
1758011382.0972364,-0.49824051490144816,0.7993503730624426,2.135813202795328,-0.5244436722675276,0.8053665432414026,-0.1332692922688659,-0.1424086350764585,-1.8284544213555977e-05,-0.09071307,-0.16270866,-9.82107549,0.0032,-0.001217,0.004657,0.06017058553221065
1758011382.1174464,-0.5019227703292595,0.804797528710114,2.1360112056576277,-0.5246200869231292,0.8054370518245463,-0.13330762078392946,-0.14216342133115653,-1.7899620896302792e-05,-0.10882233000000001,-0.14160735,-9.81808344,0.0042,-0.000568,0.003354,0.06043834607178157
1758011382.138273,-0.505522038610072,0.8101348698834814,2.136244649885481,-0.5247861777632645,0.8050698067117114,-0.13334406142997904,-0.14191208201020342,-1.7536587658602494e-05,-0.0865242,-0.14759145,-9.80670384,0.002566,-0.001336,0.005311,0.060602583415772515
1758011382.1591904,-0.509038508911307,0.8153552952856109,2.1364489192839677,-0.525154230111364,0.8048954086663128,-0.13337630665871586,-0.1416541635503402,-1.7196497396209455e-05,-0.09729558,-0.16390548000000002,-9.81898596,0.003292,0.000156,0.003987,0.06069537560315989
1758011382.1792982,-0.5126701548703332,0.8207458756674227,2.1366819847457226,-0.5251273426494507,0.8047928231513426,-0.1334051031321465,-0.14139770673327504,-1.6861450911131404e-05,-0.10193571,-0.14265702,-9.80865603,0.004908,-0.000784,0.005735,0.060793873116089976
1758011382.2003603,-0.5162299251852599,0.8260377635758819,2.1369033387204057,-0.5251736832248403,0.8045197255559321,-0.1334314408679621,-0.1411402569358655,-1.65362623706307e-05,-0.09504909,-0.14954364,-9.80895033,0.001928,0.000225,0.005422,0.060842245426090416
1758011382.221374,-0.5197293319820234,0.8312341250769141,2.137084820416737,-0.5250058413335722,0.8043015797749269,-0.13345601271489435,-0.14088607137950457,-1.6214735626553898e-05,-0.09968922,-0.13905675,-9.81344331,0.00338,-0.000807,0.00371,0.06085509179329447
1758011382.2417743,-0.5197293319820234,0.8312341250769141,2.137084820416737,-0.5250058413335722,0.8043015797749269,-0.13345601271489435,-0.14088607137950457,-1.6214735626553898e-05,-0.09968922,-0.13905675,-9.81344331,0.00338,-0.000807,0.00371,0.06085509179329447
1758011382.2691584,-0.5392157155847019,0.861241932197465,2.137356409713534,-0.5286286790821259,0.8044431977414115,-0.13339846350075477,-0.1404861504009787,-1.617188651895193e-05,-0.0836793,-0.14714019,-9.808499070000002,0.002464,8.2e-05,0.004645,0.06592797736428542
1758011382.2903821,-0.5350961893436781,0.8546673329744072,2.1377280158826792,-0.5240434240271977,0.8023979570387524,-0.13340867571772166,-0.1399517892447149,-1.5536275232057802e-05,-0.10373094000000001,-0.14400099,-9.82511721,0.002999,-0.000241,0.004553,0.060895092151791334
1758011382.3120785,-0.5430872624879649,0.8667164901901557,2.1378330027180255,-0.5261625013498877,0.8022708905327081,-0.13345837732421248,-0.13974295831155964,-1.513619833698473e-05,-0.10373094000000001,-0.14969079000000002,-9.81344331,0.003141,-0.000422,0.002257,0.0633781431526661
1758011382.3371096,-0.539231316088087,0.8604731247836561,2.1381468974345115,-0.5233414536001552,0.8006810668170246,-0.1335595393968433,-0.13929228165012647,-1.446015459547139e-05,-0.09176274,-0.16375833,-9.816739470000002,0.002098,-0.000647,0.00469,0.05969541440437601
1758011382.3581336,-0.5431437152236078,0.8663225790034474,2.1383377763516807,-0.5236236043215429,0.8002264304793953,-0.13360646412399668,-0.13904516206441805,-1.4181104594566723e-05,-0.08412075,-0.14983794,-9.80550702,0.003312,-0.000902,0.005965,0.060103440819198516
1758011382.3783689,-0.5458311218949828,0.870289332559987,2.138501252525824,-0.5235587965885407,0.799795735855539,-0.13365547436926054,-0.13879749164587124,-1.3912294854272966e-05,-0.08756406,-0.15462522000000004,-9.83290635,0.003997,-0.001716,0.004951,0.060007141713238864
1758011382.398866,-0.5494006003598363,0.8756127518038929,2.1386522941608668,-0.5236918337180737,0.7996826577953431,-0.1337004472559136,-0.1385452171775605,-1.3660990399275413e-05,-0.10104300000000001,-0.15178032,-9.80581113,0.003021,0.000672,0.004365,0.06020889448232543
1758011382.4191437,-0.5523319081003458,0.8799616004423801,2.1388068654028647,-0.5236626648290256,0.79943360473638,-0.13374496972475014,-0.1382936844292696,-1.3415553075653605e-05,-0.09744273000000002,-0.15567489,-9.82631403,0.003719,-0.002333,0.004778,0.06015116500600983
1758011382.4398024,-0.5569724416776494,0.8869423588799998,2.1389475607577513,-0.523995175728992,0.7994908464088808,-0.13377939461830948,-0.13803216779923413,-1.319635637988372e-05,-0.1070271,-0.15103476000000002,-9.811049670000001,0.004082,-0.000102,0.004034,0.060655937433548454
1758011382.4605513,-0.5569724416776494,0.8869423588799998,2.1389475607577513,-0.523995175728992,0.7994908464088808,-0.13377939461830948,-0.13803216779923413,-1.319635637988372e-05,-0.1070271,-0.15103476000000002,-9.811049670000001,0.004082,-0.000102,0.004034,0.060655937433548454
1758011382.4808853,-0.563024828247532,0.8960182745475521,2.139251142226998,-0.5231478316779087,0.7984086984622614,-0.13383144089165833,-0.13748561809319562,-1.280647349470654e-05,-0.09968922,-0.14055768000000002,-9.83065986,0.001879,-0.000526,0.00394,0.0600666824297284
1758011382.5013413,-0.5647197421935178,0.8984684021876492,2.139377406799589,-0.5226115534709284,0.7979803243981398,-0.13388031927157976,-0.13725329255426108,-1.2542880446092709e-05,-0.0981981,-0.1417545,-9.814787280000001,0.003646,-0.001187,0.004504,0.059660726051105895
1758011382.5222008,-0.5677864245206048,0.9030231569400454,2.139501815279546,-0.5223742764142351,0.797720398517055,-0.13392935995328664,-0.13702101358803748,-1.2290370767356063e-05,-0.10044459,-0.13337676,-9.828266220000001,0.003646,-0.001187,0.004504,0.0597757846462446
1758011382.5425408,-0.5677864245206048,0.9030231569400454,2.139501815279546,-0.5223742764142351,0.797720398517055,-0.13392935995328664,-0.13702101358803748,-1.2290370767356063e-05,-0.10044459,-0.13337676,-9.828266220000001,0.003646,-0.001187,0.004504,0.0597757846462446
1758011382.5640812,-0.5949988564935093,0.9445793993857006,2.1395731075427102,-0.5318444171185498,0.799537779338186,-0.13392935995328664,-0.13702101358803748,-1.2290370767356063e-05,-0.08935929000000001,-0.14624748,-9.814787280000001,0.004477,-0.000606,0.005587,0.07136540859042252
1758011382.5885105,-0.5818971645904869,0.9245617559322615,2.1399700367404932,-0.5214414196879221,0.7959995296342389,-0.133958552204214,-0.13615456425739758,-1.182221339327113e-05,-0.09894366,-0.15074046,-9.82766781,0.003592,-0.00042,0.003067,0.059976780389852026
1758011382.6089382,-0.5820304200929824,0.9204553549187715,2.1405790399846127,-0.520968623416314,0.7950886579888432,-0.13406092736258962,-0.13594132510795676,-1.1648213885623459e-05,-0.09056592000000001,-0.15538058999999999,-9.8128449,0.003197,-7.6e-05,0.003962,0.05834223108761828
1758011382.6298015,-0.5875876664080611,0.9247297309213103,2.1411961558151944,-0.5222079138163769,0.7948225830338372,-0.13415770383341616,-0.13570559885278166,-1.1498200927564023e-05,-0.09894366,-0.15478218000000002,-9.829610190000002,0.002735,0.000798,0.005114,0.058828388883500754
1758011382.6504383,-0.5926194195397382,0.9282493373662053,2.1417849263803523,-0.5228534150505321,0.7942764372260371,-0.13425413370351488,-0.13545754115987252,-1.1350020623851185e-05,-0.08921214,-0.16136469,-9.811500930000001,0.004419,0.001628,0.005939,0.05900859773939642
1758011382.670453,-0.5975361863706737,0.9316537343997512,2.1423825951434132,-0.5236952682914655,0.7939127426107303,-0.13434796013220918,-0.1351976842014224,-1.120062758615478e-05,-0.08921214,-0.16136469,-9.811500930000001,0.004419,0.001628,0.005939,0.05910210230031125
1758011382.6909082,-0.5975361863706737,0.9316537343997512,2.1423825951434132,-0.5236952682914655,0.7939127426107303,-0.13434796013220918,-0.1351976842014224,-1.120062758615478e-05,-0.08921214,-0.16136469,-9.811500930000001,0.004419,0.001628,0.005939,0.05910210230031125
1758011382.7115755,-0.6194150076783448,0.9610453232373475,2.1430132472006775,-0.528148533878353,0.7945320402490019,-0.13436230147702233,-0.13479465258415602,-1.1350937999036902e-05,-0.08876088000000001,-0.14759145,-9.81643536,0.002253,0.00109,0.004142,0.06456244448453102
1758011382.731908,-0.6187362228015614,0.9521591929535277,2.144096257181694,-0.5247410770598019,0.7925296411052932,-0.13449517392956353,-0.1342131958634698,-1.1006976316201739e-05,-0.09550035000000001,-0.16151184,-9.82796211,0.00393,-0.000642,0.004127,0.05963964420114108
1758011382.7523143,-0.6185294038896085,0.9479501320947652,2.1445792361455744,-0.523793385990945,0.79170814260154,-0.1346001945017401,-0.13397528809976794,-1.069389430317165e-05,-0.0925083,-0.14893542,-9.80041563,0.003889,-0.000662,0.005136,0.058039733613701544
1758011382.7726707,-0.6185294038896085,0.9479501320947652,2.1445792361455744,-0.523793385990945,0.79170814260154,-0.1346001945017401,-0.13397528809976794,-1.069389430317165e-05,-0.0925083,-0.14893542,-9.80041563,0.003889,-0.000662,0.005136,0.058039733613701544
1758011382.7941902,-0.6402742283450509,0.9772403543989061,2.145215512324831,-0.5289218170644373,0.7925496187935802,-0.13462432467780985,-0.1335825101324191,-1.0697762158451574e-05,-0.09504909,-0.15956946,-9.814787280000001,0.003678,-0.001722,0.005954,0.06384824879969372
1758011382.815221,-0.639107749925568,0.9680107746573116,2.146130897924376,-0.5252400364362853,0.7904949543612465,-0.13477855647646483,-0.1330058572138842,-1.01617662402156e-05,-0.08592579,-0.14610033,-9.79712928,0.003266,-0.001557,0.004794,0.059204118397354996
1758011382.8373845,-0.6399945393431171,0.9619948406881006,2.1469077447866205,-0.5239563970980289,0.7890977984191178,-0.13502471934543858,-0.13253395158490056,-9.399158794388011e-06,-0.0953532,-0.14998509000000002,-9.791439480000001,0.003438,-0.000326,0.004982,0.057014741221425025
1758011382.8586433,-0.6453590739181149,0.9665139013952636,2.147285571913036,-0.5249046263352455,0.7889284726690223,-0.13514873479786202,-0.13227780622493482,-9.064503097664194e-06,-0.09145863,-0.15282999000000003,-9.8245188,0.003072,0.000389,0.004379,0.057796208530822075
1758011382.881591,-0.6515554361940359,0.9723398851362856,2.147629876695712,-0.5259312320640017,0.7889561268488194,-0.13526244739771465,-0.1319981933020183,-8.778520456797573e-06,-0.09564750000000001,-0.15717582000000002,-9.80790066,0.004315,0.001542,0.002979,0.05865371561349301
1758011382.9020913,-0.6537302573933841,0.9721350017408843,2.1479790716220624,-0.5256060370879958,0.7884976439514092,-0.13538480881152853,-0.13173140108894593,-8.46416302499994e-06,-0.08262963000000001,-0.15282999000000003,-9.80521272,0.003258,-0.001436,0.004126,0.05800614533017193
1758011382.9231982,-0.6588903121269907,0.9764838685666715,2.148314302508739,-0.5263529838439585,0.7885401307578113,-0.13549974949102436,-0.1314510963355916,-8.177128376149605e-06,-0.09789399,-0.16211025,-9.82901178,0.003695,-0.001901,0.003809,0.058467014270082225
1758011382.9433362,-0.6629202004697292,0.9791674642916621,2.1486421577596104,-0.5264843578454073,0.7884358205902843,-0.13561337295944487,-0.13117222154801456,-7.885971598455187e-06,-0.09520605,-0.15193728,-9.802966230000001,0.003817,-0.001433,0.004103,0.05845430695411179
1758011382.9643574,-0.6685000871588505,0.9842367417469883,2.148963247744536,-0.5270989202822415,0.7884519897914704,-0.13571810128086242,-0.13088187475431023,-7.6168983557721696e-06,-0.09595161,-0.15747012000000002,-9.84697389,0.003817,-0.001433,0.004103,0.0589470104592953
1758011382.9849017,-0.6732433029680576,0.9880749866600709,2.1492669790461623,-0.5271161595877278,0.7885952595002372,-0.13581754174454239,-0.13059650060355477,-7.336431040163239e-06,-0.10882233000000001,-0.14190165000000002,-9.81538569,0.003108,0.001003,0.003891,0.05906500991300419
1758011383.0049753,-0.6770895386573419,0.9906105831276765,2.1495703781691358,-0.5269633342399973,0.7883655709497015,-0.1359175248571114,-0.13031858192117118,-7.040002870554379e-06,-0.09609875999999999,-0.14519781,-9.83410317,0.000402,0.000279,0.004666,0.058879147334485286
1758011383.0252972,-0.6803731372539492,0.9923429981454048,2.149835027022868,-0.5268824045048238,0.7880772104619205,-0.1360197518535135,-0.13004674886792722,-6.7338222439879734e-06,-0.09595161,-0.15552774,-9.799817220000001,0.004773,0.000958,0.003351,0.05856351295331216
1758011383.0457032,-0.6850245033865536,0.996169512864833,2.150072707077384,-0.5270049891303001,0.7878677662262411,-0.136118656115446,-0.1297714843036962,-6.439504114717731e-06,-0.09385227000000002,-0.14490351,-9.827069400000001,0.00434,0.000582,0.002548,0.058761395244155246
1758011383.0659146,-0.6889155696859757,0.9988927906570912,2.1503364237002085,-0.5269230084753421,0.787536119399525,-0.13621804492192424,-0.129498973982587,-6.142117158338877e-06,-0.09086022,-0.14624748,-9.80071974,0.003067,-0.001262,0.004411,0.058674064820416094
1758011383.0863142,-0.6889155696859757,0.9988927906570912,2.1503364237002085,-0.5269230084753421,0.787536119399525,-0.13621804492192424,-0.129498973982587,-6.142117158338877e-06,-0.09086022,-0.14624748,-9.80071974,0.003067,-0.001262,0.004411,0.058674064820416094
1758011383.1087177,-0.7031989197235364,1.0143226055678138,2.150869595199036,-0.5272081459978477,0.7867061792091619,-0.13634704220638494,-0.12885597294830764,-5.729436898582022e-06,-0.08772102000000001,-0.15328125,-9.81793629,0.003107,-0.00047,0.003802,0.05981373925620611
1758011383.1289933,-0.7019864213589317,1.0094875915769237,2.151105110637075,-0.5257754980180954,0.7859483640742008,-0.136455651955718,-0.12860967781013594,-5.367020536707746e-06,-0.10269108,-0.15208443,-9.7986204,0.00304,-0.001037,0.006052,0.05793733786143209
1758011383.151814,-0.7050400772382283,1.0110877384817614,2.1512995417850362,-0.5258324411195188,0.7856382359353828,-0.13656689102353856,-0.12836033641500116,-5.024979608266725e-06,-0.09160578000000001,-0.15956946,-9.832307940000002,0.004484,-0.001017,0.0037,0.05784947339357752
1758011383.1718986,-0.7197988839623534,1.0302117297410633,2.151501362473427,-0.5296683213916604,0.7861480385834522,-0.1366752429510887,-0.12809809201794334,-4.719926382197814e-06,-0.08996751000000001,-0.14010642,-9.808499070000002,0.004736,-0.000166,0.004559,0.06255521643871459
1758011383.1970496,-0.717222979693055,1.0206551124477452,2.151885825241779,-0.5263138051777646,0.784735120606232,-0.13689117341594886,-0.12756690204887292,-4.1465449736615145e-06,-0.09116433,-0.15237873000000002,-9.82212516,0.003055,4.1e-05,0.003982,0.05838064307129658
1758011383.217863,-0.7213526161188251,1.024024240375416,2.152039814097347,-0.5265534430963276,0.7844360098679601,-0.1369961471863164,-0.12729304659069646,-3.887957990852863e-06,-0.08876088000000001,-0.16002072,-9.799071660000001,0.003435,-0.001203,0.002632,0.05851352427522309
1758011383.23824,-0.7249439839970628,1.0266176244067273,2.1522119980973127,-0.5265405449715652,0.7840916560420781,-0.13710158225049818,-0.12701923290817238,-3.634686062337606e-06,-0.08741691000000001,-0.15717582000000002,-9.819427410000001,0.003752,-0.001021,0.003907,0.058446299930191646
1758011383.2588966,-0.7297010455238339,1.0309938130237328,2.1523967217874223,-0.5268593137605332,0.7839071376988545,-0.13720127323711542,-0.12673710117323908,-3.402364953006286e-06,-0.09116433,-0.15926535,-9.81494424,0.003226,-0.001508,0.004701,0.05877547495054336
1758011383.279719,-0.733800167155857,1.0344141497286343,2.152520792145788,-0.5266702011449055,0.7834256804514951,-0.13730122912976697,-0.12645483153850576,-3.176456207920779e-06,-0.07813665,-0.14714019,-9.820477080000002,0.00451,-0.001398,0.002088,0.058824342909623656
1758011383.3001125,-0.7361437985183155,1.035228650748901,2.1527030739985342,-0.5262741331366717,0.783391044460259,-0.13740478387112026,-0.12618785290322754,-2.922188056044085e-06,-0.11286405000000001,-0.1562733,-9.82212516,0.002766,-0.000931,0.005913,0.058311220647125225
1758011383.3202972,-0.7399481072819243,1.0382627273185472,2.1528684198271364,-0.5262391324213532,0.7832090305723507,-0.13750686144295934,-0.12592064838691347,-2.6744376898445486e-06,-0.09655002,-0.15014205,-9.82078119,0.003171,0.000203,0.005189,0.05838754341040036
1758011383.3410952,-0.7440552879615219,1.0417868369792975,2.1529888961538974,-0.526228098593313,0.782833624157858,-0.1376075585990553,-0.12564956003293581,-2.442371081374344e-06,-0.08502327,-0.14969079000000002,-9.81643536,0.002834,0.000442,0.003213,0.05854634352379617
1758011383.3614273,-0.747730945370171,1.044693491581255,2.1531547719555455,-0.5260843853765902,0.7825178530863638,-0.13770824206043644,-0.1253802148437312,-2.210746155674474e-06,-0.0896634,-0.14938668000000002,-9.80969589,0.00454,0.000205,0.005829,0.05853674068305861
1758011383.3817487,-0.747730945370171,1.044693491581255,2.1531547719555455,-0.5260843853765902,0.7825178530863638,-0.13770824206043644,-0.1253802148437312,-2.210746155674474e-06,-0.0896634,-0.14938668000000002,-9.80969589,0.00454,0.000205,0.005829,0.05853674068305861
1758011383.40426,-0.7577085929637537,1.0545832938973894,2.1534518880748763,-0.5256960466636317,0.78190282368034,-0.13786380604638745,-0.12479273795493068,-1.8440372709372038e-06,-0.09040896000000001,-0.15282999000000003,-9.81868185,0.00207,0.000791,0.003868,0.05880711104909275
1758011383.424678,-0.7574241577768024,1.0516453275814122,2.153562434555935,-0.5247567293190665,0.7813159065718208,-0.1379764098143343,-0.12455239075770147,-1.5590291624132923e-06,-0.10119015,-0.16241436,-9.808351920000002,0.002319,0.000272,0.004986,0.05753069721940858
1758011383.4449847,-0.7574241577768024,1.0516453275814122,2.153562434555935,-0.5247567293190665,0.7813159065718208,-0.1379764098143343,-0.12455239075770147,-1.5590291624132923e-06,-0.10119015,-0.16241436,-9.808351920000002,0.002319,0.000272,0.004986,0.05753069721940858
1758011383.4664426,-0.7785431924363697,1.080754028283525,2.153648266077564,-0.5294555600994542,0.7823780196546984,-0.13803029046424384,-0.12421830140367707,-1.4784170920497317e-06,-0.0836793,-0.14699304000000002,-9.813590460000002,0.0026,-0.000897,0.004795,0.06393241366305073
1758011383.487134,-0.769444651472401,1.062370533800554,2.153817906293664,-0.523855308986621,0.7800573155693201,-0.13824079137136658,-0.1237157470426807,-9.674059897970644e-07,-0.09400923,-0.1417545,-9.80865603,0.003669,-0.000313,0.002303,0.05744252815780243
1758011383.5075936,-0.7702364956933835,1.0611399596675908,2.153907356015103,-0.5234900084145832,0.779602246869273,-0.13837090917538428,-0.12348816801621267,-6.875197447164977e-07,-0.09849240000000001,-0.16002072,-9.82197801,0.003421,-0.001048,0.005218,0.05685565492796391
1758011383.5283704,-0.7734633676946442,1.063579613905022,2.153986768545897,-0.5237566829217841,0.7795861559166025,-0.1384993855976083,-0.12325188886620013,-4.4083801982126047e-07,-0.10508471999999999,-0.15282999000000003,-9.80385894,0.003277,-0.000993,0.004521,0.057168576951247704
1758011383.548662,-0.7784535681194253,1.0686988061542573,2.1540663163174596,-0.5241892396130736,0.7792249015391383,-0.13862233028751325,-0.12299661013878824,-2.4411011211371366e-07,-0.0782838,-0.14624748,-9.82796211,0.001696,-0.001402,0.004306,0.057964437984064025
1758011383.5694962,-0.7799714862113252,1.068642840106688,2.1541316613806565,-0.5237061886174426,0.7789356110197462,-0.1387524021135848,-0.12275247990120038,-3.364078045453281e-08,-0.09100737,-0.14954364,-9.79562835,0.004209,0.001142,0.00293,0.0574515498292759
1758011383.5902953,-0.7831047713630831,1.0710313180565096,2.154171891760427,-0.5237315315170307,0.7787658948436718,-0.13888198829783563,-0.1225050753466197,1.5890665004068777e-07,-0.09100737,-0.14954364,-9.79562835,0.004209,0.001142,0.00293,0.0575741522277547
1758011383.6106715,-0.7868746221854444,1.0743967106251993,2.1542371596092167,-0.5236756703861476,0.778589188244295,-0.1390093855862773,-0.12225436420445195,3.365009915560557e-07,-0.08712261,-0.13845834,-9.8213796,0.003207,0.000654,0.004296,0.057870551709669725
1758011383.6309998,-0.7868746221854444,1.0743967106251993,2.1542371596092167,-0.5236756703861476,0.778589188244295,-0.1390093855862773,-0.12225436420445195,3.365009915560557e-07,-0.08712261,-0.13845834,-9.8213796,0.003207,0.000654,0.004296,0.057870551709669725
1758011383.6542954,-0.8008651887150066,1.091000354098595,2.1543671112543272,-0.5244021807378116,0.7786334692523063,-0.13917030409240053,-0.12163794300376753,4.6150444136131637e-07,-0.09684432000000001,-0.14130324,-9.82631403,0.003896,-0.002899,0.003965,0.05946534042295598
1758011383.6744342,-0.7985704974157817,1.0853827790757036,2.1544081671122575,-0.5226802958198601,0.777793841192042,-0.13929911756912017,-0.12140857544207552,6.894818207318458e-07,-0.0953532,-0.14385384,-9.818534699999999,0.002553,-0.001457,0.00403,0.05748525207406881
1758011383.6971874,-0.8079895237227835,1.0973191476498396,2.1545024231892675,-0.5241658734958909,0.7782012385368031,-0.13939803353837402,-0.12113482768324897,8.158671699755252e-07,-0.10088604,-0.14669874000000002,-9.815238540000001,0.002838,-0.002082,0.005282,0.059746816604047015
1758011383.717714,-0.8056311586944652,1.091655208198209,2.1545419213926884,-0.5224535591898816,0.7773821601455583,-0.13952637651005204,-0.12090386842240135,1.0264768213413783e-06,-0.09984618,-0.1505835,-9.81868185,0.003083,1.1e-05,0.004605,0.05769056586503668
1758011383.7380204,-0.8056311586944652,1.091655208198209,2.1545419213926884,-0.5224535591898816,0.7773821601455583,-0.13952637651005204,-0.12090386842240135,1.0264768213413783e-06,-0.09984618,-0.1505835,-9.81868185,0.003083,1.1e-05,0.004605,0.05769056586503668
1758011383.7593188,-0.8171066312261757,1.1047091204535653,2.1546671108056206,-0.5231337456467859,0.7768103279376692,-0.139714231801199,-0.12033345079142288,1.2148704071860621e-06,-0.08622009,-0.16420959000000002,-9.80026848,0.004847,0.0005,0.003196,0.058937891752354726
1758011383.7798674,-0.8122982975299752,1.0933566320816472,2.154684516822858,-0.520365361919641,0.7752113727113008,-0.14001971723488324,-0.11991189435723162,1.677578235678147e-06,-0.08471916,-0.15418377,-9.79488279,0.0049,-0.000712,0.002905,0.055641987311441904
1758011383.8002884,-0.8122982975299752,1.0933566320816472,2.154684516822858,-0.520365361919641,0.7752113727113008,-0.14001971723488324,-0.11991189435723162,1.677578235678147e-06,-0.08471916,-0.15418377,-9.79488279,0.0049,-0.000712,0.002905,0.055641987311441904
1758011383.8269343,-0.8211835456688421,1.1026378369076437,2.1547521339468005,-0.5213809386672374,0.7753544137816274,-0.14029888075376132,-0.11941430642745365,1.9356998209029292e-06,-0.08891784,-0.15478218000000002,-9.81014715,0.001784,-0.000451,0.005862,0.05705223087509986
1758011383.8476603,-0.8190956174199427,1.0975048891563441,2.1547648219714217,-0.5203499799382872,0.7749195099401988,-0.1404709553097428,-0.11920890559680335,2.1382257978964213e-06,-0.10403505,-0.15612615,-9.81299205,0.003401,0.00061,0.005437,0.055667156166186685
1758011383.8681095,-0.8190956174199427,1.0975048891563441,2.1547648219714217,-0.5203499799382872,0.7749195099401988,-0.1404709553097428,-0.11920890559680335,2.1382257978964213e-06,-0.10403505,-0.15612615,-9.81299205,0.003401,0.00061,0.005437,0.055667156166186685
1758011383.8885489,-0.8190956174199427,1.0975048891563441,2.1547648219714217,-0.5203499799382872,0.7749195099401988,-0.1404709553097428,-0.11920890559680335,2.1382257978964213e-06,-0.10403505,-0.15612615,-9.81299205,0.003401,0.00061,0.005437,0.055667156166186685
1758011383.9134943,-0.8420127913842389,1.1281576327479865,2.1548983131018034,-0.5231943259720435,0.7752936676999608,-0.1406609942248767,-0.11853916237715809,2.0272905505108645e-06,-0.0896634,-0.14729715000000002,-9.79053696,0.003925,-0.000433,0.00284,0.060497575225679445
1758011383.9341319,-0.836283534068646,1.1157710995727093,2.1548883616635353,-0.5195625229412455,0.7734241037649209,-0.14099247864305992,-0.11809418031812742,2.3975454031123716e-06,-0.08696565,-0.14938668000000002,-9.81554265,0.003105,-0.000665,0.005309,0.05647023375213804
1758011383.9573147,-0.8337016495926051,1.1080894929490583,2.154836129804983,-0.5184686741186583,0.7726985777025269,-0.1414002914014815,-0.11771070574024523,2.8104676518921786e-06,-0.09849240000000001,-0.15297714,-9.828707670000002,0.003282,-0.001105,0.003409,0.05489152035832307
1758011383.983635,-0.8395134164518532,1.114920530150501,2.154831744252334,-0.519570418935458,0.7731439397357851,-0.14159440696408213,-0.11748856393306803,2.9293944826576063e-06,-0.09325386000000001,-0.13905675,-9.81209934,0.003578,-0.000393,0.004428,0.05658489109679016
1758011384.0043235,-0.8401754822078606,1.1140652203255137,2.1547963611484935,-0.519353916810242,0.7732309122383747,-0.14179220691167307,-0.11727369902585794,3.051980893283722e-06,-0.10298538000000002,-0.15074046,-9.83470158,0.003759,-0.000419,0.002908,0.05619191080389452
1758011384.024899,-0.8407927477649635,1.1131568808820627,2.1547853489278737,-0.519050782876855,0.7733171734880049,-0.14199395659491557,-0.11706656003324876,3.179769706462851e-06,-0.10104300000000001,-0.13921371000000002,-9.80101404,0.005387,0.000868,0.004693,0.05585342633554517
1758011384.0453904,-0.8457867525539795,1.1188416894932656,2.1548022283933506,-0.5200242121283503,0.77367400982009,-0.14218237939929892,-0.11683746121458313,3.2549224066301795e-06,-0.09131148000000001,-0.14969079000000002,-9.820477080000002,0.00254,-0.000434,0.005352,0.05701263916480895
1758011384.0663357,-0.8470950861874595,1.1190249513294586,2.154774048610035,-0.5199246221857935,0.7738614326252088,-0.14237069932629456,-0.11661555141462804,3.3388898963654266e-06,-0.1041822,-0.15373251000000002,-9.82122264,0.003144,-0.000772,0.003507,0.056706631604661446
1758011384.0864017,-0.8527923082854141,1.1258085682338246,2.1547491088858237,-0.5207658521845372,0.774251530211507,-0.14254200179471743,-0.1163732161169106,3.373836313848895e-06,-0.09295956000000001,-0.14669874000000002,-9.800121330000001,0.003934,0.000129,0.003552,0.057899578018186904
1758011384.1071415,-0.8505839265498604,1.1207756824151598,2.1547189269402045,-0.5194992353149848,0.7737927307157768,-0.14273169031299784,-0.11616301356945526,3.473287085506472e-06,-0.08831943,-0.14610033,-9.833053500000002,0.003934,0.000129,0.003552,0.056259112024496155
1758011384.1275747,-0.8538028810647791,1.1238819886330584,2.1546887097506993,-0.5199376445553239,0.7739333964739931,-0.142914496162633,-0.11594233343310952,3.541942293504637e-06,-0.09176274,-0.1505835,-9.791292330000001,0.005752,-0.000554,0.003716,0.05675795442508445
1758011384.1485445,-0.8564470955439183,1.1261475527800069,2.154650193925164,-0.5200760212324801,0.7740286247270561,-0.14309283579536763,-0.11571864014000749,3.5974849133523285e-06,-0.09295956000000001,-0.14878827,-9.81793629,0.002564,0.00061,0.003253,0.05695167301198558
1758011384.16889,-0.8581033341789447,1.126948726332458,2.1546332580854815,-0.5199077894119174,0.7741563749479579,-0.14327026566485654,-0.11550081464316614,3.660720188803799e-06,-0.10178856,-0.14624748,-9.811795230000001,0.003947,0.000803,0.004516,0.056780284624627114
1758011384.1892188,-0.8581033341789447,1.126948726332458,2.1546332580854815,-0.5199077894119174,0.7741563749479579,-0.14327026566485654,-0.11550081464316614,3.660720188803799e-06,-0.10178856,-0.14624748,-9.811795230000001,0.003947,0.000803,0.004516,0.056780284624627114
1758011384.2099924,-0.8689448967108769,1.1399915555485718,2.154696033006389,-0.5206574250597884,0.7746649534048592,-0.1435400429522719,-0.11498238972523073,3.6269015498510737e-06,-0.10059174,-0.1562733,-9.829610190000002,0.003865,-0.000582,0.004288,0.05812094803421659
1758011384.2361035,-0.8661227606924095,1.1325401831424313,2.1545980096578035,-0.5189512637116889,0.7735886027417238,-0.14389506006028419,-0.11458441311567151,3.837798376775301e-06,-0.09145863,-0.1562733,-9.82676529,0.001576,0.000337,0.003377,0.055791861291858515
1758011384.257069,-0.8689360027057337,1.1351626626118512,2.154559212253373,-0.5192957440758122,0.7734768444176514,-0.14407358566026474,-0.11437564796732996,3.9047911636619415e-06,-0.08592579,-0.1502892,-9.80581113,0.003111,-0.001476,0.004014,0.05630661734974901
1758011384.2780366,-0.8711240662007032,1.1368658054305925,2.1545212333340507,-0.5194986847288604,0.7736023738620962,-0.1442486902717924,-0.11416253067195826,3.9547718769874836e-06,-0.10059174,-0.15672456,-9.819133110000001,0.002378,0.000199,0.00398,0.0564868857887694
1758011384.2981515,-0.8728598055161998,1.1379039873005503,2.1544821219533627,-0.5193627803901383,0.7736649470501192,-0.14442310928301022,-0.11395164353309994,4.003011226087555e-06,-0.09968922,-0.14624748,-9.81090252,0.002378,0.000199,0.00398,0.056468315631996974
1758011384.3186145,-0.8753331283484405,1.1400709295588958,2.154447280383568,-0.5194173966561304,0.7735934157006732,-0.14459473685110488,-0.1137368755365728,4.037293183643504e-06,-0.08816247,-0.14773860000000003,-9.793087560000002,0.00525,-0.000321,0.004155,0.056689290360873695
1758011384.3388822,-0.8771037134326357,1.141201694389133,2.154399669673843,-0.5193869551183025,0.7736842786755826,-0.14476462606674784,-0.11352389492062841,4.07031792502474e-06,-0.1013373,-0.15418377,-9.832150980000002,0.001868,0.000524,0.003544,0.05663108667372202
1758011384.3590567,-0.8793213748824845,1.1430202830071234,2.154351685758578,-0.5192547820860088,0.7734790773109042,-0.1449337019584384,-0.1133097613219932,4.095711720252683e-06,-0.08232552,-0.14369688,-9.811795230000001,0.001868,0.000524,0.003544,0.05672878941336592
1758011384.3799381,-0.8944536949346165,1.1655613040151063,2.1543871273165607,-0.5244574438577755,0.775244670212016,-0.1449337019584384,-0.1133097613219932,4.095711720252683e-06,-0.09609875999999999,-0.15582204,-9.82721655,0.003826,-0.000308,0.005451,0.0631672677713783
1758011384.4007454,-0.8847714468856765,1.1482643575431113,2.1543443076063564,-0.5192552102859008,0.773361775038359,-0.1452405880025682,-0.11285420218384067,4.090082507849959e-06,-0.08427771,-0.15402681000000001,-9.82272357,0.003919,0.000465,0.005597,0.05689246257260995
1758011384.4215834,-0.8860954985571395,1.1487843077205164,2.154340607239318,-0.5189050663105628,0.7734514833414218,-0.1454029590596211,-0.11264836512608178,4.133912527117344e-06,-0.10882233000000001,-0.14385384,-9.811500930000001,0.003475,-0.000355,0.00632,0.05667600186165636
1758011384.4425516,-0.8885474936527433,1.1510168081576473,2.154289856445632,-0.5189085365301368,0.7734302187085613,-0.14556210519742535,-0.11243981128778775,4.165430881479645e-06,-0.09595161,-0.14684589,-9.82197801,0.003123,-7e-05,0.00378,0.0568740840618394
1758011384.463036,-0.8904192256325584,1.1523990200014889,2.154227629357849,-0.5188872806612131,0.7733964715584799,-0.14571974096012494,-0.11223118362738674,4.1911013984815736e-06,-0.09924777,-0.15567489,-9.80655669,0.003674,0.00018,0.003171,0.05683907535820683
1758011384.4834323,-0.8904192256325584,1.1523990200014889,2.154227629357849,-0.5188872806612131,0.7733964715584799,-0.14571974096012494,-0.11223118362738674,4.1911013984815736e-06,-0.09924777,-0.15567489,-9.80655669,0.003674,0.00018,0.003171,0.05683907535820683
1758011384.5054631,-0.9058534686437849,1.1741852971664297,2.15420001202373,-0.5216187467184651,0.7746694551458393,-0.1458120166811618,-0.1119464627695973,4.043060279001108e-06,-0.09849240000000001,-0.14564907000000002,-9.83724237,0.003592,0.00064,0.003785,0.06117557107102334
1758011384.5261483,-0.8990072742362463,1.161208496394917,2.1541098505465284,-0.5176061181246211,0.7725710386662253,-0.14610045864512708,-0.11153477411548886,4.134323803413878e-06,-0.09355797,-0.16061913,-9.813139200000002,0.004198,-0.001075,0.002802,0.05648259570083658
1758011384.5465505,-0.8964496000478858,1.1559869732213979,2.1540700186045196,-0.5165709830874435,0.7718751478019773,-0.14627953721353087,-0.11136172262484641,4.237359247915798e-06,-0.0953532,-0.15433092,-9.82511721,0.003323,0.000109,0.005994,0.05516489906906129
1758011384.5668917,-0.8964496000478858,1.1559869732213979,2.1540700186045196,-0.5165709830874435,0.7718751478019773,-0.14627953721353087,-0.11136172262484641,4.237359247915798e-06,-0.0953532,-0.15433092,-9.82511721,0.003323,0.000109,0.005994,0.05516489906906129
1758011384.5911357,-0.9157127166446117,1.183645780046653,2.154153627627066,-0.5208744689816311,0.773361605291414,-0.14638187554651017,-0.11107581221076122,4.0879278157490415e-06,-0.09325386000000001,-0.15237873000000002,-9.79338186,0.003323,0.000109,0.005994,0.06123154909679012
1758011384.6116908,-0.908412377256778,1.1700949928549087,2.154050296265475,-0.5167667303187745,0.7712486076445335,-0.14669402955615055,-0.1106634748278689,4.17599638887482e-06,-0.09849240000000001,-0.16091343000000002,-9.80775351,0.003397,-8.4e-05,0.004137,0.056473802861659775
1758011384.6364398,-0.904660539725137,1.1617976488712238,2.153932830804596,-0.515323399779116,0.7702236544203739,-0.14709134307343957,-0.11032348867869568,4.37390852107515e-06,-0.1013373,-0.15433092,-9.8242245,0.004261,8.5e-05,0.004645,0.054668180485351756
1758011384.6567717,-0.904660539725137,1.1617976488712238,2.153932830804596,-0.515323399779116,0.7702236544203739,-0.14709134307343957,-0.11032348867869568,4.37390852107515e-06,-0.1013373,-0.15433092,-9.8242245,0.004261,8.5e-05,0.004645,0.054668180485351756
1758011384.6770883,-0.904660539725137,1.1617976488712238,2.153932830804596,-0.515323399779116,0.7702236544203739,-0.14709134307343957,-0.11032348867869568,4.37390852107515e-06,-0.1013373,-0.15433092,-9.8242245,0.004261,8.5e-05,0.004645,0.054668180485351756
1758011384.7016418,-0.9200645127454758,1.1825086858048224,2.1539122820727776,-0.5171629549173531,0.7706092093042177,-0.14739192948639238,-0.10982092765058493,4.205782322852456e-06,-0.0981981,-0.15103476000000002,-9.83484873,0.003001,-0.000803,0.004052,0.058167044965592635
1758011384.7217662,-0.9130727945901491,1.1694811078079548,2.1537613682117973,-0.5144193915256571,0.769147666343406,-0.1478019370532508,-0.1094655027930962,4.358558892550135e-06,-0.09310671,-0.15208443,-9.807302250000001,0.002674,-0.000438,0.003204,0.05469854724167845
1758011384.742251,-0.9122941752510099,1.1670398936164514,2.153695307740435,-0.5142844569893986,0.7690540043762804,-0.14802477178332366,-0.10929871234822934,4.437121640572821e-06,-0.09968922,-0.15672456,-9.83200383,0.003478,-0.000688,0.00443,0.05436059865187905
1758011384.7625096,-0.9145237311739145,1.169145931887659,2.15367271844754,-0.5150878357573182,0.7691063748675064,-0.14824345908397998,-0.10911403258857122,4.467808338485193e-06,-0.08248248000000001,-0.16435674000000003,-9.799974180000001,0.004037,-0.000657,0.006127,0.0550630993574334
1758011384.7828577,-0.9145237311739145,1.169145931887659,2.15367271844754,-0.5150878357573182,0.7691063748675064,-0.14824345908397998,-0.10911403258857122,4.467808338485193e-06,-0.08248248000000001,-0.16435674000000003,-9.799974180000001,0.004037,-0.000657,0.006127,0.0550630993574334
1758011384.8038912,-0.9284800740941989,1.1889208277211611,2.153618736154037,-0.5182033915801749,0.770614545168381,-0.1484088871056427,-0.10885306110695145,4.321209335449908e-06,-0.09310671,-0.15193728,-9.826912440000001,0.003514,-0.002114,0.003643,0.059415547311745115
1758011384.824424,-0.9211666270721052,1.175577303249994,2.153496131126163,-0.5147551807643309,0.76930142912712,-0.14881742075201007,-0.10846535839972501,4.3515261504677875e-06,-0.0896634,-0.13785993,-9.82272357,0.002932,-0.002156,0.00397,0.055273293396765955
1758011384.8451273,-0.9203978301620138,1.1732231708075787,2.153439085312673,-0.5146174254973918,0.7692507123691024,-0.14903873119132685,-0.10829058183404165,4.396603783732904e-06,-0.09909081000000002,-0.16585766999999998,-9.81239364,0.002745,0.000565,0.004818,0.054799827538904534
1758011384.8655005,-0.9203978301620138,1.1732231708075787,2.153439085312673,-0.5146174254973918,0.7692507123691024,-0.14903873119132685,-0.10829058183404165,4.396603783732904e-06,-0.09909081000000002,-0.16585766999999998,-9.81239364,0.002745,0.000565,0.004818,0.054799827538904534
1758011384.8897276,-0.9382675771406433,1.1990055550556384,2.1534451682693057,-0.5191449922711953,0.7708118801133554,-0.1491892687704148,-0.10800303148648556,4.182653139423264e-06,-0.08622009,-0.16406244,-9.79727643,0.003484,-0.000711,0.004678,0.060499991515838396
1758011384.9104962,-0.9306021725785577,1.18526973277635,2.153332759834049,-0.515120128675312,0.769285220093529,-0.14958096310861663,-0.10759296797486177,4.172794165482885e-06,-0.09879651,-0.15163317,-9.796226760000001,0.003508,-0.00045,0.003772,0.05589988467716725
1758011384.9309342,-0.9270838742432469,1.1788280792135286,2.1532412414819513,-0.513912210127964,0.7688123868253893,-0.14980907344443,-0.1074277440326361,4.242876561684004e-06,-0.10088604,-0.14893542,-9.822870720000001,0.003863,-0.000901,0.002241,0.054422118043803064
1758011384.9579709,-0.9294868260019716,1.180172758322917,2.153103910817336,-0.5141634523616071,0.7692089586789717,-0.15024486167682263,-0.10706332696439637,4.277744422310133e-06,-0.09190989000000001,-0.15358536,-9.80222067,0.002983,-0.001553,0.004366,0.054800938465255564
1758011384.9785674,-0.9297476963089039,1.1794394295069441,2.153038192451257,-0.5141724595726541,0.7692402618725321,-0.15047252678170145,-0.10689021851979878,4.3033674635250575e-06,-0.09116433,-0.15297714,-9.823469130000001,0.002135,-0.000941,0.004211,0.05474745337241838
1758011385.003481,-0.9330692463944045,1.1831965918076301,2.1531928103362876,-0.5149296239219642,0.7693740855663143,-0.15069205297605315,-0.10670942294599804,3.93979314854895e-06,-0.08128566000000001,-0.14909238,-9.8128449,0.003722,-0.00055,0.005225,0.05576419671381384
1758011385.0244553,-0.9330074947719595,1.1832372534291757,2.153003083183199,-0.5148242545275441,0.7694469279571993,-0.15069136900727384,-0.10670111027233191,4.287735631344355e-06,-0.08128566000000001,-0.14909238,-9.8128449,0.003722,-0.00055,0.005225,0.05567664726955346
1758011385.054555,-0.9421674886563619,1.1947446370157697,2.1531409611071997,-0.5158081235767522,0.7701451057257142,-0.15106816446902224,-0.10627624178094698,4.019632726293829e-06,-0.08935929000000001,-0.13995927,-9.81868185,0.004082,-0.000116,0.006128,0.0575325296582391
1758011385.0754766,-0.9432705033889744,1.1953538494918667,2.1530862246489972,-0.5154786331072274,0.7700530134339157,-0.1512576245434766,-0.10607735075482613,3.741831674331765e-06,-0.09355797,-0.15313410000000002,-9.80086689,0.001994,5.6e-05,0.004272,0.05720023607934041
1758011385.0955524,-0.9584077020621411,1.218108068627621,2.1529296864241525,-0.5203435605953588,0.7719811030416107,-0.15125694832128794,-0.10606904724934187,4.105503865654746e-06,-0.08846658,-0.14893542,-9.827814960000001,0.002219,5.7e-05,0.005412,0.06363830783044633
1758011385.1165595,-0.9509311158305103,1.2049171335847029,2.1528176729184176,-0.5163310515072065,0.7702523128246539,-0.1516204510316322,-0.10566737584952544,4.0425119402033535e-06,-0.09834525,-0.15282999000000003,-9.824822910000002,0.002707,-0.000414,0.004515,0.05872117895705617
1758011385.1365864,-0.9404353150460956,1.1870841935283296,2.1526992595500944,-0.5128289615286405,0.7687387548343272,-0.15205797365994986,-0.10535116417636547,4.154064931600628e-06,-0.09700128,-0.14923953,-9.816739470000002,0.003786,-0.000502,0.006156,0.05418654470264693
1758011385.1575747,-0.9543331463835656,1.2079172633405686,2.1527570670753233,-0.5171270200539595,0.770529056193419,-0.15205797365994986,-0.10535116417636547,4.154064931600628e-06,-0.08996751000000001,-0.13905675,-9.816582510000002,0.003382,-0.000962,0.006368,0.06014692895185356
1758011385.1778958,-0.9432955457757045,1.189351744966868,2.152638400229425,-0.5132042091639742,0.7689889542687419,-0.15248511782894678,-0.10500956400828433,4.181287638875533e-06,-0.09116433,-0.16106057999999998,-9.823174830000001,0.002205,-0.00099,0.005425,0.05476930043377566
1758011385.1989117,-0.945745454693068,1.1920403117118403,2.1525813681612167,-0.5138934296933597,0.7693295391619689,-0.1526958720218773,-0.10483305521762258,4.1736001987219535e-06,-0.09236115,-0.15792138000000003,-9.80820477,0.003939,0.000485,0.004556,0.05543148590471668
1758011385.2197099,-0.9458957944232652,1.1912678426625727,2.1525213684569806,-0.5138183626944646,0.769701548379688,-0.15290589503430238,-0.10466254307354886,4.175347324793615e-06,-0.11271690000000001,-0.15462522000000004,-9.823027680000001,0.004229,-0.001486,0.004578,0.05517308313783588
1758011385.2402272,-0.9485807768997946,1.1943351070404298,2.1524648477290693,-0.5143637479243084,0.7699504641949086,-0.15310711620802495,-0.10448107277847303,4.148018440487997e-06,-0.08816247,-0.15418377,-9.81823059,0.003034,0.000181,0.004421,0.055801040555855226
1758011385.2608318,-0.9486866670299082,1.1935221220009018,2.152391163640613,-0.5139966092625278,0.7699236536607502,-0.15331075183518753,-0.10430738598094592,4.135502092674561e-06,-0.09040896000000001,-0.14505066000000003,-9.81763218,0.002511,0.001342,0.003635,0.055433822898957506
1758011385.281843,-0.9504909882181707,1.1952776235794584,2.1523373467546607,-0.5141325042065802,0.7701419666670094,-0.15350912480837034,-0.10413124017100353,4.1141349697851735e-06,-0.0928026,-0.14624748,-9.818829,0.002084,-0.000141,0.004602,0.05570753958976108
1758011385.3022273,-0.9530978548734478,1.1982618507536897,2.1522797405683107,-0.5144383694712825,0.770280732092481,-0.15369952328488398,-0.1039480877363916,4.0744001960622025e-06,-0.08607294000000001,-0.14938668000000002,-9.80954874,0.003375,-0.000768,0.004247,0.05618386701673446
1758011385.3226552,-0.9530978548734478,1.1982618507536897,2.1522797405683107,-0.5144383694712825,0.770280732092481,-0.15369952328488398,-0.1039480877363916,4.0744001960622025e-06,-0.08607294000000001,-0.14938668000000002,-9.80954874,0.003375,-0.000768,0.004247,0.05618386701673446
1758011385.3467867,-0.9677513556174487,1.2194556390783449,2.1522216491625272,-0.5172036825575462,0.7719281159520454,-0.15382431398879834,-0.10369870694278344,3.875393818114906e-06,-0.09669717,-0.14714019,-9.81868185,0.002258,-0.000648,0.003557,0.06045165575322507
1758011385.367372,-0.9597735442367785,1.2056674981332052,2.1521094306169974,-0.5132196889306795,0.769833480015616,-0.15416923182159198,-0.10334577902474372,3.864031036172268e-06,-0.08143281,-0.15148602000000003,-9.82107549,0.004506,-0.000126,0.005537,0.055733819856936276
1758011385.3877602,-0.9597735442367785,1.2056674981332052,2.1521094306169974,-0.5132196889306795,0.769833480015616,-0.15416923182159198,-0.10334577902474372,3.864031036172268e-06,-0.08143281,-0.15148602000000003,-9.82107549,0.004506,-0.000126,0.005537,0.055733819856936276
1758011385.4121413,-0.9646161863141749,1.2111994375168353,2.1520352279302246,-0.5131539413893041,0.7698432851923138,-0.15449675277711655,-0.10298188452548468,3.818859390276975e-06,-0.08861373,-0.14998509000000002,-9.81194238,0.004153,-0.001284,0.004858,0.05621724133810113
1758011385.432677,-0.9687001161252816,1.2164077466564192,2.151975329593869,-0.5144723792222641,0.7702598900628799,-0.1546988120472589,-0.10283852758295486,3.879018296432382e-06,-0.09564750000000001,-0.14699304000000002,-9.80969589,0.002924,0.000291,0.005044,0.05799657717727856
1758011385.4553423,-0.9596917636332629,1.2010616034814197,2.151841138043258,-0.5117237079530594,0.7687101722337468,-0.15512085898282968,-0.10254965356288784,3.961697242507078e-06,-0.08921214,-0.15538058999999999,-9.81434583,0.001348,-0.000993,0.004919,0.05421501020522907
1758011385.4758606,-0.9596917636332629,1.2010616034814197,2.151841138043258,-0.5117237079530594,0.7687101722337468,-0.15512085898282968,-0.10254965356288784,3.961697242507078e-06,-0.08921214,-0.15538058999999999,-9.81434583,0.001348,-0.000993,0.004919,0.05421501020522907
1758011385.4975216,-0.9630497415783569,1.2044004823136616,2.1517870892719086,-0.5119675307031674,0.7688583559122137,-0.1555155284322194,-0.10221654115362895,3.927622121097238e-06,-0.08157996,-0.14849397,-9.81014715,0.003453,-0.001317,0.003517,0.05478446548234052
1758011385.5180273,-0.9630497415783569,1.2044004823136616,2.1517870892719086,-0.5119675307031674,0.7688583559122137,-0.1555155284322194,-0.10221654115362895,3.927622121097238e-06,-0.08157996,-0.14849397,-9.81014715,0.003453,-0.001317,0.003517,0.05478446548234052
1758011385.5383947,-0.9630497415783569,1.2044004823136616,2.1517870892719086,-0.5119675307031674,0.7688583559122137,-0.1555155284322194,-0.10221654115362895,3.927622121097238e-06,-0.08157996,-0.14849397,-9.81014715,0.003453,-0.001317,0.003517,0.05478446548234052
1758011385.5604749,-0.9758926901107406,1.2222609035199614,2.15172861065977,-0.5139839751989524,0.7698338038237589,-0.1558158995147569,-0.10177680043681127,3.6572731918899665e-06,-0.09669717,-0.14519781,-9.80521272,0.004034,8.3e-05,0.004053,0.05753234413692157
1758011385.5811512,-0.9678023842408119,1.2083851997801878,2.151598446580387,-0.510991638277993,0.7681759799675041,-0.1562273437761029,-0.10147947609777473,3.7348382002712444e-06,-0.09176274,-0.14055768000000002,-9.82062423,0.003911,-0.001336,0.005102,0.05399002145438164
1758011385.6012878,-0.9668386922331658,1.2060852679629683,2.1515210780544898,-0.5108963143189749,0.7679947953217597,-0.15645003159569673,-0.10133934843159488,3.776039913248298e-06,-0.09086022,-0.15478218000000002,-9.80969589,0.004164,-0.000384,0.00407,0.053754300410145305
1758011385.6224558,-0.9674360431559783,1.2061518103894942,2.15142402960263,-0.5112736086183378,0.768202616571944,-0.15667128281130732,-0.10119155684594092,3.788270436308976e-06,-0.09580446000000001,-0.15687171,-9.816739470000002,0.003528,-0.000207,0.002772,0.0540554883301678
1758011385.6426542,-0.9692219794115834,1.2080221630760053,2.1513492152426714,-0.5118126133501262,0.7687183366849678,-0.15688558530182678,-0.10103504508988155,3.77272386460452e-06,-0.10148445,-0.15268284000000001,-9.81733788,0.003664,-3.8e-05,0.003725,0.05465893831503824
1758011385.6633558,-0.9696589006873586,1.2078653112267852,2.1512925994428187,-0.5117989015894363,0.7688912223605364,-0.15709920719327577,-0.10087950388458843,3.755427991933433e-06,-0.09385227000000002,-0.14729715000000002,-9.81464013,0.003419,0.001139,0.004604,0.05466057218851191
1758011385.6837616,-0.9696589006873586,1.2078653112267852,2.1512925994428187,-0.5117989015894363,0.7688912223605364,-0.15709920719327577,-0.10087950388458843,3.755427991933433e-06,-0.09385227000000002,-0.14729715000000002,-9.81464013,0.003419,0.001139,0.004604,0.05466057218851191
1758011385.705526,-0.9886538271118692,1.2357444432204254,2.151308062922494,-0.5168024603946882,0.7715390076558951,-0.15725264580101786,-0.10065475275158427,3.573246029932285e-06,-0.0925083,-0.14654178,-9.82197801,0.002493,-8.3e-05,0.004015,0.06124870541482191
1758011385.7266603,-0.975277054623453,1.2141032146795625,2.1511748611804933,-0.5116581322500239,0.7692320533464907,-0.15764134193927534,-0.10033307758907872,3.5456596636791507e-06,-0.10269108,-0.15253569,-9.81718092,0.003811,-0.000569,0.003378,0.054755500165405216
1758011385.7471917,-0.9741690181587971,1.211648160184317,2.151093117589439,-0.5114803811770253,0.7691066736082118,-0.15785213550298607,-0.1001882503822038,3.5596466787343893e-06,-0.09999333,-0.16375833,-9.81494424,0.002888,-0.00078,0.003343,0.05428482880043775
1758011385.7678432,-0.9753205419554501,1.212606383974026,2.151019557432223,-0.5117042213587173,0.7694503442261043,-0.15805891213864443,-0.10003894717597815,3.5548958835536356e-06,-0.10373094000000001,-0.14759145,-9.819427410000001,0.002767,-0.000687,0.003764,0.05464388829981927
1758011385.7891626,-0.9766619622140313,1.2138646161164186,2.1509579354401893,-0.511965233959036,0.7697963165819133,-0.15826056686955595,-0.09988574451870119,3.5357028995337844e-06,-0.10298538000000002,-0.15074046,-9.81494424,0.003746,1.6e-05,0.004213,0.0549673951380279
1758011385.8102472,-0.9869184759722608,1.2285343922264162,2.150874280247187,-0.5149225301268705,0.7716925673466623,-0.15846037743047547,-0.09973497227953619,3.518387619697889e-06,-0.10612458,-0.14594337000000002,-9.81344331,0.003336,0.000783,0.002938,0.05909752215840419
1758011385.8348336,-0.9784749258615097,1.2143397250368346,2.150761790188918,-0.5118331849723672,0.7703956161804072,-0.15885566035265575,-0.09943953768979982,3.4852426337758018e-06,-0.10088604,-0.14969079000000002,-9.818829,0.002459,-0.000897,0.004663,0.0549372917039293
1758011385.854887,-0.9795193023780244,1.2151861633891934,2.150744742848037,-0.5120554912978251,0.7705743389757508,-0.15904807685999137,-0.09928938120295383,3.4608765443818816e-06,-0.09924777,-0.15478218000000002,-9.826912440000001,0.003246,7.9e-05,0.006352,0.055064628380408695
1758011385.8801563,-0.9831184600557045,1.21992157854697,2.150673584880513,-0.5131050375094259,0.7711386939567914,-0.15922403230678495,-0.09912251323267728,3.393887321429576e-06,-0.10164141000000002,-0.16705449,-9.81404172,0.003441,0.000138,0.003438,0.056008355313388256
1758011385.9011023,-0.9818756353049488,1.2173304577435164,2.150593581306328,-0.5124445097673346,0.7708550947361061,-0.15940796163568646,-0.09896907013571839,3.3597267828221193e-06,-0.09684432000000001,-0.15522363,-9.81254079,0.004547,0.00047,0.002708,0.0551465398770949
1758011385.9211035,-0.9834345703717198,1.2189778792587138,2.150525929205017,-0.5125730025900198,0.7710072990485254,-0.1595867977747561,-0.09881271145415203,3.31586580888171e-06,-0.09714843000000001,-0.15103476000000002,-9.82661814,0.004189,4.4e-05,0.003576,0.0554066827926711
1758011385.9419932,-0.9837007223457686,1.2186725548909392,2.150476556881995,-0.5121824536616255,0.7708936063966906,-0.159767448524957,-0.0986621231197649,3.285090875950918e-06,-0.09340101,-0.14130324,-9.820025820000001,0.002405,-0.001007,0.004575,0.05517816723830757
1758011385.9623084,-0.9853808453209472,1.2205259185953077,2.150411500725655,-0.512475234526194,0.7709110038138792,-0.15994278456756736,-0.09850511725800615,3.236706995942564e-06,-0.09011466,-0.15851979,-9.80865603,0.002434,-0.000187,0.003629,0.05547019885852949
1758011385.9825923,-0.9853808453209472,1.2205259185953077,2.150411500725655,-0.512475234526194,0.7709110038138792,-0.15994278456756736,-0.09850511725800615,3.236706995942564e-06,-0.09011466,-0.15851979,-9.80865603,0.002434,-0.000187,0.003629,0.05547019885852949
1758011386.004679,-1.0026955230470256,1.2460204733240539,2.1504121467260315,-0.5167608225986687,0.7733369537264558,-0.1600600911553724,-0.09829229934615384,3.0519949745891325e-06,-0.09759969,-0.14235291,-9.81643536,0.003545,-0.000478,0.002881,0.061305918187514075
1758011386.0250747,-0.9889094000034772,1.2239285593524114,2.150295232695491,-0.5113041669149997,0.7703419416268386,-0.16039098815779543,-0.09799245495600863,3.0260845584619796e-06,-0.09430353000000001,-0.15088761,-9.820928340000002,0.004132,-0.001426,0.003804,0.054673668905779654
1758011386.0461047,-0.9884833865682997,1.2226071466312904,2.150226462739827,-0.5111464774758796,0.7700502749794541,-0.16057432196234248,-0.0978543261835111,3.033139455519453e-06,-0.09385227000000002,-0.15792138000000003,-9.80954874,0.003914,-8.8e-05,0.003756,0.05445393255587644
1758011386.0667832,-0.9883541267457064,1.2217352357065585,2.1501655225498233,-0.5110245780388674,0.7699365334019116,-0.16076053525112052,-0.0977157451410682,3.032535324720285e-06,-0.09669717,-0.15268284000000001,-9.818377739999999,0.003129,-0.000314,0.004138,0.054353697126503696
1758011386.0872989,-0.99000315223006,1.2235622264880113,2.1501090163993055,-0.5112397135032546,0.770080275712506,-0.16094230330729972,-0.09757074361134184,3.010952391662034e-06,-0.09415638000000001,-0.14624748,-9.820025820000001,0.003135,-0.00067,0.004171,0.05484566749425427
1758011386.1076572,-0.9900243874007283,1.2229284749206688,2.1500316800150987,-0.5110301568300589,0.7701885931462573,-0.16112518378019092,-0.09742963863761864,2.994262099550824e-06,-0.10597743000000001,-0.1474443,-9.80581113,0.003188,-0.0007,0.003027,0.05467364191963634
1758011386.1295516,-1.0010676020262348,1.2389306700482803,2.1500085513901794,-0.5142517708192735,0.7717649101388108,-0.16130188730596678,-0.09728126949421245,2.9570704652976532e-06,-0.09325386000000001,-0.14610033,-9.81628821,0.003186,-0.000682,0.005682,0.05908234118333507
1758011386.150459,-0.9917284184672732,1.2242116217075636,2.149954406781429,-0.5109766245958428,0.770167828163752,-0.161482220125837,-0.09713910691070379,2.9351500985820047e-06,-0.09415638000000001,-0.14265702,-9.808499070000002,0.003143,-0.000183,0.002594,0.05482195594549573
1758011386.174652,-0.9933034752533163,1.2253232822991902,2.1498442204697197,-0.5108088276600854,0.7702622141495369,-0.1618325034871849,-0.09685128768706938,2.8745420050468362e-06,-0.09894366,-0.15088761,-9.83065986,0.002754,-0.001022,0.006019,0.05483986338010495
1758011386.1972353,-0.995463057513471,1.227977884006943,2.149797197300951,-0.5113405787604945,0.7704643530595254,-0.16200174478704743,-0.09670210099098679,2.829973544308055e-06,-0.09385227000000002,-0.15897105,-9.81,0.004122,-0.000731,0.004315,0.0553641407062144
1758011386.2180626,-0.9949256307227363,1.2265430812455316,2.149746050435734,-0.510893743300373,0.7702400480981946,-0.16217582781294115,-0.09656035930288076,2.80343175485838e-06,-0.09190989000000001,-0.14833701000000002,-9.818534699999999,0.003221,-0.00037,0.004271,0.054874501657572905
1758011386.2389178,-0.9958080311025949,1.2272662692188485,2.1496838236424836,-0.5109382574151039,0.770224604002739,-0.16234805831283222,-0.09641666851337388,2.7694933608898695e-06,-0.09056592000000001,-0.15163317,-9.81373761,0.004917,0.000551,0.003624,0.054963793289039456
1758011386.2598622,-0.9966266892515891,1.2278962178570008,2.149644525618827,-0.5108757162155136,0.7702367357958839,-0.16251875963157306,-0.09627334142688793,2.735573936913092e-06,-0.09236115,-0.1474443,-9.81793629,0.001722,-0.000132,0.004757,0.05500763997891844
1758011386.280264,-0.9966266892515891,1.2278962178570008,2.149644525618827,-0.5108757162155136,0.7702367357958839,-0.16251875963157306,-0.09627334142688793,2.735573936913092e-06,-0.09236115,-0.1474443,-9.81793629,0.001722,-0.000132,0.004757,0.05500763997891844
1758011386.300585,-0.9966266892515891,1.2278962178570008,2.149644525618827,-0.5108757162155136,0.7702367357958839,-0.16251875963157306,-0.09627334142688793,2.735573936913092e-06,-0.09236115,-0.1474443,-9.81793629,0.001722,-0.000132,0.004757,0.05500763997891844
1758011386.3217466,-1.0335542119441157,1.2835710789571149,2.1495629553528666,-0.5233487775123759,0.7764185364446957,-0.16251875963157306,-0.09627334142688793,2.735573936913092e-06,-0.09609875999999999,-0.15478218000000002,-9.819427410000001,0.004262,0.000344,0.003105,0.07110372293794956
1758011386.3469243,-1.0131080228465603,1.2514851902555646,2.149495578026343,-0.510849083821763,0.76990341594722,-0.16280389614666993,-0.09565662432585262,2.237492529020217e-06,-0.10432935000000002,-0.15701886,-9.82377324,0.002798,0.000281,0.004128,0.0569878093567837
1758011386.3675294,-1.003821564238934,1.2362338454060224,2.1493515031813715,-0.5077468302599595,0.7674497431662354,-0.16317832957392367,-0.09541632593335483,2.3537073452815045e-06,-0.10059174,-0.15268284000000001,-9.81239364,0.004005,0.001255,0.002483,0.05344242928755852
1758011386.387814,-0.9995159921071513,1.2290948055053916,2.1492791318800197,-0.5068769268985321,0.7666929630287918,-0.16339768982134242,-0.095311319075023,2.4271699978821087e-06,-0.09400923,-0.15806852999999998,-9.819731520000001,0.004423,0.000263,0.003546,0.05224048930619527
1758011386.4087925,-1.0093082986269957,1.243305298968387,2.149266517989978,-0.5102006014042968,0.7684406024933014,-0.16361402909991493,-0.0951913781322865,2.454207152343093e-06,-0.10208286000000001,-0.14340258,-9.831258270000001,0.002673,-0.000121,0.005245,0.0567973640811173
1758011386.429235,-1.0102577157889139,1.2441401834853574,2.149213542699222,-0.510802152548261,0.768783333153297,-0.16383498748871325,-0.09507337511534882,2.4779880448171023e-06,-0.09445068,-0.14804271000000002,-9.803711790000001,0.004506,-0.000104,0.004477,0.057524468272843715
1758011386.454495,-1.0015240763582538,1.2297864787643393,2.1491141673688565,-0.5082304981747852,0.7676901203183897,-0.1642674021398654,-0.09481810228297718,2.4608362419795312e-06,-0.09026181000000001,-0.14878827,-9.82631403,0.004804,-0.000204,0.004463,0.053882353231415187
1758011386.4748693,-1.0015240763582538,1.2297864787643393,2.1491141673688565,-0.5082304981747852,0.7676901203183897,-0.1642674021398654,-0.09481810228297718,2.4608362419795312e-06,-0.09026181000000001,-0.14878827,-9.82631403,0.004804,-0.000204,0.004463,0.053882353231415187
1758011386.4951677,-1.0015240763582538,1.2297864787643393,2.1491141673688565,-0.5082304981747852,0.7676901203183897,-0.1642674021398654,-0.09481810228297718,2.4608362419795312e-06,-0.09026181000000001,-0.14878827,-9.82631403,0.004804,-0.000204,0.004463,0.053882353231415187
1758011386.5168045,-1.0134613972771929,1.2469747877696584,2.14907938884501,-0.510395764688047,0.7689535499546433,-0.16458804606827962,-0.09444023765925501,2.1541449002517713e-06,-0.10269108,-0.15462522000000004,-9.80895033,0.003672,-0.00059,0.003699,0.05663467556361201
1758011386.5375695,-1.0044673143934857,1.2322497677692628,2.148973835563176,-0.5077705133300006,0.7674906580678713,-0.1650079292069818,-0.09419006867827041,2.1898759311875136e-06,-0.09684432000000001,-0.16136469,-9.79787484,0.004553,7e-05,0.003978,0.053076895998603754
1758011386.558423,-1.005064167378151,1.232596626592118,2.1489144308371237,-0.508067868679411,0.7678707531228424,-0.16522463197340653,-0.09406747114571544,2.2005974850109367e-06,-0.10014048,-0.14550192,-9.825715620000002,0.002982,4.9e-05,0.003928,0.053521839315786454
1758011386.5787714,-1.005064167378151,1.232596626592118,2.1489144308371237,-0.508067868679411,0.7678707531228424,-0.16522463197340653,-0.09406747114571544,2.2005974850109367e-06,-0.10014048,-0.14550192,-9.825715620000002,0.002982,4.9e-05,0.003928,0.053521839315786454
1758011386.601867,-1.0180892275067097,1.2518620228642745,2.1488659885834807,-0.5109235520694135,0.7701957947314033,-0.16538709880921448,-0.09389379686499504,2.075811675886779e-06,-0.10223982000000001,-0.14055768000000002,-9.81494424,0.003375,0.000201,0.003747,0.05795591633493466
1758011386.6223328,-1.0089141351064177,1.2369137537220498,2.1487519452200123,-0.5079606610234819,0.768320673143568,-0.16578847983724496,-0.09363753218820266,2.073791710318552e-06,-0.08442486000000002,-0.16495515000000002,-9.823469130000001,0.003378,0.000685,0.002932,0.053791461414380085
1758011386.6464245,-1.011890332208362,1.240914276432489,2.1487160272225667,-0.5089195743675495,0.7689647888313995,-0.16598698059719197,-0.09350355078377669,2.0503922389999096e-06,-0.10119015,-0.15538058999999999,-9.811795230000001,0.002818,0.000942,0.004587,0.05489274021343876
1758011386.6673667,-1.0075805275336678,1.233842239609969,2.1486528049592426,-0.5077469044602665,0.7683543853650784,-0.16620409014669071,-0.09338853000261968,2.0705150640139146e-06,-0.09744273000000002,-0.14864112000000002,-9.828109260000002,0.004201,-0.00029,0.003192,0.05328404630431252
1758011386.6890244,-1.0173822187153745,1.2481490188957687,2.148628104045704,-0.5109467256089467,0.7701558561655872,-0.16641759244754578,-0.09326613529115425,2.066800473218605e-06,-0.09415638000000001,-0.14086179000000001,-9.812246490000001,0.002829,-0.000801,0.0046,0.05760410411767926
1758011386.7099476,-1.0079161334928601,1.2333027239903682,2.1485792063306537,-0.5080242802735414,0.7686852214408647,-0.16663261499246795,-0.09314616381279106,2.0646909688910848e-06,-0.09415638000000001,-0.14086179000000001,-9.812246490000001,0.002829,-0.000801,0.0046,0.05360466165569304
1758011386.7349834,-1.0095538613494983,1.2347830082237505,2.1484502704239157,-0.5088152724483215,0.7693961104070894,-0.16704151106553192,-0.09288754412332759,2.0022049796208095e-06,-0.09640287000000002,-0.16330707,-9.80131815,0.003727,0.000217,0.003103,0.054074598394765125
1758011386.7568614,-1.011133153744177,1.2366804592313885,2.148428766013587,-0.5091474050857423,0.7698837607905449,-0.16723848505979766,-0.09275609133915746,1.963935138303907e-06,-0.09879651,-0.14594337000000002,-9.817485030000002,0.002498,-0.000267,0.00511,0.054537346448812064
1758011386.7778115,-1.0106916201518952,1.2355147998250509,2.148384024924221,-0.5088723912345213,0.7698011084409941,-0.16743746234605045,-0.09262952418617802,1.9373555624976105e-06,-0.0868185,-0.14385384,-9.820928340000002,0.003703,0.000273,0.0041,0.05421939903294433
1758011386.7981474,-1.012064083625983,1.2371126425434402,2.1483402028491465,-0.5091916973774502,0.770171149269821,-0.16762946579023394,-0.09249939675676212,1.900045815701442e-06,-0.09655002,-0.14909238,-9.81554265,0.003689,-0.000663,0.004049,0.05457480243971369
1758011386.818165,-1.0131489826875275,1.238275822062609,2.1482999382936043,-0.5093597750907486,0.7706629567658236,-0.16781478540287587,-0.09237010947497817,1.8641438575210375e-06,-0.10867518,-0.14773860000000003,-9.83829204,0.003053,-0.000387,0.004195,0.05475473042633415
1758011386.8406749,-1.0155341813862266,1.24143834224786,2.148255416569164,-0.5098665847101912,0.7708913423445972,-0.16798986796788448,-0.09223249438463628,1.806618054361314e-06,-0.08891784,-0.15373251000000002,-9.79697232,0.003308,0.001399,0.003829,0.05532917826552356
1758011386.861098,-1.0131903983943906,1.2374094148942398,2.1481947438702687,-0.5091230769594385,0.7704212582190524,-0.16817598949478726,-0.09210811081646487,1.784111246956514e-06,-0.09011466,-0.15732297,-9.83365191,0.002332,-0.001531,0.002826,0.05421300050224519
1758011386.8815515,-1.0131903983943906,1.2374094148942398,2.1481947438702687,-0.5091230769594385,0.7704212582190524,-0.16817598949478726,-0.09210811081646487,1.784111246956514e-06,-0.09011466,-0.15732297,-9.83365191,0.002332,-0.001531,0.002826,0.05421300050224519
1758011386.9020636,-1.026515824603747,1.2572765306152873,2.1481575711429945,-0.5124740795632354,0.7723329377032164,-0.16830107157316115,-0.09192215653463523,1.597713388676038e-06,-0.09430353000000001,-0.16046217000000002,-9.78679935,0.002757,-0.001351,0.003635,0.05850960046100931
1758011386.9226246,-1.0171853837685672,1.2422394105092713,2.148069393746092,-0.508816455834341,0.7701621436497343,-0.16863870901717382,-0.0916596526967177,1.5483786054595322e-06,-0.09520605,-0.15133887000000001,-9.81194238,0.004349,0.000308,0.004288,0.05402406245942014
1758011386.9432185,-1.0148035436030265,1.2381467861544269,2.148022652599934,-0.5081236807625236,0.76982351518677,-0.16883105654798397,-0.09154930770800516,1.5711061970561697e-06,-0.10358379000000001,-0.14579622,-9.81344331,0.005452,-0.000307,0.004227,0.05324409032773085
1758011386.9640145,-1.0163364503465857,1.2400200061721376,2.1479832538155037,-0.5086445182040414,0.7700798341669775,-0.16901743512079453,-0.09142895856468371,1.562069012421011e-06,-0.09415638000000001,-0.15253569,-9.844276140000002,0.00203,-6e-06,0.004308,0.05392046558855003
1758011386.9849772,-1.0158171069500017,1.2387713085942953,2.1479573365577256,-0.5084155053885228,0.7699501706426884,-0.16920687563638626,-0.09131073609150643,1.5556285404384892e-06,-0.08981055,-0.14564907000000002,-9.803711790000001,0.003227,-0.000864,0.005123,0.05373411610492257
1758011387.0061514,-1.0175057236855698,1.2408954215790897,2.147902501680301,-0.5090192126703315,0.7703346123771553,-0.16938830076669303,-0.09118356523280031,1.5223089466310254e-06,-0.09714843000000001,-0.15942231,-9.813590460000002,0.004555,-0.000414,0.003402,0.05431413581112595
1758011387.027086,-1.0174499928793,1.2403676122729301,2.1478796416382515,-0.5089925179922332,0.7704042375840082,-0.16956949014627276,-0.09105815804607263,1.4936299316842502e-06,-0.09714843000000001,-0.15672456,-9.825715620000002,0.003419,-0.000329,0.004997,0.05417320829923057
1758011387.04858,-1.0274397415667025,1.255056943713458,2.1478530070135733,-0.512125739024904,0.7719903301448939,-0.16974647757593816,-0.09092946227160138,1.4548174063053904e-06,-0.08935929000000001,-0.1588239,-9.82601973,0.003551,-0.001013,0.005174,0.058267303675149554
1758011387.0698173,-1.0178516503132744,1.2401080284141568,2.1478157275777106,-0.5088712675023845,0.7703003755297082,-0.16992720125197738,-0.09080538337963187,1.4290863577583003e-06,-0.08935929000000001,-0.1588239,-9.82601973,0.003551,-0.001013,0.005174,0.05403877053272928
1758011387.0901444,-1.0201636469615274,1.2431989227534093,2.147804667083765,-0.5094106795276335,0.770662094296266,-0.17009800404442832,-0.09067276743394208,1.3812026562469024e-06,-0.09131148000000001,-0.15402681000000001,-9.80026848,0.003551,-0.001013,0.005174,0.054735027276576934
1758011387.1104898,-1.0201636469615274,1.2431989227534093,2.147804667083765,-0.5094106795276335,0.770662094296266,-0.17009800404442832,-0.09067276743394208,1.3812026562469024e-06,-0.09131148000000001,-0.15402681000000001,-9.80026848,0.003551,-0.001013,0.005174,0.054735027276576934
1758011387.1319292,-1.0506472494532209,1.289316049625833,2.147760077600754,-0.5193006323256422,0.7762305343374551,-0.17009800404442832,-0.09067276743394208,1.3812026562469024e-06,-0.09355797,-0.14833701000000002,-9.83365191,0.002668,-0.000845,0.003487,0.06801995191609683
1758011387.1522658,-1.0403165237387462,1.273159967817702,2.147738124001214,-0.5123311242917402,0.7725896258033175,-0.17029667941191687,-0.09030252392197588,1.028484882039717e-06,-0.09415638000000001,-0.15328125,-9.799974180000001,0.003973,-0.000839,0.00383,0.060026415739296804
1758011387.1724803,-1.0256354082229509,1.2500825778558506,2.1476475388538017,-0.5072441332424362,0.7691089886554108,-0.17063278184479025,-0.09007231428331085,1.0850403416040545e-06,-0.10044459,-0.16390548000000002,-9.8415882,0.00366,-0.000801,0.003597,0.05369400863874598
1758011387.1928105,-1.0256354082229509,1.2500825778558506,2.1476475388538017,-0.5072441332424362,0.7691089886554108,-0.17063278184479025,-0.09007231428331085,1.0850403416040545e-06,-0.10044459,-0.16390548000000002,-9.8415882,0.00366,-0.000801,0.003597,0.05369400863874598
1758011387.2149942,-1.0294334176643598,1.2550803781832027,2.147557192458761,-0.5074605810313958,0.7692054050082454,-0.170953268065178,-0.08981577209073259,1.0480794181192485e-06,-0.09176274,-0.15223158,-9.83274939,0.002846,-0.001927,0.003557,0.054647935416816784
1758011387.2394488,-1.022873456020862,1.244251320122071,2.147469323244982,-0.5060030774456554,0.7679422184375753,-0.1713549486977089,-0.08961462538019198,1.1365699583558757e-06,-0.09325386000000001,-0.15507648,-9.81074556,0.003896,0.00017,0.003746,0.05264415585970286
1758011387.260404,-1.020653112176746,1.2404434178062482,2.1474220574054987,-0.5057632885735605,0.76778137191532,-0.17156749880996183,-0.08951630949151312,1.1734027284476667e-06,-0.09564750000000001,-0.15208443,-9.83379906,0.002867,0.00032,0.004123,0.05218863071001209
1758011387.28125,-1.0221741675193574,1.2423466626076731,2.147413472776263,-0.5065580831103438,0.7683412882656818,-0.17177323841500475,-0.08940691956977544,1.1768277246553292e-06,-0.09475478999999999,-0.15178032,-9.78859458,0.004189,-4.5e-05,0.005665,0.05306173372708262
1758011387.301843,-1.0216408269687272,1.241120842602688,2.147379670012162,-0.5065718125401085,0.768501112622611,-0.17197989958088097,-0.08929811818271596,1.1778627411412106e-06,-0.09160578000000001,-0.14534496,-9.830807010000001,0.002223,-0.000671,0.004557,0.053021669381716444
1758011387.3220131,-1.0233951505710177,1.2433918915950666,2.147325313083992,-0.5073043230875189,0.7692173873751312,-0.17217703923921213,-0.08918113190903751,1.1533564253286696e-06,-0.09999333,-0.15297714,-9.80595828,0.004152,-2.9e-05,0.003335,0.0537428369420329
1758011387.3425047,-1.0226604360078677,1.2418765129152984,2.1473116365529643,-0.5071952790736408,0.7692191687779372,-0.17237596743806305,-0.08906742975809424,1.1375660244686889e-06,-0.08592579,-0.14954364,-9.817485030000002,0.003598,-0.000344,0.005502,0.0534587989886997
1758011387.3635285,-1.0246233879418167,1.2444725397616092,2.147272431756189,-0.5077885112195285,0.7700277527779916,-0.17256387824379255,-0.08894857260050616,1.1058228723920297e-06,-0.10492776000000001,-0.14789556,-9.83200383,0.00384,-0.000585,0.003926,0.054134741135350974
1758011387.38445,-1.0235860465522764,1.2425061528338963,2.147234406017189,-0.5075971377763435,0.7700785992455103,-0.1727540237989754,-0.08883558471233736,1.0890863400807748e-06,-0.09729558,-0.15328125,-9.807459210000001,0.003427,-0.000676,0.004029,0.05365628488008418
1758011387.405129,-1.025383404324755,1.2448699665215577,2.1471926814464206,-0.5081392310130327,0.7704163371776064,-0.17293560585911552,-0.08871495840540836,1.0504335207985204e-06,-0.08696565,-0.15208443,-9.84398184,0.002592,-0.000983,0.003717,0.05422749335413211
1758011387.4265573,-1.0252925704697717,1.244357621091473,2.1471746142839443,-0.5080467157762845,0.7704219042205412,-0.17311680099412613,-0.08859707893721613,1.0202160915132063e-06,-0.08712261,-0.14954364,-9.795334050000001,0.004325,-0.000914,0.004946,0.054041173832485606
1758011387.446935,-1.025956235521454,1.2449937530033413,2.1471552197308377,-0.5081826264304263,0.7708058408041264,-0.17329304543934948,-0.08848005948476576,9.922211110786953e-07,-0.10193571,-0.14909238,-9.832150980000002,0.002333,-0.002066,0.004835,0.0541498731152959
1758011387.4671233,-1.0258753529697806,1.2444976729473896,2.1471007091517356,-0.5081403384843212,0.7710977314502908,-0.17346731002534366,-0.08836666896778418,9.717999184882716e-07,-0.10717425000000001,-0.15014205,-9.80985285,0.004284,-0.000364,0.003052,0.05398617385581324
1758011387.4875576,-1.0258753529697806,1.2444976729473896,2.1471007091517356,-0.5081403384843212,0.7710977314502908,-0.17346731002534366,-0.08836666896778418,9.717999184882716e-07,-0.10717425000000001,-0.15014205,-9.80985285,0.004284,-0.000364,0.003052,0.05398617385581324
1758011387.5085192,-1.0333452849232292,1.2552731648767999,2.147002208767794,-0.5090751163270419,0.771822518870919,-0.17373246465296363,-0.08807743126433283,7.697743527513776e-07,-0.09460764,-0.1502892,-9.81793629,0.004077,-0.000255,0.004579,0.05539392099615609
1758011387.528687,-1.0365121038794087,1.2597038409233863,2.1469497283681616,-0.5104011609244312,0.7723022207111178,-0.17390519716617941,-0.08797417433143981,7.878516303642631e-07,-0.09520605,-0.16765290000000002,-9.82197801,0.002409,-0.000897,0.003788,0.056908275729181765
1758011387.5495481,-1.0268539548033586,1.2446674639062563,2.146913685440123,-0.5073724322077845,0.7704558640876784,-0.17408458813603336,-0.0878717201842383,8.023409386903386e-07,-0.09520605,-0.16765290000000002,-9.82197801,0.002409,-0.000897,0.003788,0.05297660522649762
1758011387.5695114,-1.029223411336504,1.2479216770913064,2.1468934413725353,-0.5080570692207009,0.7710542610763982,-0.17425328048974612,-0.08775898126206755,7.848791802866787e-07,-0.10104300000000001,-0.14969079000000002,-9.80626239,0.006571,-0.001201,0.004651,0.05393552301621133
1758011387.5896573,-1.0354101097515815,1.2570316371625108,2.1468743370554684,-0.5094807872091232,0.7717713655694791,-0.17439625041643056,-0.08762114426551432,6.983652615388775e-07,-0.08562168,-0.15342840000000002,-9.83065986,0.003459,-0.000552,0.004174,0.055928745939597374
1758011387.6136525,-1.0282232615941265,1.2453906169294338,2.1468087002143825,-0.5071485274650038,0.7703573660340249,-0.17474194976662089,-0.08740828209562157,7.036276537133766e-07,-0.09520605,-0.14969079000000002,-9.799522920000001,0.004791,-0.001362,0.004133,0.053008148655617496
1758011387.6360655,-1.0298742067229807,1.2475657764418593,2.1467825900709983,-0.5078831779570212,0.7708768510789126,-0.1749114256243019,-0.08729659047705637,6.866004649536323e-07,-0.10164141000000002,-0.16091343000000002,-9.8128449,0.003301,-0.000727,0.004398,0.05370280246049355
1758011387.6568244,-1.0290739169445937,1.246006802195892,2.1467728460974893,-0.5077895278642404,0.7706782169445362,-0.17508405254688814,-0.08718603925984128,6.724776175383152e-07,-0.08622009,-0.16076628,-9.83709522,0.001423,-0.000537,0.005438,0.05340377200380034
1758011387.6789875,-1.0321499275167478,1.2503635059836395,2.146760437937621,-0.5085979556840455,0.7713259682827404,-0.1752427877989693,-0.08706398738383796,6.262383346970677e-07,-0.09564750000000001,-0.15387966,-9.80490861,0.003845,-0.000346,0.004719,0.054455254901774906
1758011387.6992266,-1.0305835512903971,1.2476417017693535,2.1467335367448577,-0.5080399245763347,0.7711285221082648,-0.1754080399894288,-0.08695201470860778,6.085148748417338e-07,-0.09849240000000001,-0.15282999000000003,-9.825715620000002,0.003115,0.000532,0.004403,0.05372359780027813
1758011387.7201385,-1.0330095514423419,1.2510265517208847,2.146683992327869,-0.5088044634557187,0.7713961380953385,-0.17556266277751703,-0.0868276435610429,5.552610914925403e-07,-0.08562168,-0.16420959000000002,-9.81090252,0.002883,-0.000492,0.003114,0.05448673085910387
1758011387.7403927,-1.0319672652414749,1.2491122055692443,2.1466512495658563,-0.5083407981483395,0.7712669447489923,-0.17572174390863787,-0.08671172685568794,5.263536380413957e-07,-0.09729558,-0.15418377,-9.816739470000002,0.003301,-0.000829,0.003868,0.05392464403137096
1758011387.7611742,-1.0332335624023576,1.2507171684784977,2.1466369978834763,-0.5084017149491233,0.7714365443779053,-0.17587597232328975,-0.08659424029582391,4.929456028749659e-07,-0.09086022,-0.14564907000000002,-9.80969589,0.003425,0.000855,0.004744,0.05425600155722171
1758011387.781608,-1.0332335624023576,1.2507171684784977,2.1466369978834763,-0.5084017149491233,0.7714365443779053,-0.17587597232328975,-0.08659424029582391,4.929456028749659e-07,-0.09086022,-0.14564907000000002,-9.80969589,0.003425,0.000855,0.004744,0.05425600155722171
1758011387.8088603,-1.0486134840053172,1.273939577011985,2.1466586893467685,-0.5120815199590318,0.7738579636751574,-0.1759571311199094,-0.08641351930667167,2.8355972323071783e-07,-0.09624591,-0.16091343000000002,-9.80476146,0.003959,-0.000981,0.004515,0.05912989684733118
1758011387.8296442,-1.0385491116544558,1.2580596494992378,2.1466180059401934,-0.5077764054031184,0.7709507194823256,-0.17622436383447715,-0.08617135969880883,2.4891586621089746e-07,-0.09714843000000001,-0.15148602000000003,-9.823027680000001,0.003303,0.000385,0.005561,0.0541215072064578
1758011387.8541439,-1.032099634686174,1.247571515650353,2.1465239148439146,-0.5062588584636616,0.7697143455118356,-0.17657317062525052,-0.08598504107335227,3.443600366007601e-07,-0.09116433,-0.15223158,-9.813139200000002,0.003889,0.000145,0.003682,0.052220763048844224
1758011387.8775575,-1.0341437547447387,1.2503722592164868,2.1465067089994996,-0.5070044149231249,0.7701989541767705,-0.17674331614378633,-0.08588012247656965,3.493800487439466e-07,-0.09385227000000002,-0.15163317,-9.81090252,0.003908,0.0013,0.004865,0.05323182340760399
1758011387.8976858,-1.0325897407615747,1.2476818497532158,2.1464735801815467,-0.5066505821908082,0.76997304123379,-0.17691974708908229,-0.08577934055991875,3.615600214737132e-07,-0.08891784,-0.15014205,-9.8128449,0.003209,-0.001206,0.004248,0.0527812337669611
1758011387.9177077,-1.0325897407615747,1.2476818497532158,2.1464735801815467,-0.5066505821908082,0.76997304123379,-0.17691974708908229,-0.08577934055991875,3.615600214737132e-07,-0.09325386000000001,-0.14833701000000002,-9.818534699999999,0.003209,-0.001206,0.004248,0.0527812337669611
1758011387.9377856,-1.0338028819302298,1.24893396576238,2.1464185555888324,-0.506704395891616,0.7703555891880924,-0.17724443205643534,-0.08555622915814148,3.2257689153015667e-07,-0.10059174,-0.1474443,-9.81494424,0.004822,0.000843,0.004018,0.05302220676616912
1758011387.9589398,-1.0363328629119133,1.2524938619851662,2.146378250219257,-0.5072872275204715,0.7707517268772115,-0.17740748636635342,-0.0854463808333612,3.0418125404049184e-07,-0.08607294000000001,-0.14414814,-9.80281908,0.003597,-0.000972,0.003655,0.05397104862758252
1758011387.9795332,-1.0343019024871682,1.249091266421877,2.1463461518422644,-0.5067859716294181,0.7705280523754532,-0.1775780423282872,-0.08534519619672885,3.0807769798777287e-07,-0.09759969,-0.15373251000000002,-9.83425032,0.002202,-0.000631,0.004111,0.05317628030084974
1758011388.0002296,-1.036086794417955,1.2515139331462013,2.1462943669581147,-0.5072212710457172,0.7710806600127708,-0.17773990308455,-0.08523875284109592,2.929476960207537e-07,-0.09909081000000002,-0.14505066000000003,-9.81733788,0.002422,-0.001708,0.003099,0.053826410682732265
1758011388.0208192,-1.0346485106788434,1.2490164637143486,2.1462781398286577,-0.5067966120185233,0.7709884230179179,-0.17790674047942484,-0.08513985512663672,2.975757155136032e-07,-0.09968922,-0.14534496,-9.81404172,0.004148,0.000313,0.005049,0.053246769751834525
1758011388.0409646,-1.0361684886601041,1.2510489178722521,2.1462659947495855,-0.5074098342424403,0.7714776100003264,-0.17806505198392392,-0.08503434771536693,2.8254784841780533e-07,-0.09999333,-0.15701886,-9.813590460000002,0.005517,-0.000947,0.004859,0.05378102792102887
1758011388.0616546,-1.0357538555084413,1.2501284948508666,2.146243966795044,-0.5073398697136776,0.7714091688532755,-0.17822436485308663,-0.08493055186419858,2.7170554410263257e-07,-0.09086022,-0.15433092,-9.818534699999999,0.002603,0.000645,0.004498,0.053543622292383936
1758011388.0820084,-1.0357538555084413,1.2501284948508666,2.146243966795044,-0.5073398697136776,0.7714091688532755,-0.17822436485308663,-0.08493055186419858,2.7170554410263257e-07,-0.09086022,-0.15433092,-9.818534699999999,0.002603,0.000645,0.004498,0.053543622292383936
1758011388.1021287,-1.0494119501264416,1.270742026148782,2.1462043378231783,-0.5100593045755019,0.7737594563337509,-0.17832346235600974,-0.0847834026935705,1.3551490085196698e-07,-0.09655002,-0.13950801,-9.80071974,0.002982,-0.000317,0.003425,0.05798461758065464
1758011388.1225445,-1.0397130499600935,1.2554202632157971,2.146143939891754,-0.5065211959373724,0.771048655028735,-0.17861111860410814,-0.08457853857719368,1.4243211045937941e-07,-0.08951625,-0.16420959000000002,-9.812246490000001,0.003531,-0.000693,0.004143,0.05341234762623801
1758011388.1427367,-1.0364641780404373,1.2501672525737448,2.1460991415145685,-0.5057955563453836,0.7704209754274806,-0.1787813569716869,-0.08449241861171128,1.8342672000593504e-07,-0.09490194,-0.15223158,-9.82631403,0.003456,-0.000504,0.003398,0.0523832536037003
1758011388.1632483,-1.0375865088899505,1.2515952469259295,2.146052627474167,-0.5061896578522699,0.7707179756219844,-0.17894694471837924,-0.08439927666341891,1.975382670513458e-07,-0.09445068,-0.14295132,-9.8216739,0.003839,-0.000359,0.003422,0.053021585435124585
1758011388.1840382,-1.0367584126198601,1.2500488882757648,2.1460165143338656,-0.50602874832128,0.7703844682537507,-0.17911674374947023,-0.08430562609179629,2.0598305002358748e-07,-0.07619427,-0.14505066000000003,-9.80521272,0.003248,-1.1e-05,0.003783,0.05283456609141578
1758011388.204322,-1.0380960398495744,1.2518256961840801,2.145986099981716,-0.5066406130241222,0.770535385437871,-0.17928076616688937,-0.08420238971984968,1.852493004443044e-07,-0.08098155,-0.15732297,-9.81,0.004975,0.000157,0.003892,0.05339988061959901
1758011388.2243304,-1.037603497990519,1.2507978893748277,2.14595979991331,-0.5065409543847164,0.7705698898744415,-0.17944581177400673,-0.08410138822284284,1.6969790291383513e-07,-0.09116433,-0.14954364,-9.817485030000002,0.003691,-0.001987,0.004087,0.053213533293416104
1758011388.2445035,-1.0400201347116431,1.254222338509366,2.1459152872135405,-0.5071452737812921,0.7711606133350081,-0.17959968515301858,-0.08399272744785631,1.3026119548254874e-07,-0.09355797,-0.14804271000000002,-9.807155100000001,0.004268,-0.000484,0.003151,0.05403484507109835
1758011388.265276,-1.038150934359674,1.251099478424909,2.1459008606292613,-0.5066123846263757,0.7709171548460428,-0.1797606388747151,-0.08389330241466754,1.1825893458964687e-07,-0.09385227000000002,-0.15088761,-9.824822910000002,0.002203,0.000307,0.004802,0.05324133946159412
1758011388.2862217,-1.0397760482289828,1.2533267421361038,2.1458989726826,-0.5071748511509911,0.7711866580480976,-0.17991399280431752,-0.08378621079456432,8.513238965621002e-08,-0.09968922,-0.16615197,-9.82646118,0.002358,-0.000533,0.00502,0.05379090866674509
1758011388.3068113,-1.0387587650411858,1.2515150890209288,2.145890418948042,-0.5070976619384212,0.771202931549361,-0.1800694812919154,-0.08368300401581409,6.456189671919255e-08,-0.09968922,-0.16615197,-9.82646118,0.002358,-0.000533,0.00502,0.05333348380066106
1758011388.3333945,-1.0393287646382146,1.2518696625751022,2.1458137405092774,-0.5072451255671164,0.7714941188998413,-0.18037033683239262,-0.08347623049279565,1.701529619032003e-08,-0.08846658,-0.16974243,-9.81074556,0.004793,-0.001398,0.003396,0.05339724000960165
1758011388.3537555,-1.0393287646382146,1.2518696625751022,2.1458137405092774,-0.5072451255671164,0.7714941188998413,-0.18037033683239262,-0.08347623049279565,1.701529619032003e-08,-0.08846658,-0.16974243,-9.81074556,0.004793,-0.001398,0.003396,0.05339724000960165
1758011388.375178,-1.063310504731436,1.288344673394022,2.1457742739398595,-0.5151986794802317,0.7764929624733894,-0.18037033683239262,-0.08347623049279565,1.701529619032003e-08,-0.09355797,-0.15193728,-9.81808344,0.004793,-0.001398,0.003396,0.06384450609684399
1758011388.3957744,-1.0529806240197737,1.2725345783298083,2.145782271547514,-0.5103669577046461,0.7738298584389667,-0.18046015445723115,-0.08332307511860365,-1.5248261792747844e-07,-0.09355797,-0.15193728,-9.81808344,0.004793,-0.001398,0.003396,0.057849412496400424
1758011388.4157948,-1.0497318829067368,1.2671678833803024,2.1457882861356463,-0.5076712624259467,0.7720134198805236,-0.18066473227578522,-0.08307560103071421,-2.7632714591966905e-07,-0.09355797,-0.15567489,-9.83814489,0.001876,-0.000599,0.004447,0.05495335329384281
1758011388.4394474,-1.0426276277926474,1.2558128002684448,2.14574802809555,-0.5056087474891087,0.7702378584889603,-0.18096558837599458,-0.0828986889564227,-1.974788139430422e-07,-0.09265545000000001,-0.15088761,-9.81299205,0.003768,-9.4e-05,0.004992,0.05249217283572544
1758011388.4598448,-1.041493924321495,1.2538253571694304,2.1457012148373567,-0.5055069742525194,0.7699131022772948,-0.1811268146799848,-0.0828098639844664,-1.7006374463813139e-07,-0.08217837000000001,-0.15282999000000003,-9.80670384,0.003084,-0.000332,0.003168,0.05235813045091273
1758011388.4802964,-1.040954435166672,1.252743229792312,2.145646945240596,-0.5055819054051721,0.7700212517560773,-0.18128933192352475,-0.08271916800070589,-1.5489521491841013e-07,-0.09595161,-0.15133887000000001,-9.801171,0.00433,0.00024,0.002688,0.05241960240167411
1758011388.501283,-1.0422187358244646,1.2544323476573904,2.145641682887307,-0.506255537377581,0.7704414127234217,-0.18144543752333625,-0.08261996947647737,-1.6592652691994827e-07,-0.0928026,-0.15986376000000002,-9.84398184,0.003194,-0.000245,0.004973,0.053050326025620306
1758011388.5220118,-1.0423579261511458,1.254397526663223,2.1456467185252412,-0.5062878312336331,0.7705946342053125,-0.18160039714590595,-0.08252093981978395,-1.766704391731455e-07,-0.09056592000000001,-0.14759145,-9.80101404,0.003915,-0.001532,0.005592,0.05314507134944667
1758011388.542678,-1.0409082717415536,1.2519339130112002,2.145626348277897,-0.5059230271341985,0.7704263024096919,-0.18176062007026894,-0.08242708812644743,-1.7426206945304747e-07,-0.08712261,-0.14654178,-9.82676529,0.003317,-0.001729,0.004461,0.05267395015339095
1758011388.5630493,-1.0438960381278692,1.2562688609136923,2.1456065053552145,-0.5068568741015549,0.7711628613323939,-0.1819072474510981,-0.08232156777436567,-2.0684191164903935e-07,-0.09190989000000001,-0.15328125,-9.818829,0.002639,-0.000289,0.004133,0.05378532196039797
1758011388.5837321,-1.0414458472223878,1.2522852050489892,2.1455841873561976,-0.5061739159535875,0.7708200337345102,-0.18206327332221875,-0.08222690612867962,-2.0796050044209146e-07,-0.09086022,-0.14969079000000002,-9.8068608,0.003168,-0.000465,0.004273,0.052825825931106254
1758011388.60413,-1.0439080975714992,1.2558222274841775,2.145545563733231,-0.5069821507070755,0.7714513463271065,-0.18220746420678938,-0.08212230262850945,-2.4007196162236304e-07,-0.0925083,-0.15538058999999999,-9.83634966,0.003044,0.001214,0.003328,0.053720855581088425
1758011388.6249037,-1.0420802859061018,1.2527979927136652,2.1455483235985238,-0.5065767619455012,0.771253207370956,-0.18235786161094317,-0.08202545090073941,-2.479407119198716e-07,-0.09430353000000001,-0.1591182,-9.79233219,0.005362,-0.000355,0.005763,0.05297942128037869
1758011388.646078,-1.0437349133350136,1.2550968902297093,2.1454831809918193,-0.5070168271526208,0.7717993072291489,-0.18249969570930757,-0.08192374154771023,-2.739664531760028e-07,-0.08292393,-0.14235291,-9.807302250000001,0.003111,-0.00012,0.002483,0.05356324213048062
1758011388.6660745,-1.0426720074938018,1.2532419684291343,2.14543428697003,-0.5065624023630921,0.771549471954036,-0.18264615626293762,-0.08182772631834764,-2.8538101798401037e-07,-0.08292393,-0.14235291,-9.807302250000001,0.003111,-0.00012,0.002483,0.053103498884869496
1758011388.686463,-1.0426720074938018,1.2532419684291343,2.14543428697003,-0.5065624023630921,0.771549471954036,-0.18264615626293762,-0.08182772631834764,-2.8538101798401037e-07,-0.08292393,-0.14235291,-9.807302250000001,0.003111,-0.00012,0.002483,0.053103498884869496
1758011388.7090406,-1.0600508499191974,1.2796669784923609,2.145406886712653,-0.5104940803939715,0.7751757099481124,-0.18271165697734215,-0.0816762348804144,-4.630215937811612e-07,-0.10628154000000001,-0.14789556,-9.80191656,0.004103,0.000517,0.003469,0.05880106816355879
1758011388.7293284,-1.0497163371268559,1.2634911421384158,2.145371285348218,-0.5062408205474098,0.772142319310182,-0.1829466993933218,-0.08147970687932016,-4.642702147228232e-07,-0.10987200000000001,-0.14385384,-9.799375770000001,0.003726,-0.000774,0.004489,0.053683510244831506
1758011388.7493494,-1.0452802048194545,1.256474673371875,2.145330183503196,-0.5051388481020325,0.7711419268958091,-0.1830988932037464,-0.08140338306044054,-4.0921064687446825e-07,-0.0981981,-0.15433092,-9.83320065,0.003605,0.000223,0.003009,0.05218874024991451
1758011388.7757654,-1.0442578087934096,1.2544781920398578,2.145251658577253,-0.5052024000452439,0.7706471295913462,-0.18340149587753718,-0.08122988695947093,-3.7883485825735937e-07,-0.08592579,-0.14954364,-9.80969589,0.00392,0.000417,0.005446,0.05218903543098164
1758011388.7965827,-1.043897090016611,1.2537012698068397,2.1452525587285045,-0.5053891821641069,0.770743220285743,-0.1835599178120192,-0.08114439273370028,-3.647667060466785e-07,-0.09355797,-0.15282999000000003,-9.82676529,0.00392,0.000417,0.005446,0.052309220245576896
1758011388.8173997,-1.0440137886761944,1.2536580578682255,2.1452048246862514,-0.5056692475323725,0.7709915976146917,-0.18371632358574028,-0.08105551131928097,-3.65287739489216e-07,-0.09475478999999999,-0.15268284000000001,-9.80461431,0.004208,0.000417,0.002759,0.052537944992678304
1758011388.8392642,-1.0467572984226812,1.257647651074447,2.145181219896502,-0.506585721389356,0.7717813339131803,-0.18385962382232862,-0.08095623310558933,-3.9789388118891526e-07,-0.09744273000000002,-0.15433092,-9.823920390000001,0.00291,-0.00063,0.003784,0.05358142021438643
1758011388.859706,-1.0467572984226812,1.257647651074447,2.145181219896502,-0.506585721389356,0.7717813339131803,-0.18385962382232862,-0.08095623310558933,-3.9789388118891526e-07,-0.09744273000000002,-0.15433092,-9.823920390000001,0.00291,-0.00063,0.003784,0.05358142021438643
1758011388.879919,-1.0473236068229108,1.258122697611015,2.145172403684784,-0.5061683810865324,0.7717311693815743,-0.18412286288033924,-0.0807530014997481,-4.681868006965085e-07,-0.08547453,-0.15358536,-9.80521272,0.003177,-0.000487,0.004416,0.05320942163211066
1758011388.9004376,-1.044549931835768,1.2536648241312096,2.1451437040550143,-0.5055898283749802,0.7712821828312808,-0.18427625030327874,-0.08066916109546492,-4.515537995645076e-07,-0.09430353000000001,-0.15642045000000002,-9.82766781,0.002143,-0.000333,0.003672,0.05228038162092564
1758011388.9209335,-1.0472277192188038,1.2575508336679921,2.1451368167613003,-0.5062603658544516,0.7720879996649811,-0.18441751002296516,-0.08057760541263753,-4.606084112736214e-07,-0.10028763,-0.14086179000000001,-9.80610543,0.003533,-0.000184,0.004595,0.05336894253044935
1758011388.9418705,-1.0447262626175098,1.253506922034807,2.1451331451437152,-0.5055930889151737,0.77177591814178,-0.1845680416337487,-0.08049560710256512,-4.428053531661351e-07,-0.10104300000000001,-0.14280417,-9.80985285,0.003198,5.3e-05,0.005446,0.052466155053272304
1758011388.9629,-1.048253980233076,1.258725550432547,2.1451394901923297,-0.5068365914310649,0.7723961551536607,-0.18470304550333616,-0.08039743590211039,-4.723589633974496e-07,-0.0868185,-0.15897105,-9.80266212,0.003676,0.000629,0.004959,0.05377660007459292
1758011388.9833434,-1.048253980233076,1.258725550432547,2.1451394901923297,-0.5068365914310649,0.7723961551536607,-0.18470304550333616,-0.08039743590211039,-4.723589633974496e-07,-0.0868185,-0.15897105,-9.80266212,0.003676,0.000629,0.004959,0.05377660007459292
1758011389.008967,-1.0526967826451745,1.2651854657941761,2.1451117425529524,-0.5067013049885016,0.7726408147171064,-0.18491909487712482,-0.08018122331413818,-5.803826306015956e-07,-0.09131148000000001,-0.15866694,-9.82152675,0.002205,-0.001747,0.00343,0.054285983588120444
1758011389.029791,-1.0477820144667778,1.2574604748244425,2.1450986171496407,-0.5053163868909561,0.7716251327105788,-0.1850640474185306,-0.08010347556834338,-5.416012689055789e-07,-0.08981055,-0.15282999000000003,-9.832150980000002,0.002041,0.0002,0.003784,0.05243893276962717
1758011389.0538921,-1.0458060503669173,1.254031962031727,2.145042722814134,-0.5053762768966148,0.7714073532372734,-0.18536215598286734,-0.07994241815297412,-4.96562806247081e-07,-0.0981981,-0.15837263999999998,-9.81164808,0.002502,-0.000667,0.004008,0.05213497419406718
1758011389.0764885,-1.047328359745171,1.256165563991885,2.1450052170887695,-0.5059111897752333,0.7718422917828256,-0.1855058996806101,-0.07985475250672455,-5.016791067860251e-07,-0.09220419,-0.14699304000000002,-9.821821049999999,0.003537,-0.001176,0.003311,0.05285063858989908
1758011389.0969746,-1.045752815680202,1.2535521933594294,2.144968785963697,-0.5056115028945104,0.7717363515906878,-0.18565447611310948,-0.07977160099741924,-4.963395412191168e-07,-0.09714843000000001,-0.14923953,-9.80581113,0.003184,0.000411,0.003123,0.052350958745087016
1758011389.1173954,-1.045752815680202,1.2535521933594294,2.144968785963697,-0.5056115028945104,0.7717363515906878,-0.18565447611310948,-0.07977160099741924,-4.963395412191168e-07,-0.09714843000000001,-0.14923953,-9.80581113,0.003184,0.000411,0.003123,0.052350958745087016
1758011389.1398072,-1.049511960108396,1.2589764565779762,2.1449238038556206,-0.5062817024886214,0.7724652949616729,-0.18590138190431066,-0.07957235446013144,-5.812012477795541e-07,-0.08891784,-0.14969079000000002,-9.82032993,0.002933,-0.001275,0.004237,0.05323470186581218
1758011389.1601815,-1.0482186411460521,1.2568029750488938,2.1448857438870936,-0.5058557286408678,0.7722514656974282,-0.1860413316997153,-0.07948872107835417,-5.762810941794833e-07,-0.09490194,-0.14265702,-9.80505576,0.0026,-0.001015,0.002956,0.05276897112668137
1758011389.1805613,-1.0465906405958487,1.254122260764075,2.1448930368392265,-0.5057182860923181,0.7719755819248523,-0.18618660860249847,-0.07940668223461277,-5.67345112607632e-07,-0.09040896000000001,-0.16165899,-9.815238540000001,0.002731,7.2e-05,0.005793,0.05227994952376692
1758011389.2016022,-1.0494238104602187,1.2582893944294142,2.14487081102628,-0.506739570767956,0.7725657104828506,-0.18631905486233394,-0.07931154877893873,-5.991521592851689e-07,-0.08921214,-0.15851979,-9.81059841,0.002611,-0.001009,0.003766,0.05338043638950152
