timestamp,accel_x,accel_y,accel_z,gyro_x,gyro_y,gyro_z,mag_x,mag_y,mag_z,gps_lat,gps_lon,gps_alt,gps_accuracy,gps_speed,gps_course,pressure,altitude,roll,pitch,yaw
839839.854179,-9.5378706,-0.03278502,-2.8322647200000004,0.005601,0.002889,0.006019,-105.522339,102.885696,-191.40654,60.187681,24.830107,13.659874,19.032912,-1.0,-1.0,100.60955,-0.687,-1.270636,0.013655,-0.803588
839839.914132,-9.465266790000001,-0.22108797000000002,-2.81145771,0.002921,-0.0034,0.003861,-105.585449,102.641495,-191.617676,60.187681,24.830107,13.659874,19.032912,-1.0,-1.0,100.60955,-0.687,-1.270552,0.013645,-0.803536
839839.934116,-9.42066072,-0.08562168,-2.8797156900000003,-0.004162,0.003292,0.00142,-105.787643,102.779861,-191.514877,60.187681,24.830107,13.659874,19.032912,-1.0,-1.0,100.60955,-0.687,-1.270621,0.013621,-0.803492
839839.954101,-9.3209715,-0.01466595,-3.0292495200000005,0.011582,-0.002312,0.008824,-105.500748,102.724686,-191.605133,60.187681,24.830107,13.659874,19.032912,-1.0,-1.0,100.60955,-0.687,-1.270615,0.01365,-0.803619
839839.974085,-9.446559120000002,-0.14773860000000003,-2.8367478900000003,0.003721,0.004535,0.004128,-105.500748,102.724686,-191.605133,60.187681,24.830107,13.659874,19.032912,-1.0,-1.0,100.60955,-0.687,-1.270607,0.013656,-0.803611
839840.014054,-9.31497759,-0.11840670000000002,-2.97536319,0.002734,-0.002646,0.004246,-105.675751,102.767075,-191.361206,60.187681,24.830107,13.659874,19.032912,-1.0,-1.0,100.60955,-0.687,-1.270546,0.013645,-0.803548
839840.014054,-9.31497759,-0.11840670000000002,-2.97536319,0.002734,-0.002646,0.004246,-105.675751,102.767075,-191.361206,60.187681,24.830107,13.659874,19.032912,-1.0,-1.0,100.60955,-0.687,-1.270546,0.013645,-0.803548
839840.054022,-9.453445740000001,-0.10687995,-2.8611453600000005,0.003573,0.003165,0.003826,-105.722,102.688309,-191.484665,60.187681,24.830107,13.659874,19.032912,-1.0,-1.0,100.60955,-0.687,-1.270642,0.013645,-0.803578
839840.054022,-9.453445740000001,-0.10687995,-2.8611453600000005,0.003573,0.003165,0.003826,-105.722,102.688309,-191.484665,60.187681,24.830107,13.659874,19.032912,-1.0,-1.0,100.60955,-0.687,-1.270642,0.013645,-0.803578
839840.074007,-9.33324381,-0.17858124000000003,-2.9476695600000005,0.00175,-0.000509,0.006816,-105.665771,102.768463,-191.797485,60.187681,24.830107,13.659874,19.032912,-1.0,-1.0,100.60955,-0.687,-1.270587,0.013637,-0.803566
839840.093991,-9.41616774,-0.15387966,-2.87701794,0.004739,-0.006671,0.003972,-105.682236,102.672714,-191.651047,60.187681,24.830107,13.659874,19.032912,-1.0,-1.0,100.60955,-0.687,-1.27055,0.013635,-0.803565
839840.13396,-9.35673876,-0.0865242,-2.96383644,0.007714,-0.002091,0.007966,-105.449768,102.762329,-191.58255,60.187681,24.830107,13.659874,19.032912,-1.0,-1.0,100.60955,-0.687,-1.270615,0.013649,-0.803617
839840.153944,-9.402698610000002,-0.15223158,-2.9047115700000004,0.00232,-0.000856,0.003483,-105.546005,102.566437,-191.50174,60.187681,24.830107,13.659874,19.032912,-1.0,-1.0,100.60955,-0.687,-1.270567,0.013633,-0.803615
839840.173929,-9.4425174,-0.17917965,-2.8479803400000003,0.000676,-6.8e-05,0.004036,-105.568985,102.539734,-191.837448,60.187681,24.830107,13.659874,19.032912,-1.0,-1.0,100.60955,-0.687,-1.270587,0.01362,-0.80356
839840.173929,-9.4425174,-0.17917965,-2.8479803400000003,0.000676,-6.8e-05,0.004036,-105.568985,102.539734,-191.837448,60.187681,24.830107,13.659874,19.032912,-1.0,-1.0,100.60955,-0.687,-1.270587,0.01362,-0.80356
839840.213897,-9.386678880000002,-0.08996751000000001,-2.9156399100000003,0.003192,0.001177,0.005928,-105.636459,102.727829,-191.328552,60.187681,24.830107,13.659874,19.032912,-1.0,-1.0,100.60955,-0.687,-1.270589,0.013642,-0.803639
839840.233882,-9.43891713,-0.14369688,-2.85711345,0.004891,-0.000468,0.003453,-105.747238,102.758316,-191.719147,60.187681,24.830107,13.659874,19.032912,-1.0,-1.0,100.60955,-0.687,-1.270607,0.013652,-0.803618
839840.253866,-9.37125756,-0.15837263999999998,-2.9079979199999997,0.001506,0.000745,0.005068,-105.595367,102.483139,-191.465042,60.187681,24.830107,13.659874,19.032912,-1.0,-1.0,100.60955,-0.687,-1.270584,0.013661,-0.803614
839840.273851,-9.39506643,-0.11750418000000001,-2.9093517,0.004806,-0.005106,0.003228,-105.429535,102.514755,-191.52475,60.187681,24.830107,13.659874,19.032912,-1.0,-1.0,100.60955,-0.687,-1.270559,0.013657,-0.803606
839840.293835,-9.43652349,-0.09609875999999999,-2.87656668,0.002398,0.003922,0.005783,-105.525909,102.806259,-191.458344,60.187681,24.830107,13.659874,19.032912,-1.0,-1.0,100.60955,-0.687,-1.2706,0.013661,-0.80363
839840.313819,-9.37680021,-0.11630736000000001,-2.90904759,0.004984,-0.001054,0.003744,-105.878311,102.658279,-191.415024,60.187681,24.830107,13.659874,19.032912,-1.0,-1.0,100.60955,-0.687,-1.270606,0.01367,-0.803633
839840.333804,-9.36438075,-0.15447807000000002,-2.92461606,0.00388,-0.000962,0.003629,-105.61792,102.715927,-191.240723,60.187681,24.830107,13.659874,19.032912,-1.0,-1.0,100.60955,-0.687,-1.270563,0.013676,-0.80364
839840.353788,-9.43144191,-0.15507648,-2.88075555,0.002422,0.000572,0.004847,-105.752533,102.668152,-191.453354,60.187681,24.830107,13.659874,19.032912,-1.0,-1.0,100.60955,-0.687,-1.27058,0.01369,-0.803624
839840.373773,-9.39296709,-0.10104300000000001,-2.9073995100000003,0.003688,0.000344,0.00288,-105.475067,102.715698,-191.450485,60.187681,24.830107,13.659874,19.032912,-1.0,-1.0,100.60955,-0.687,-1.270588,0.013694,-0.803626
839840.393757,-9.38383398,-0.10148445,-2.93284665,0.002631,0.000555,0.00565,-105.646133,102.737366,-191.360001,60.187681,24.830107,13.659874,19.032912,-1.0,-1.0,100.60955,-0.687,-1.270583,0.013712,-0.803654
839840.41374,-9.421710390000001,-0.15492933000000003,-2.8584574199999997,0.005719,-0.001232,0.003301,-105.661636,102.595749,-191.128998,60.187681,24.830107,13.659874,19.032912,-1.0,-1.0,100.60955,-0.687,-1.27057,0.013716,-0.803649
839840.433726,-9.39476232,-0.15701886,-2.8993160700000002,-0.000399,0.002509,0.004378,-105.478378,102.565765,-191.66658,60.187681,24.830107,13.659874,19.032912,-1.0,-1.0,100.60955,-0.687,-1.270575,0.013727,-0.803605
839840.45371,-9.38742444,-0.12154590000000001,-2.9265682500000003,0.004419,-0.003039,0.005034,-105.406906,102.525818,-191.464951,60.187681,24.830107,13.659874,19.032912,-1.0,-1.0,100.60955,-0.687,-1.270562,0.013741,-0.803627
839840.473694,-9.42200469,-0.10882233000000001,-2.87522271,0.003183,0.002702,0.00536,-105.529999,102.605255,-191.561417,60.187681,24.830107,13.659874,19.032912,-1.0,-1.0,100.60955,-0.687,-1.27057,0.013738,-0.803628
839840.493679,-9.397155960000001,-0.14025357000000002,-2.90216097,0.00328,-0.000226,0.003354,-105.533829,102.586197,-191.435898,60.187681,24.830107,13.659874,19.032912,-1.0,-1.0,100.60955,-0.687,-1.270564,0.013724,-0.803618
839840.513663,-9.370963260000002,-0.14969079000000002,-2.9198287800000005,0.003216,-0.000871,0.006135,-105.493469,102.47168,-191.110077,60.187681,24.830107,13.659874,19.032912,-1.0,-1.0,100.60955,-0.687,-1.270528,0.01372,-0.80363
839840.533648,-9.43443396,-0.08951625,-2.98898928,0.007103,0.001616,0.004215,-105.461334,102.687119,-191.411041,60.187681,24.830107,13.659874,19.032912,-1.0,-1.0,100.60955,-0.687,-1.270536,0.013741,-0.803642
839840.553632,-9.44176203,-0.11855385,-2.8104080400000004,-0.000833,-0.002454,0.001792,-105.601974,102.889816,-191.922241,60.187681,24.830107,13.659874,19.032912,-1.0,-1.0,100.60955,-0.687,-1.270585,0.013732,-0.80361
839840.573616,-9.31332951,-0.08128566000000001,-2.98883232,0.005978,0.002464,0.011349,-105.412155,102.777054,-191.279037,60.187681,24.830107,13.659874,19.032912,-1.0,-1.0,100.60955,-0.687,-1.270583,0.013767,-0.803663
839840.593601,-9.41631489,-0.22737618,-2.83569822,0.008407,-0.002982,0.004988,-105.428085,102.693008,-191.367676,60.187681,24.830107,13.659874,19.032912,-1.0,-1.0,100.60955,-0.687,-1.270556,0.013747,-0.803663
839840.613585,-9.56107125,-0.18621342,-2.77209018,-0.009501,0.017486,-0.01186,-105.510193,102.675278,-191.648224,60.187681,24.830107,13.659874,19.032912,-1.0,-1.0,100.60955,-0.687,-1.270608,0.013722,-0.803524
839840.63357,-9.14433264,-0.40595742000000007,-2.92641129,-0.007408,-0.040714,0.031725,-105.891098,102.830658,-191.584412,60.187681,24.830107,13.659874,19.032912,-1.0,-1.0,100.610077,-0.731922,-1.270572,0.01378,-0.803649
839840.653554,-9.763893,-0.01915893,-3.14974575,0.020566,-0.033284,-0.014486,-106.331223,102.588318,-191.389404,60.187681,24.830107,13.659874,19.032912,-1.0,-1.0,100.610077,-0.731922,-1.270751,0.014129,-0.804014
839840.673538,-9.012162510000001,-0.23785326,-2.7205876800000004,0.012503,-0.025843,0.040023,-106.927124,102.592514,-191.34552,60.187681,24.830107,13.659874,19.032912,-1.0,-1.0,100.610077,-0.731922,-1.271114,0.013902,-0.803894
839840.693523,-9.740545200000001,0.14414814,-2.92192812,0.008421,0.01229,-0.004542,-106.927124,102.592514,-191.34552,60.187681,24.830107,13.659874,19.032912,-1.0,-1.0,100.610077,-0.731922,-1.271393,0.013717,-0.803486
839840.713507,-9.32470911,0.08188407,-2.89093833,0.008421,0.01229,-0.004542,-107.025787,102.694412,-191.391449,60.187681,24.830107,13.659874,19.032912,-1.0,-1.0,100.610077,-0.731922,-1.271547,0.013571,-0.803283
839840.733492,-9.46601235,0.12813822000000002,-2.91518865,-0.000972,0.017199,0.002732,-106.919968,102.770645,-191.531876,60.187681,24.830107,13.659874,19.032912,-1.0,-1.0,100.610077,-0.731922,-1.271549,0.013572,-0.803347
839840.77346,-9.397607220000001,-0.16330707,-2.96009883,0.009646,0.016097,0.004163,-105.881165,102.680298,-191.508759,60.187681,24.830107,13.659874,19.032912,-1.0,-1.0,100.610077,-0.731922,-1.270944,0.013642,-0.80364
839840.77346,-9.397607220000001,-0.16330707,-2.96009883,0.009646,0.016097,0.004163,-105.881165,102.680298,-191.508759,60.187681,24.830107,13.659874,19.032912,-1.0,-1.0,100.610077,-0.731922,-1.270944,0.013642,-0.80364
839840.793445,-9.092241540000002,-0.74769858,-3.10828869,0.013564,-0.016166,0.016267,-105.322006,102.525009,-191.368134,60.187681,24.830107,13.659874,19.032912,-1.0,-1.0,100.610077,-0.731922,-1.270519,0.013645,-0.803731
839840.813429,-9.49729644,-0.28590264,-2.67044877,-0.025256,-0.042314,-0.014254,-105.546371,102.491043,-191.348846,60.187681,24.830107,13.659874,19.032912,-1.0,-1.0,100.610077,-0.731922,-1.270397,0.013586,-0.803371
839840.853398,-9.5062824,-0.00614106,-2.98344663,0.012775,0.0569,0.00965,-106.560074,102.544769,-191.46167,60.187681,24.830107,13.659874,19.032912,-1.0,-1.0,100.610077,-0.731922,-1.271259,0.013673,-0.804003
839840.853398,-9.5062824,-0.00614106,-2.98344663,0.012775,0.0569,0.00965,-106.560074,102.544769,-191.46167,60.187681,24.830107,13.659874,19.032912,-1.0,-1.0,100.610077,-0.731922,-1.271259,0.013673,-0.804003
839840.893367,-9.28848078,-0.07529175,-3.03329124,-0.015146,-0.042805,0.006113,-107.155014,102.560501,-191.347672,60.187681,24.830107,13.659874,19.032912,-1.0,-1.0,100.610077,-0.731922,-1.270513,0.013637,-0.803886
839840.913351,-9.4863681,0.12498921000000002,-2.82088512,0.009523,0.012505,0.007957,-107.593185,102.584885,-191.493698,60.187681,24.830107,13.659874,19.032912,-1.0,-1.0,100.610077,-0.731922,-1.270858,0.013661,-0.804316
839840.933335,-9.35419797,-0.05299362,-2.9014154100000003,0.000203,-0.004041,0.00411,-107.789139,102.366348,-191.468399,60.187681,24.830107,13.659874,19.032912,-1.0,-1.0,100.610077,-0.731922,-1.270966,0.013602,-0.804348
839840.933335,-9.35419797,-0.05299362,-2.9014154100000003,0.000203,-0.004041,0.00411,-107.789139,102.366348,-191.468399,60.187681,24.830107,13.659874,19.032912,-1.0,-1.0,100.610077,-0.731922,-1.270966,0.013602,-0.804348
839840.973304,-9.318273750000001,-0.20477394000000002,-3.0238638300000003,0.018192,-0.021674,0.018657,-107.656326,102.460983,-190.978012,60.187681,24.830107,13.659874,19.032912,-1.0,-1.0,100.610077,-0.731922,-1.2712,0.0135,-0.804398
839840.993289,-9.297613890000001,-0.28231218,-3.1313421900000002,0.043324,-0.033751,0.024122,-108.075485,102.420914,-191.227554,60.187681,24.830107,13.659874,19.032912,-1.0,-1.0,100.610077,-0.731922,-1.271555,0.013417,-0.804243
839841.013273,-9.38847411,-0.16794720000000002,-3.1777434900000006,0.092854,-0.027813,0.048691,-108.545868,102.337936,-191.544327,60.187681,24.830107,13.659874,19.032912,-1.0,-1.0,100.610077,-0.731922,-1.272142,0.013239,-0.803664
839841.033257,-9.349557840000001,-0.052542359999999996,-3.0093450300000004,0.107357,-0.028615,0.054667,-109.240524,102.006943,-191.577515,60.187681,24.830107,13.659874,19.032912,-1.0,-1.0,100.610077,-0.731922,-1.272804,0.013008,-0.802204
839841.053242,-9.30435336,0.10807677000000002,-3.0147307199999998,0.108437,-0.035529,0.048298,-109.594162,101.928146,-191.849747,60.187681,24.830107,13.659874,19.032912,-1.0,-1.0,100.610077,-0.731922,-1.27325,0.012679,-0.799981
839841.073226,-9.3354903,0.06780672,-3.0726587700000003,0.142227,-0.033832,0.059635,-110.060867,101.601624,-192.071899,60.187681,24.830107,13.659874,19.032912,-1.0,-1.0,100.610077,-0.731922,-1.273809,0.012436,-0.797714
839841.093211,-9.46720917,-0.30371760000000003,-2.79633069,0.181015,-0.000304,0.085607,-110.269791,101.185104,-192.296005,60.187681,24.830107,13.659874,19.032912,-1.0,-1.0,100.610077,-0.731922,-1.274553,0.012195,-0.795174
839841.113195,-9.31856805,-0.16286562,-2.68946055,0.133693,-0.006511,0.067264,-110.344635,100.888641,-192.327103,60.187681,24.830107,13.659874,19.032912,-1.0,-1.0,100.610077,-0.731922,-1.274989,0.011749,-0.791718
839841.133179,-9.50374161,-0.06930765,-2.4614859599999996,0.089721,-0.025123,0.037533,-110.81102,100.436157,-192.43396,60.187681,24.830107,13.659874,19.032912,-1.0,-1.0,100.610077,-0.731922,-1.275354,0.011172,-0.788381
839841.153164,-9.56091429,-0.2689902,-2.31538563,0.030172,-0.020004,0.018163,-111.093338,99.909363,-193.132645,60.187681,24.830107,13.659874,19.032912,-1.0,-1.0,100.610077,-0.731922,-1.275686,0.010973,-0.786107
839841.173148,-9.5236461,-0.19518957000000003,-2.5557894900000004,-0.020736,-0.031298,-0.00869,-111.000015,99.810898,-193.080276,60.187681,24.830107,13.659874,19.032912,-1.0,-1.0,100.610077,-0.731922,-1.275991,0.010957,-0.784853
839841.193133,-9.23354478,-0.37302525000000003,-2.76669468,-0.020736,-0.031298,-0.00869,-111.115463,99.506378,-193.166092,60.187681,24.830107,13.659874,19.032912,-1.0,-1.0,100.610077,-0.731922,-1.276739,0.01087,-0.784945
839841.213117,-9.273667679999999,-0.33470739,-2.9539577700000006,-0.12698,-0.167552,-0.031181,-111.229691,99.244873,-193.405365,60.187681,24.830107,13.659874,19.032912,-1.0,-1.0,100.610077,-0.731922,-1.278003,0.010886,-0.786128
839841.233101,-9.35614035,-0.30252078000000004,-3.1177161,-0.128732,-0.230514,-0.019285,-110.99173,98.912384,-193.044067,60.187681,24.830107,13.659874,19.032912,-1.0,-1.0,100.610077,-0.731922,-1.280229,0.011085,-0.788507
839841.253086,-9.1681317,-0.30565998000000005,-3.20064003,-0.152526,-0.327165,-0.023203,-110.61055,98.976578,-192.868637,60.187681,24.830107,13.659874,19.032912,-1.0,-1.0,100.610077,-0.731922,-1.283877,0.011001,-0.791137
839841.27307,-9.08625744,-0.058977720000000004,-3.07116765,-0.161443,-0.418546,-0.021638,-110.246704,98.709641,-192.87178,60.187681,24.830107,13.659874,19.032912,-1.0,-1.0,100.610077,-0.731922,-1.289373,0.010662,-0.79399
839841.293055,-9.18400428,0.18471249,-3.08717757,-0.144999,-0.495054,-0.018778,-109.895477,98.840591,-192.453201,60.187681,24.830107,13.659874,19.032912,-1.0,-1.0,100.610077,-0.731922,-1.296805,0.010285,-0.797202
839841.313039,-9.16903422,0.19159911000000002,-3.13567821,-0.144999,-0.495054,-0.018778,-109.858673,98.994339,-192.38942,60.187681,24.830107,13.659874,19.032912,-1.0,-1.0,100.610077,-0.731922,-1.305974,0.009885,-0.800336
839841.333023,-9.21244347,0.22199049,-2.88000999,-0.073196,-0.605044,0.000133,-109.317459,98.895386,-192.068298,60.187681,24.830107,13.659874,19.032912,-1.0,-1.0,100.610077,-0.731922,-1.316308,0.009597,-0.802961
839841.353008,-9.49939578,0.22872015,-2.72777841,-0.020135,-0.61083,0.013123,-109.062744,98.893982,-191.637283,60.187681,24.830107,13.659874,19.032912,-1.0,-1.0,100.610077,-0.731922,-1.327767,0.009397,-0.804984
839841.372992,-9.37844829,0.28186092,-2.73122172,0.035973,-0.658414,0.032844,-110.041199,99.058823,-191.504791,60.187681,24.830107,13.659874,19.032912,-1.0,-1.0,100.610077,-0.731922,-1.339984,0.00911,-0.805976
839841.392977,-9.32875083,0.046548450000000005,-2.63242521,0.063528,-0.73805,0.035976,-110.041199,99.058823,-191.504791,60.187681,24.830107,13.659874,19.032912,-1.0,-1.0,100.610077,-0.731922,-1.352656,0.008745,-0.805775
839841.412961,-9.15585939,-0.07170129,-2.5725547800000004,0.078065,-0.836095,0.047595,-110.788635,99.169006,-191.383911,60.187681,24.830107,13.659874,19.032912,-1.0,-1.0,100.610077,-0.731922,-1.366552,0.008336,-0.804695
839841.432945,-9.178314480000001,-0.17124336,-2.34712098,0.083372,-0.954699,0.057513,-111.847107,99.511597,-190.864197,60.187681,24.830107,13.659874,19.032912,-1.0,-1.0,100.610077,-0.731922,-1.382214,0.007853,-0.803242
839841.45293,-9.29731959,-0.32736951,-1.9881632700000003,0.071262,-1.050098,0.056164,-112.660843,99.631165,-190.086838,60.187681,24.830107,13.659874,19.032912,-1.0,-1.0,100.610077,-0.731922,-1.40007,0.007209,-0.801509
839841.492899,-9.28907919,-0.14220576000000001,-1.65450555,0.082213,-1.249008,0.067053,-113.451248,99.717499,-188.799973,60.187681,24.830107,13.659874,19.032912,-1.0,-1.0,100.610077,-0.731922,-1.442159,0.005616,-0.798505
839841.492899,-9.28907919,-0.14220576000000001,-1.65450555,0.082213,-1.249008,0.067053,-113.451248,99.717499,-188.799973,60.187681,24.830107,13.659874,19.032912,-1.0,-1.0,100.610077,-0.731922,-1.442159,0.005616,-0.798505
839841.532867,-9.63531333,0.1588239,-0.6240533400000001,0.134213,-1.246237,0.088073,-112.790756,99.887756,-187.059601,60.187681,24.830107,13.659874,19.032912,-1.0,-1.0,100.610077,-0.731922,-1.491689,0.003402,-0.795078
839841.532867,-9.63531333,0.1588239,-0.6240533400000001,0.134213,-1.246237,0.088073,-112.790756,99.887756,-187.059601,60.187681,24.830107,13.659874,19.032912,-1.0,-1.0,100.610077,-0.731922,-1.491689,0.003402,-0.795078
839841.572836,-9.52708941,0.06406911000000001,-0.26315325,0.129719,-1.310196,0.096543,-112.196457,100.102524,-185.334442,60.187681,24.830107,13.659874,19.032912,-1.0,-1.0,100.610077,-0.731922,-1.541908,0.000305,-0.789807
839841.572836,-9.52708941,0.06406911000000001,-0.26315325,0.129719,-1.310196,0.096543,-112.196457,100.102524,-185.334442,60.187681,24.830107,13.659874,19.032912,-1.0,-1.0,100.610077,-0.731922,-1.541908,0.000305,-0.789807
839841.612805,-12.42415899,-1.00126746,2.0907072,0.078821,-0.356531,0.003913,-114.899994,100.713852,-185.291718,60.187681,24.830107,13.659874,19.032912,-1.0,-1.0,100.610077,-0.731922,-1.587737,-0.007656,-0.785499
839841.63279,-9.740398050000001,-0.21959685,2.63257236,-0.009685,-0.324154,0.047435,-117.261826,101.508316,-185.081192,60.187681,24.830107,13.659874,19.032912,-1.0,-1.0,100.610077,-0.731922,-1.603782,-0.011632,-0.785375
839841.652774,-9.48353301,0.10014048,1.76692815,-0.071502,-0.246235,0.076301,-117.662811,101.717285,-184.753555,60.187681,24.830107,13.659874,19.032912,-1.0,-1.0,100.610077,-0.731922,-1.614423,-0.013553,-0.785839
839841.672758,-10.2696966,0.13921371000000002,0.9147432600000001,-0.100054,-0.088149,0.060293,-117.751526,101.707062,-184.812149,60.187681,24.830107,13.659874,19.032912,-1.0,-1.0,100.610077,-0.731922,-1.620032,-0.014739,-0.787179
839841.692743,-10.50814827,0.04011309,1.0340524800000002,-0.148828,0.010684,0.022643,-118.204514,102.007751,-184.696884,60.187681,24.830107,13.659874,19.032912,-1.0,-1.0,100.610077,-0.731922,-1.622179,-0.015483,-0.78894
839841.712727,-10.03632651,0.059576130000000005,0.84753495,-0.215593,0.040827,0.015693,-119.104858,102.493195,-184.448822,60.187681,24.830107,13.659874,19.032912,-1.0,-1.0,100.610077,-0.731922,-1.622,-0.01582,-0.791467
839841.732712,-9.77617512,0.1360647,0.97387794,-0.27669,-0.052031,0.023435,-120.077179,103.377457,-184.197876,60.187681,24.830107,13.659874,19.032912,-1.0,-1.0,100.610077,-0.731922,-1.620854,-0.015854,-0.795198
839841.752696,-9.55342926,0.2314179,1.04422545,-0.317176,-0.212362,0.063269,-119.951584,104.534195,-183.796555,60.187681,24.830107,13.659874,19.032912,-1.0,-1.0,100.610077,-0.731922,-1.620943,-0.016008,-0.800182
839841.77268,-9.51017697,0.31749084,0.7051820400000001,-0.287801,-0.426048,0.102156,-118.607925,105.821426,-182.920502,60.187681,24.830107,13.659874,19.032912,-1.0,-1.0,100.610077,-0.731922,-1.62385,-0.01647,-0.806332
839841.792665,-9.75312162,0.30042144,0.08457201,-0.239588,-0.528296,0.092831,-117.392334,106.650497,-182.284622,60.187681,24.830107,13.659874,19.032912,-1.0,-1.0,100.610077,-0.731922,-1.630358,-0.017675,-0.812541
839841.812649,-9.91597743,0.32302368,-0.30910329000000003,-0.172869,-0.597332,0.074382,-116.574936,107.243103,-181.711487,60.187681,24.830107,13.659874,19.032912,-1.0,-1.0,100.610077,-0.731922,-1.640275,-0.019218,-0.817845
839841.832634,-10.16131572,0.57046131,-0.34024023,-0.05137,-0.668571,0.028011,-115.512772,107.637238,-181.48053,60.187681,24.830107,13.659874,19.032912,-1.0,-1.0,100.610077,-0.731922,-1.651812,-0.020399,-0.822131
839841.852618,-9.988581240000002,0.31928607000000003,0.11690577,0.04798,-0.700426,0.000122,-114.456497,107.70105,-180.562256,60.187681,24.830107,13.659874,19.032912,-1.0,-1.0,100.610077,-0.731922,-1.664785,-0.020986,-0.824431
839841.872602,-9.890079029999999,0.09580446000000001,0.66880656,0.094178,-0.757626,-0.01421,-113.481247,107.103958,-180.055756,60.187681,24.830107,13.659874,19.032912,-1.0,-1.0,100.610077,-0.731922,-1.678687,-0.021096,-0.824516
839841.892587,-9.596240100000001,0.00628821,0.40445649000000006,0.11248,-0.880178,-0.007404,-112.597275,106.051056,-180.160721,60.187681,24.830107,13.659874,19.032912,-1.0,-1.0,100.610077,-0.731922,-1.693331,-0.020983,-0.823113
839841.892587,-9.596240100000001,0.00628821,0.40445649000000006,0.11248,-0.880178,-0.007404,-112.597275,106.051056,-180.160721,60.187681,24.830107,13.659874,19.032912,-1.0,-1.0,100.610077,-0.731922,-1.693331,-0.020983,-0.823113
839841.932556,-9.489968370000001,-0.02544714,1.3079771100000002,0.078112,-1.076807,-0.004071,-115.496277,103.363434,-179.873642,60.187681,24.830107,13.659874,19.032912,-1.0,-1.0,100.610077,-0.731922,-1.728649,-0.020974,-0.819165
839841.95254,-9.42066072,-0.01661814,1.7061552,0.077664,-1.125179,0.003353,-118.364487,103.252838,-179.246857,60.187681,24.830107,13.659874,19.032912,-1.0,-1.0,100.610077,-0.731922,-1.749589,-0.021005,-0.817615
839841.972525,-9.42439833,-0.18231885,1.5630469200000001,0.056312,-1.222472,0.007795,-121.042191,104.461197,-177.691635,60.187681,24.830107,13.659874,19.032912,-1.0,-1.0,100.610077,-0.731922,-1.771496,-0.021175,-0.816188
839841.992509,-9.27875907,-0.14041053,1.7738147700000002,0.045169,-1.333353,0.023229,-120.208176,106.634933,-175.535477,60.187681,24.830107,13.659874,19.032912,-1.0,-1.0,100.610077,-0.731922,-1.795042,-0.021466,-0.81491
839842.012493,-9.33712857,0.26240768999999997,2.1457903500000004,0.082576,-1.377133,0.003243,-117.042221,106.615341,-173.403854,60.187681,24.830107,13.659874,19.032912,-1.0,-1.0,100.610077,-0.731922,-1.820545,-0.021884,-0.814098
839842.032478,-9.40418973,0.64995174,3.17100402,0.10397,-1.287143,0.15825,-115.08992,104.552414,-172.963379,60.187681,24.830107,13.659874,19.032912,-1.0,-1.0,100.610077,-0.731922,-1.847648,-0.022472,-0.813056
839842.052462,-9.24776928,-0.07813665,2.4758478,0.105018,-1.375168,-0.032469,-115.255798,103.161743,-173.182617,60.187681,24.830107,13.659874,19.032912,-1.0,-1.0,100.610077,-0.731922,-1.874439,-0.024205,-0.81137
839842.072447,-10.555147980000001,0.27063828,3.1105351800000003,0.103194,-1.112854,0.003653,-118.210922,102.160248,-173.195923,60.187681,24.830107,13.659874,19.032912,-1.0,-1.0,100.610077,-0.731922,-1.898092,-0.024727,-0.808822
839842.072447,-10.555147980000001,0.27063828,3.1105351800000003,0.103194,-1.112854,0.003653,-118.210922,102.160248,-173.195923,60.187681,24.830107,13.659874,19.032912,-1.0,-1.0,100.610077,-0.731922,-1.898092,-0.024727,-0.808822
839842.112416,-9.67917384,-0.2402469,4.45862538,0.087437,-1.079085,0.00047,-121.39325,103.900345,-172.3172,60.187681,24.830107,13.659874,19.032912,-1.0,-1.0,100.610077,-0.731922,-1.945111,-0.026203,-0.805859
839842.1324,-7.51736376,-0.05149269000000001,5.029390800000001,0.148919,-0.938501,0.03059,-122.191315,106.234421,-170.309357,60.187681,24.830107,13.659874,19.032912,-1.0,-1.0,100.610077,-0.731922,-1.966031,-0.027205,-0.805325
839842.152384,-9.76180347,-0.40505490000000005,4.759056630000001,0.199256,-0.828079,-0.063272,-117.896606,106.929504,-168.178085,60.187681,24.830107,13.659874,19.032912,-1.0,-1.0,100.610077,-0.731922,-1.985591,-0.027601,-0.803414
839842.172369,-8.24664897,-0.13546629000000002,4.05371763,0.213387,-0.883011,-0.016932,-115.743271,103.867859,-168.310593,60.187681,24.830107,13.659874,19.032912,-1.0,-1.0,100.610077,-0.731922,-2.002983,-0.028858,-0.800177
839842.212338,-7.2965799,1.9529846100000001,4.629123180000001,0.08383,-1.093808,0.015089,-121.847076,106.05246,-166.912064,60.187681,24.830107,13.659874,19.032912,-1.0,-1.0,100.610077,-0.731922,-2.037322,-0.03028,-0.792558
839842.212338,-7.2965799,1.9529846100000001,4.629123180000001,0.08383,-1.093808,0.015089,-121.847076,106.05246,-166.912064,60.187681,24.830107,13.659874,19.032912,-1.0,-1.0,100.610077,-0.731922,-2.037322,-0.03028,-0.792558
839842.252307,-8.36161236,1.00425951,4.53092508,0.0736,-1.078827,0.015105,-118.141144,103.943161,-165.752625,60.187681,24.830107,13.659874,19.032912,-1.0,-1.0,100.610077,-0.731922,-2.07576,-0.03297,-0.788389
839842.272291,-8.50501494,1.4329663200000002,4.97430765,0.08867,-1.032134,0.050055,-119.046631,102.725021,-165.213165,60.187681,24.830107,13.659874,19.032912,-1.0,-1.0,100.610077,-0.731922,-2.09709,-0.033959,-0.786698
839842.292275,-7.83605142,1.1169764100000001,5.19584688,0.080201,-1.060713,0.037626,-119.201736,102.891174,-164.664383,60.187681,24.830107,13.659874,19.032912,-1.0,-1.0,100.610077,-0.731922,-2.117704,-0.03565,-0.785656
839842.31226,-8.47552608,0.942741,4.98284235,0.096358,-1.026102,0.047739,-119.136932,103.34584,-163.37561,60.187681,24.830107,13.659874,19.032912,-1.0,-1.0,100.610077,-0.731922,-2.138028,-0.037125,-0.78447
839842.332244,-7.822886400000001,0.7086253499999999,5.0003532,0.100496,-1.080614,0.046244,-118.4496,103.899384,-162.402313,60.187681,24.830107,13.659874,19.032912,-1.0,-1.0,100.610077,-0.731922,-2.158308,-0.038755,-0.783334
839842.352229,-8.0688231,1.02327129,5.39837433,0.111664,-1.086616,0.059973,-118.112991,105.310471,-161.03949,60.187681,24.830107,13.659874,19.032912,-1.0,-1.0,100.610077,-0.731922,-2.179378,-0.040517,-0.782225
839842.372213,-7.434586980000001,0.86265216,5.51138553,0.096132,-1.145945,0.06484,-118.97731,106.584427,-159.612732,60.187681,24.830107,13.659874,19.032912,-1.0,-1.0,100.610077,-0.731922,-2.200934,-0.042525,-0.781135
839842.372213,-7.434586980000001,0.86265216,5.51138553,0.096132,-1.145945,0.06484,-118.97731,106.584427,-159.612732,60.187681,24.830107,13.659874,19.032912,-1.0,-1.0,100.610077,-0.731922,-2.200934,-0.042525,-0.781135
839842.412182,-7.653281310000001,0.93121425,6.04548117,0.09674,-1.171544,0.115408,-123.095947,105.934814,-159.523087,60.187681,24.830107,13.659874,19.032912,-1.0,-1.0,100.610077,-0.731922,-2.246225,-0.046784,-0.779539
839842.432166,-5.7014935200000005,-0.76296294,6.5160963,0.056622,-1.438122,0.048463,-122.45932,104.704956,-159.2771,60.187681,24.830107,13.659874,19.032912,-1.0,-1.0,100.610077,-0.731922,-2.270221,-0.049591,-0.779297
839842.452152,-8.113125060000002,-0.38005902,6.382130940000001,0.092526,-1.256696,0.127244,-120.90773,104.281265,-158.03624,60.187681,24.830107,13.659874,19.032912,-1.0,-1.0,100.610077,-0.731922,-2.297048,-0.052138,-0.779185
839842.472136,-6.145768800000001,-0.87253083,6.86472408,0.053958,-1.382583,0.061709,-119.520981,104.128922,-156.581848,60.187681,24.830107,13.659874,19.032912,-1.0,-1.0,100.610077,-0.731922,-2.323765,-0.054015,-0.779061
839842.492121,-7.51152681,0.04146687,6.98911488,0.091715,-1.249222,0.090655,-119.10231,104.466827,-155.717819,60.187681,24.830107,13.659874,19.032912,-1.0,-1.0,100.610077,-0.731922,-2.350341,-0.056397,-0.77942
839842.512105,-6.330334140000001,-0.00164808,6.50293128,0.157888,-1.254681,0.045231,-120.301407,104.881744,-154.810257,60.187681,24.830107,13.659874,19.032912,-1.0,-1.0,100.610077,-0.731922,-2.376393,-0.058455,-0.779357
839842.53209,-6.40174113,0.74650176,7.656881580000001,0.211539,-1.192509,0.075767,-121.421967,106.156342,-154.069092,60.187681,24.830107,13.659874,19.032912,-1.0,-1.0,100.610077,-0.731922,-2.401353,-0.060941,-0.778543
839842.552074,-6.09173532,0.44607051,7.00124004,0.276358,-1.157144,0.030663,-120.979263,107.26503,-152.765213,60.187681,24.830107,13.659874,19.032912,-1.0,-1.0,100.610077,-0.731922,-2.425202,-0.064638,-0.776931
839842.572058,-5.13567234,1.27864521,7.805071440000001,0.312229,-1.130598,0.166519,-120.390747,108.118668,-151.354019,60.187681,24.830107,13.659874,19.032912,-1.0,-1.0,100.610077,-0.731922,-2.448482,-0.068775,-0.774205
839842.592043,-5.510787120000001,0.73452375,7.43668632,0.331493,-1.138635,0.210838,-119.996368,108.400757,-151.318619,60.187681,24.830107,13.659874,19.032912,-1.0,-1.0,100.610077,-0.731922,-2.470839,-0.074484,-0.771905
839842.612027,-5.749542900000001,0.8114635800000001,7.44177771,0.355212,-1.143407,0.259054,-119.434662,108.243591,-150.762894,60.187681,24.830107,13.659874,19.032912,-1.0,-1.0,100.610077,-0.731922,-2.492438,-0.081941,-0.770657
839842.632012,-6.04488276,0.9888480000000001,7.554494610000001,0.399639,-1.14003,0.199036,-118.755768,109.172287,-150.692093,60.187681,24.830107,13.659874,19.032912,-1.0,-1.0,100.610077,-0.731922,-2.514979,-0.090362,-0.770278
839842.651996,-5.55943491,1.08599643,8.08753077,0.379644,-1.164862,0.15206,-118.313141,109.670441,-150.084198,60.187681,24.830107,13.659874,19.032912,-1.0,-1.0,100.610077,-0.731922,-2.537619,-0.099287,-0.769845
839842.671981,-4.746627360000001,1.2467529000000002,8.13363777,0.339008,-1.234179,0.193918,-117.849854,110.287109,-148.963821,60.187681,24.830107,13.659874,19.032912,-1.0,-1.0,100.610077,-0.731922,-2.560509,-0.107496,-0.767961
839842.691965,-4.89916305,1.33567074,8.68044717,0.228389,-1.37253,0.175939,-117.418396,110.558685,-148.346451,60.187681,24.830107,13.659874,19.032912,-1.0,-1.0,100.610077,-0.731922,-2.584511,-0.11539,-0.766927
839842.71195,-4.38093999,1.0912349700000001,8.75813256,0.071707,-1.583855,0.159273,-116.780212,110.782318,-147.21875,60.187681,24.830107,13.659874,19.032912,-1.0,-1.0,100.610077,-0.731922,-2.61043,-0.122331,-0.767109
839842.731934,-4.314928500000001,1.07641206,8.80304274,-0.027409,-1.735686,0.136163,-115.904984,111.64035,-145.602478,60.187681,24.830107,13.659874,19.032912,-1.0,-1.0,100.610077,-0.731922,-2.639838,-0.126288,-0.768268
839842.751918,-3.8082321900000005,1.49598576,8.25264288,-0.024007,-1.797167,0.156381,-115.411789,112.025208,-144.588821,60.187681,24.830107,13.659874,19.032912,-1.0,-1.0,100.610077,-0.731922,-2.673133,-0.127908,-0.770603
839842.771903,-3.9357621899999997,1.3736943,8.11283076,0.054342,-1.792835,0.157979,-114.850677,112.177307,-142.899796,60.187681,24.830107,13.659874,19.032912,-1.0,-1.0,100.610077,-0.731922,-2.708766,-0.128476,-0.77346
839842.791887,-3.6782987400000002,1.03689738,8.7078465,0.09187,-1.822587,0.113928,-114.221558,112.64917,-141.818512,60.187681,24.830107,13.659874,19.032912,-1.0,-1.0,100.610077,-0.731922,-2.745018,-0.12997,-0.77621
839842.811872,-3.09540816,1.03629897,9.16200045,0.077749,-1.823692,0.097687,-114.221558,112.64917,-141.818512,60.187681,24.830107,13.659874,19.032912,-1.0,-1.0,100.610077,-0.731922,-2.781346,-0.132384,-0.778209
839842.831856,-2.6958959100000004,0.90995598,9.51121683,0.051597,-1.80663,0.093209,-112.853821,113.55867,-140.282181,60.187681,24.830107,13.659874,19.032912,-1.0,-1.0,100.610077,-0.731922,-2.817863,-0.134852,-0.779487
839842.851841,-2.4674700600000006,0.8458868700000001,10.38540555,-0.050263,-1.7554,0.07628,-111.178055,114.262802,-138.439209,60.187681,24.830107,13.659874,19.032912,-1.0,-1.0,100.610077,-0.731922,-2.854607,-0.136514,-0.780867
839842.871825,-1.9264976100000002,0.9833053500000001,9.883947780000002,-0.078247,-1.664487,0.063498,-109.04953,114.744507,-136.888458,60.187681,24.830107,13.659874,19.032912,-1.0,-1.0,100.610077,-0.731922,-2.890267,-0.1371,-0.782478
839842.911794,-1.91257722,1.41875163,10.212209999999999,-0.090048,-1.386076,0.052562,-104.945511,113.492035,-133.879364,60.187681,24.830107,13.659874,19.032912,-1.0,-1.0,100.610077,-0.731922,-2.957351,-0.134591,-0.785628
839842.931778,-6.54618357,-2.39681844,17.54426286,-0.829244,-0.906768,-0.450056,-104.689163,112.57782,-133.448486,60.187681,24.830107,13.659874,19.032912,-1.0,-1.0,100.610077,-0.731922,-2.987059,-0.132949,-0.787099
839842.951763,1.2159200700000001,3.1901629500000004,12.26983788,-0.846605,-1.405474,-0.265754,-108.009445,114.348038,-133.045792,60.187681,24.830107,13.659874,19.032912,-1.0,-1.0,100.610077,-0.731922,-3.00714,-0.126923,-0.784236
839842.971747,-2.26733625,0.7575772500000001,14.080920840000001,-0.629446,-1.544298,-0.3935,-102.509567,111.525909,-128.426605,60.187681,24.830107,13.659874,19.032912,-1.0,-1.0,100.610077,-0.731922,-3.034264,-0.095836,-0.77859
839842.971747,-2.26733625,0.7575772500000001,14.080920840000001,-0.629446,-1.544298,-0.3935,-102.509567,111.525909,-128.426605,60.187681,24.830107,13.659874,19.032912,-1.0,-1.0,100.610077,-0.731922,-3.034264,-0.095836,-0.77859
839843.011716,-0.36867942,1.13524263,14.60498085,-0.286243,-0.549593,0.046228,-108.262955,111.060303,-127.816345,60.187681,24.830107,13.659874,19.032912,-1.0,-1.0,100.610077,-0.731922,-3.062768,-0.079432,-0.771274
839843.031701,-0.4016115900000001,0.8134059600000001,13.375885949999999,-0.386845,-0.682668,0.111267,-106.836502,112.520447,-126.56662,60.187681,24.830107,13.659874,19.032912,-1.0,-1.0,100.610077,-0.731922,-3.075442,-0.071601,-0.771675
839843.051685,-0.35027586000000005,1.82246256,6.29455707,-0.156897,-0.284887,0.151284,-104.904587,112.439224,-126.017715,60.187681,24.830107,13.659874,19.032912,-1.0,-1.0,100.610077,-0.731922,-3.082378,-0.06786,-0.773706
839843.07167,-0.38634723000000004,1.07686332,9.190292490000001,-0.146232,-0.201627,0.140312,-103.95314,112.106293,-125.660172,60.187681,24.830107,13.659874,19.032912,-1.0,-1.0,100.610077,-0.731922,-3.089375,-0.063682,-0.77691
839843.091654,-0.24743763,0.9894464100000001,9.632321280000001,-0.158132,-0.260396,0.113044,-103.779633,111.879883,-125.2509,60.187681,24.830107,13.659874,19.032912,-1.0,-1.0,100.610077,-0.731922,-3.095286,-0.060317,-0.780025
839843.111638,-0.22168638000000002,0.51298452,10.32927273,-0.226577,-0.424656,0.07876,-104.072464,111.401291,-125.150253,60.187681,24.830107,13.659874,19.032912,-1.0,-1.0,100.610077,-0.731922,-3.101137,-0.057026,-0.782606
839843.131623,-0.017363700000000003,0.36628578000000006,10.221647220000001,-0.296793,-0.569675,0.095652,-104.304993,110.967117,-125.21962,60.187681,24.830107,13.659874,19.032912,-1.0,-1.0,100.610077,-0.731922,-3.108408,-0.052806,-0.784476
839843.151607,0.059576130000000005,0.6403673700000001,9.46661076,-0.304085,-0.609284,0.14926,-104.373611,110.670166,-124.449844,60.187681,24.830107,13.659874,19.032912,-1.0,-1.0,100.610077,-0.731922,-3.117878,-0.047795,-0.786127
839843.171592,-0.6373753200000001,0.48184758000000005,9.819133110000001,-0.32645,-0.632055,0.117795,-104.199646,110.456024,-123.667221,60.187681,24.830107,13.659874,19.032912,-1.0,-1.0,100.610077,-0.731922,-3.129223,-0.041782,-0.788771
839843.191576,-0.28994436,0.59501574,9.66121173,-0.311322,-0.612725,0.089039,-103.930634,110.407364,-123.30632,60.187681,24.830107,13.659874,19.032912,-1.0,-1.0,100.610077,-0.731922,-3.14114,-0.035522,-0.791393
839843.211561,-3.3301222200000002,2.3107455000000003,11.12681592,-0.311322,-0.612725,0.089039,-104.05719,109.931992,-123.700668,60.187681,24.830107,13.659874,19.032912,-1.0,-1.0,100.610077,-0.731922,3.129839,-0.029166,-0.793385
839843.231545,0.25267617,-0.58947309,8.2828773,-0.084008,-0.377163,-0.250313,-104.97699,109.248306,-123.422852,60.187681,24.830107,13.659874,19.032912,-1.0,-1.0,100.610077,-0.731922,3.127518,-0.027941,-0.795039
839843.25153,2.50399269,0.25911153,5.84968338,0.020311,0.037596,0.004397,-105.591949,108.470917,-123.229584,60.187681,24.830107,13.659874,19.032912,-1.0,-1.0,100.610077,-0.731922,3.129792,-0.028601,-0.79285
839843.271514,0.6125265900000001,-0.11061756,8.99643708,0.010557,0.008748,0.012003,-105.676926,108.05426,-123.194412,60.187681,24.830107,13.659874,19.032912,-1.0,-1.0,100.610077,-0.731922,3.12834,-0.028159,-0.790229
839843.291498,-0.21240612000000003,0.19609209,9.418414230000002,0.020595,-0.006043,-0.001932,-105.609665,107.986206,-123.503311,60.187681,24.830107,13.659874,19.032912,-1.0,-1.0,100.610077,-0.731922,3.128061,-0.028107,-0.790399
839843.311483,-0.25387299,0.23321313,10.06896438,0.015014,-0.012246,-0.004068,-105.49205,108.061203,-123.111389,60.187681,24.830107,13.659874,19.032912,-1.0,-1.0,100.610077,-0.731922,3.12783,-0.028153,-0.790418
839843.331467,0.08726976,0.19609209,10.304424000000001,-0.010533,-0.045285,-0.001377,-105.5952,108.261551,-123.236588,60.187681,24.830107,13.659874,19.032912,-1.0,-1.0,100.610077,-0.731922,3.12763,-0.028098,-0.790214
839843.351452,0.22692492,0.52929855,9.53113113,0.013881,-0.030533,-0.000339,-105.771103,108.371643,-123.626953,60.187681,24.830107,13.659874,19.032912,-1.0,-1.0,100.610077,-0.731922,3.127518,-0.028229,-0.79006
839843.371436,-0.0520911,0.29429019,9.97675038,-0.00012,-0.016576,-0.00232,-105.584976,108.384552,-123.238495,60.187681,24.830107,13.659874,19.032912,-1.0,-1.0,100.610077,-0.731922,3.12743,-0.02835,-0.789919
839843.391421,0.09954207,0.35311095000000003,9.74188917,-0.001107,-0.015256,0.0051,-105.587082,108.330505,-123.468506,60.187681,24.830107,13.659874,19.032912,-1.0,-1.0,100.610077,-0.731922,3.127269,-0.028445,-0.789713
839843.411405,0.31838355,0.17499078,9.70117767,-0.001444,-0.02096,0.018253,-105.698608,108.225143,-123.429474,60.187681,24.830107,13.659874,19.032912,-1.0,-1.0,100.610077,-0.731922,3.127228,-0.028528,-0.789651
839843.451374,0.15942231,0.23935419000000002,9.74832453,0.003678,-0.011893,0.001827,-105.728378,107.929108,-123.252579,60.187681,24.830107,13.659874,19.032912,-1.0,-1.0,100.610077,-0.731922,3.127013,-0.028347,-0.789946
839843.451374,0.15942231,0.23935419000000002,9.74832453,0.003678,-0.011893,0.001827,-105.728378,107.929108,-123.252579,60.187681,24.830107,13.659874,19.032912,-1.0,-1.0,100.610077,-0.731922,3.127013,-0.028347,-0.789946
839843.491343,-0.11541465,0.18126918000000003,9.953098469999999,0.003439,-0.001423,0.004458,-105.494675,108.065598,-123.385025,60.187681,24.830107,13.659874,19.032912,-1.0,-1.0,100.610077,-0.731922,3.12702,-0.028346,-0.78992
839843.491343,-0.11541465,0.18126918000000003,9.953098469999999,0.003439,-0.001423,0.004458,-105.494675,108.065598,-123.385025,60.187681,24.830107,13.659874,19.032912,-1.0,-1.0,100.610077,-0.731922,3.12702,-0.028346,-0.78992
839843.531312,0.1130112,0.30850488,9.68994522,0.00701,-0.002877,0.005837,-105.393997,108.335999,-123.202271,60.187681,24.830107,13.659874,19.032912,-1.0,-1.0,100.610077,-0.731922,3.126997,-0.028364,-0.78995
839843.551296,-0.01182105,0.21720321,9.89622009,0.000465,-0.005211,0.005752,-105.582428,108.373428,-123.500336,60.187681,24.830107,13.659874,19.032912,-1.0,-1.0,100.610077,-0.731922,3.127041,-0.028345,-0.789918
839843.571281,0.13412232000000002,0.29548701,9.78021684,0.001208,-0.010244,0.004284,-105.359283,108.544693,-123.30191,60.187681,24.830107,13.659874,19.032912,-1.0,-1.0,100.610077,-0.731922,3.127015,-0.028325,-0.789898
839843.591265,0.09924777,0.33874911,9.6767802,0.009333,-0.00102,0.006347,-105.325272,108.531982,-123.314529,60.187681,24.830107,13.659874,19.032912,-1.0,-1.0,100.610077,-0.731922,3.127053,-0.028363,-0.789925
839843.61125,0.053140770000000004,0.26255484,9.883496520000001,-0.00033,-0.00915,0.00463,-105.144058,108.929047,-123.058395,60.187681,24.830107,13.659874,19.032912,-1.0,-1.0,100.610077,-0.731922,3.127063,-0.028362,-0.789896
839843.631234,0.07079877000000001,0.31479309,9.7519248,0.00228,-0.003648,0.004073,-105.158356,108.861481,-123.251724,60.187681,24.830107,13.659874,19.032912,-1.0,-1.0,100.610077,-0.731922,3.127062,-0.028356,-0.789881
839843.651219,0.13367106,0.34293798000000003,9.727370370000001,0.004744,-0.003013,0.007384,-105.097458,108.933731,-122.748306,60.187681,24.830107,13.659874,19.032912,-1.0,-1.0,100.610077,-0.731922,3.127072,-0.028375,-0.789882
839843.671203,0.07603731000000001,0.28231218,9.869880240000002,0.002138,-0.006709,0.005744,-105.169739,108.916641,-122.86705,60.187681,24.830107,13.659874,19.032912,-1.0,-1.0,100.610077,-0.731922,3.127069,-0.028355,-0.789867
839843.691188,0.06541308000000001,0.32437746,9.77946147,0.001977,-0.003341,0.003435,-104.985931,109.259827,-122.750778,60.187681,24.830107,13.659874,19.032912,-1.0,-1.0,100.610077,-0.731922,3.127069,-0.028362,-0.789865
839843.711172,0.10896948000000001,0.31973733,9.77077962,0.005751,-0.003997,0.004409,-104.956573,109.20607,-122.849655,60.187681,24.830107,13.659874,19.032912,-1.0,-1.0,100.610077,-0.731922,3.127076,-0.028375,-0.789872
839843.731156,0.09550035000000001,0.29353482000000003,9.82751085,0.001508,-0.006328,0.004932,-104.919846,109.14389,-122.94899,60.187681,24.830107,13.659874,19.032912,-1.0,-1.0,100.610077,-0.731922,3.127067,-0.028374,-0.789855
839843.751141,0.07858791000000001,0.32063004,9.74234043,0.003679,-0.0066,0.005428,-104.892639,109.277649,-122.624542,60.187681,24.830107,13.659874,19.032912,-1.0,-1.0,100.610077,-0.731922,3.127081,-0.028367,-0.789838
839843.771125,0.09056592000000001,0.31854051,9.77108373,0.005616,-0.004993,0.00581,-104.926193,109.394028,-122.736862,60.187681,24.830107,13.659874,19.032912,-1.0,-1.0,100.610077,-0.731922,3.127086,-0.028366,-0.789842
839843.79111,0.09355797,0.29129814000000004,9.81494424,0.000873,-0.00733,0.007115,-104.953842,109.260559,-122.670578,60.187681,24.830107,13.659874,19.032912,-1.0,-1.0,100.610077,-0.731922,3.127087,-0.02836,-0.789828
839843.811094,0.07574301000000001,0.29757654,9.77377167,0.001589,-0.00457,0.003397,-104.988678,109.215561,-122.966278,60.187681,24.830107,13.659874,19.032912,-1.0,-1.0,100.610077,-0.731922,3.127079,-0.028353,-0.789837
839843.831079,0.09400923,0.30042144,9.75416148,0.001923,-0.005541,0.004821,-105.054764,109.087509,-123.025452,60.187681,24.830107,13.659874,19.032912,-1.0,-1.0,100.610077,-0.731922,3.127094,-0.028355,-0.789838
839843.851063,0.08262963000000001,0.28800198,9.771378030000001,0.00236,-0.005456,0.006159,-105.043564,109.152481,-122.940063,60.187681,24.830107,13.659874,19.032912,-1.0,-1.0,100.610077,-0.731922,3.127096,-0.02833,-0.789827
839843.871048,0.0811287,0.29114118,9.747726120000001,0.00163,-0.001295,0.004263,-105.339539,109.163925,-122.681961,60.187681,24.830107,13.659874,19.032912,-1.0,-1.0,100.609497,-0.684361,3.127089,-0.028313,-0.789835
839843.891032,0.08726976,0.26240768999999997,9.774968490000001,0.002639,-0.003578,0.004253,-104.962082,109.023575,-122.366455,60.187681,24.830107,13.659874,19.032912,-1.0,-1.0,100.609497,-0.684361,3.127102,-0.028298,-0.789812
839843.911017,0.08248248000000001,0.27078543,9.783503190000001,0.002718,-0.003837,0.003684,-105.094284,109.14566,-122.870941,60.187681,24.830107,13.659874,19.032912,-1.0,-1.0,100.609497,-0.684361,3.127115,-0.028276,-0.789799
839843.931001,0.08023599000000001,0.26599815,9.77826465,0.00262,-0.003609,0.004189,-105.341965,108.929382,-122.700256,60.187681,24.830107,13.659874,19.032912,-1.0,-1.0,100.609497,-0.684361,3.12712,-0.028277,-0.789803
839843.950986,0.08442486000000002,0.27513126000000004,9.77377167,0.004824,-0.005665,0.005075,-105.152023,109.08403,-122.697678,60.187681,24.830107,13.659874,19.032912,-1.0,-1.0,100.609497,-0.684361,3.127129,-0.02827,-0.789794
839843.97097,0.08143281,0.283509,9.768238830000001,0.002808,-0.004855,0.005977,-105.167328,109.185135,-122.47023,60.187681,24.830107,13.659874,19.032912,-1.0,-1.0,100.609497,-0.684361,3.12714,-0.028274,-0.789795
839843.990955,0.07634142000000001,0.28546119000000003,9.77751909,0.003031,-0.004512,0.006032,-105.234985,109.182999,-122.50174,60.187681,24.830107,13.659874,19.032912,-1.0,-1.0,100.609497,-0.684361,3.127158,-0.028278,-0.789792
839844.010939,0.08188407,0.28934595,9.77273181,0.00162,-0.005069,0.004996,-105.284439,109.046524,-122.766861,60.187681,24.830107,13.659874,19.032912,-1.0,-1.0,100.609497,-0.684361,3.127174,-0.028275,-0.789788
839844.030923,0.09265545000000001,0.28530423000000005,9.771682140000001,0.003591,-0.004399,0.006213,-105.148422,109.237442,-122.600616,60.187681,24.830107,13.659874,19.032912,-1.0,-1.0,100.609497,-0.684361,3.127204,-0.028267,-0.789777
839844.050908,0.08172711,0.28365615,9.791292330000001,0.002253,-0.003961,0.004569,-104.898178,109.149521,-122.633667,60.187681,24.830107,13.659874,19.032912,-1.0,-1.0,100.609497,-0.684361,3.127224,-0.028274,-0.789781
839844.070892,0.08322804,0.29952873,9.78889869,0.002695,-0.005659,0.003704,-105.011383,109.338394,-122.893478,60.187681,24.830107,13.659874,19.032912,-1.0,-1.0,100.609497,-0.684361,3.12726,-0.028265,-0.789771
839844.090877,0.09310671,0.31015296,9.77976558,0.002809,-0.002233,0.004138,-105.092728,109.368134,-123.006668,60.187681,24.830107,13.659874,19.032912,-1.0,-1.0,100.609497,-0.684361,3.127278,-0.028271,-0.789764
839844.130846,0.07948062,0.30117681,9.775566900000001,0.004076,-0.003775,0.005328,-105.012512,109.338257,-123.151062,60.187681,24.830107,13.659874,19.032912,-1.0,-1.0,100.609497,-0.684361,3.127349,-0.028281,-0.789764
839844.130846,0.07948062,0.30117681,9.775566900000001,0.004076,-0.003775,0.005328,-105.012512,109.338257,-123.151062,60.187681,24.830107,13.659874,19.032912,-1.0,-1.0,100.609497,-0.684361,3.127349,-0.028281,-0.789764
839844.170815,0.0782838,0.29144529,9.78515127,0.004304,-0.004397,0.002373,-105.082901,109.23941,-122.866348,60.187681,24.830107,13.659874,19.032912,-1.0,-1.0,100.609497,-0.684361,3.127394,-0.028288,-0.789748
839844.170815,0.0782838,0.29144529,9.78515127,0.004304,-0.004397,0.002373,-105.082901,109.23941,-122.866348,60.187681,24.830107,13.659874,19.032912,-1.0,-1.0,100.609497,-0.684361,3.127394,-0.028288,-0.789748
839844.210784,0.08098155,0.27991854,9.77317326,0.001925,-0.004294,0.005443,-105.132599,109.10849,-122.932541,60.187681,24.830107,13.659874,19.032912,-1.0,-1.0,100.609497,-0.684361,3.127429,-0.028301,-0.78972
839844.230768,0.07529175,0.28575549,9.77692068,0.004124,-0.001967,0.004721,-105.132599,109.10849,-122.932541,60.187681,24.830107,13.659874,19.032912,-1.0,-1.0,100.609497,-0.684361,3.127434,-0.028293,-0.789706
839844.250753,0.07199559,0.27453285,9.76613949,0.002898,-0.005834,0.005384,-105.013214,109.111664,-122.881714,60.187681,24.830107,13.659874,19.032912,-1.0,-1.0,100.609497,-0.684361,3.127467,-0.028302,-0.789692
839844.250753,0.07199559,0.27453285,9.76613949,0.002898,-0.005834,0.005384,-105.013214,109.111664,-122.881714,60.187681,24.830107,13.659874,19.032912,-1.0,-1.0,100.609497,-0.684361,3.127467,-0.028302,-0.789692
839844.290722,0.08502327,0.28695231,9.763294590000001,0.003338,-0.003749,0.004982,-105.000641,109.29744,-122.831406,60.187681,24.830107,13.659874,19.032912,-1.0,-1.0,100.609497,-0.684361,3.127507,-0.028315,-0.789686
839844.290722,0.08502327,0.28695231,9.763294590000001,0.003338,-0.003749,0.004982,-105.000641,109.29744,-122.831406,60.187681,24.830107,13.659874,19.032912,-1.0,-1.0,100.609497,-0.684361,3.127507,-0.028315,-0.789686
839844.33069,0.08981055,0.29653668000000005,9.7610481,0.003328,-0.004502,0.003066,-105.329437,109.128296,-122.845627,60.187681,24.830107,13.659874,19.032912,-1.0,-1.0,100.609497,-0.684361,3.127561,-0.028304,-0.789678
839844.350675,0.08786817,0.27393444,9.767493270000001,0.004303,-0.004217,0.003455,-105.17688,109.13942,-122.761475,60.187681,24.830107,13.659874,19.032912,-1.0,-1.0,100.609497,-0.684361,3.127586,-0.028317,-0.789671
839844.370659,0.08846658,0.28829628,9.775272600000001,0.003199,-0.002522,0.004022,-104.986374,109.336838,-122.84346,60.187681,24.830107,13.659874,19.032912,-1.0,-1.0,100.609497,-0.684361,3.127616,-0.028315,-0.789647
839844.390644,0.08861373,0.28934595,9.751473540000001,0.003362,-0.004613,0.003352,-104.978638,109.145493,-123.005447,60.187681,24.830107,13.659874,19.032912,-1.0,-1.0,100.609497,-0.684361,3.12764,-0.028315,-0.789659
839844.410628,0.08696565,0.29593827,9.75865446,0.003932,-0.00031,0.003599,-105.119995,109.204681,-123.009903,60.187681,24.830107,13.659874,19.032912,-1.0,-1.0,100.609497,-0.684361,3.127671,-0.028323,-0.78965
839844.430613,0.0865242,0.29084688000000003,9.77108373,0.002452,-0.003392,0.003893,-105.19458,109.167557,-122.940811,60.187681,24.830107,13.659874,19.032912,-1.0,-1.0,100.609497,-0.684361,3.127705,-0.028319,-0.789625
839844.450597,0.09040896000000001,0.29264211,9.7607538,0.002452,-0.003392,0.003893,-104.981064,109.169632,-122.5224,60.187681,24.830107,13.659874,19.032912,-1.0,-1.0,100.609497,-0.684361,3.127744,-0.028314,-0.789629
839844.470582,0.0836793,0.30221667,9.78560253,0.002749,-0.002898,0.005553,-105.124527,109.129913,-122.713043,60.187681,24.830107,13.659874,19.032912,-1.0,-1.0,100.609497,-0.684361,3.127782,-0.02832,-0.789607
839844.490566,0.08576883000000002,0.30221667,9.78649524,0.00412,-0.004677,0.003771,-105.092148,109.14946,-122.665604,60.187681,24.830107,13.659874,19.032912,-1.0,-1.0,100.609497,-0.684361,3.127818,-0.028326,-0.789596
839844.510551,0.07724394000000001,0.29039562,9.76988691,0.001655,-0.000617,0.003235,-104.930664,109.236847,-122.611572,60.187681,24.830107,13.659874,19.032912,-1.0,-1.0,100.609497,-0.684361,3.127834,-0.02834,-0.78958
839844.530535,0.09071307,0.2951829,9.76254903,0.002233,-0.005877,0.003292,-105.000473,109.234558,-122.686539,60.187681,24.830107,13.659874,19.032912,-1.0,-1.0,100.609497,-0.684361,3.12787,-0.028347,-0.789574
839844.55052,0.09744273000000002,0.27737775000000003,9.76704201,0.002732,-0.000498,0.005596,-105.008926,109.056091,-122.60997,60.187681,24.830107,13.659874,19.032912,-1.0,-1.0,100.609497,-0.684361,3.127893,-0.028337,-0.789565
839844.570504,0.07753824,0.28425456,9.76704201,0.00271,-0.006099,0.005259,-105.097916,108.981552,-122.686966,60.187681,24.830107,13.659874,19.032912,-1.0,-1.0,100.609497,-0.684361,3.127914,-0.028343,-0.789561
839844.590489,0.07424208,0.29219085,9.77482134,0.00273,-0.001633,0.00452,-105.069016,108.904938,-122.437592,60.187681,24.830107,13.659874,19.032912,-1.0,-1.0,100.609497,-0.684361,3.127947,-0.028348,-0.789578
839844.610473,0.09460764,0.28709946000000003,9.78141366,0.002606,-0.003681,0.003832,-104.980301,109.252243,-122.615372,60.187681,24.830107,13.659874,19.032912,-1.0,-1.0,100.609497,-0.684361,3.127959,-0.028357,-0.789564
839844.630457,0.08053028999999999,0.29338767,9.77077962,0.002606,-0.003681,0.003832,-104.939819,109.143753,-122.610764,60.187681,24.830107,13.659874,19.032912,-1.0,-1.0,100.609497,-0.684361,3.127997,-0.028368,-0.789555
839844.650442,0.08172711,0.27587682,9.79712928,0.002372,-0.00371,0.005201,-105.130966,109.003693,-122.778,60.187681,24.830107,13.659874,19.032912,-1.0,-1.0,100.609497,-0.684361,3.128016,-0.02838,-0.789547
839844.650442,0.08172711,0.27587682,9.79712928,0.002372,-0.00371,0.005201,-105.130966,109.003693,-122.778,60.187681,24.830107,13.659874,19.032912,-1.0,-1.0,100.609497,-0.684361,3.128016,-0.02838,-0.789547
839844.690411,0.08831943,0.29728224000000003,9.74728467,0.004303,-0.001665,0.005248,-104.9953,108.998123,-123.105133,60.187681,24.830107,13.659874,19.032912,-1.0,-1.0,100.609497,-0.684361,3.128058,-0.028385,-0.789536
839844.710396,0.08502327,0.27932013,9.784101600000001,0.002568,-0.006118,0.005484,-104.99649,109.139297,-122.867905,60.187681,24.830107,13.659874,19.032912,-1.0,-1.0,100.609497,-0.684361,3.128073,-0.028395,-0.789546
839844.750365,0.07708698000000001,0.2977335,9.75296466,0.001686,-0.002681,0.004156,-104.930069,109.1716,-122.77005,60.187681,24.830107,13.659874,19.032912,-1.0,-1.0,100.609497,-0.684361,3.128091,-0.028401,-0.789532
839844.770348,0.09624591,0.28785483,9.78634809,0.003354,-0.00421,0.003289,-104.79982,109.046722,-122.789276,60.187681,24.830107,13.659874,19.032912,-1.0,-1.0,100.609497,-0.684361,3.128108,-0.028394,-0.789528
839844.770348,0.09624591,0.28785483,9.78634809,0.003354,-0.00421,0.003289,-104.79982,109.046722,-122.789276,60.187681,24.830107,13.659874,19.032912,-1.0,-1.0,100.609497,-0.684361,3.128108,-0.028394,-0.789528
839844.810318,0.08562168,0.28814913000000003,9.787093650000001,0.002936,-0.003729,0.003932,-104.92662,109.291748,-122.714066,60.187681,24.830107,13.659874,19.032912,-1.0,-1.0,100.609497,-0.684361,3.128115,-0.028397,-0.789504
839844.810318,0.08562168,0.28814913000000003,9.787093650000001,0.002936,-0.003729,0.003932,-104.92662,109.291748,-122.714066,60.187681,24.830107,13.659874,19.032912,-1.0,-1.0,100.609497,-0.684361,3.128115,-0.028397,-0.789504
839844.850287,0.06930765,0.2977335,9.77751909,0.002876,-0.003176,0.003761,-104.95488,109.191391,-123.006439,60.187681,24.830107,13.659874,19.032912,-1.0,-1.0,100.609497,-0.684361,3.128121,-0.028407,-0.789482
839844.850287,0.06930765,0.2977335,9.77751909,0.002876,-0.003176,0.003761,-104.95488,109.191391,-123.006439,60.187681,24.830107,13.659874,19.032912,-1.0,-1.0,100.609497,-0.684361,3.128121,-0.028407,-0.789482
839844.890256,0.09415638000000001,0.28800198,9.78605379,0.003102,-0.003162,0.003761,-105.042999,109.242599,-123.210724,60.187681,24.830107,13.659874,19.032912,-1.0,-1.0,100.609497,-0.684361,3.128151,-0.028422,-0.789432
839844.910239,0.0865242,0.29264211,9.80521272,0.002415,-0.002169,0.002513,-105.051636,109.302994,-123.106369,60.187681,24.830107,13.659874,19.032912,-1.0,-1.0,100.609497,-0.684361,3.128177,-0.028415,-0.78943
839844.930225,0.08277678,0.29099403,9.77377167,0.002342,-0.002771,0.003194,-105.051636,109.302994,-123.106369,60.187681,24.830107,13.659874,19.032912,-1.0,-1.0,100.60939,-0.67379,3.128177,-0.028425,-0.789421
839844.950209,0.09086022,0.28261629000000005,9.78919299,0.002643,-0.005412,0.00409,-105.082199,109.37384,-123.03653,60.187681,24.830107,13.659874,19.032912,-1.0,-1.0,100.60939,-0.67379,3.128184,-0.028432,-0.789414
839844.970194,0.07693983,0.29383893,9.77437008,0.001399,-0.003001,0.003813,-105.05722,109.278534,-122.93129,60.187681,24.830107,13.659874,19.032912,-1.0,-1.0,100.60939,-0.67379,3.128183,-0.028435,-0.789403
839844.990178,0.09669717,0.28709946000000003,9.76120506,0.002213,-0.005806,0.005663,-104.89917,109.420624,-122.877686,60.187681,24.830107,13.659874,19.032912,-1.0,-1.0,100.60939,-0.67379,3.128177,-0.028431,-0.789401
839845.010163,0.06556023,0.28006569000000003,9.76300029,0.002912,-0.003157,0.00501,-104.907135,109.337769,-122.72998,60.187681,24.830107,13.659874,19.032912,-1.0,-1.0,100.60939,-0.67379,3.128165,-0.028415,-0.7894
839845.030147,0.08576883000000002,0.3008727,9.76554108,0.003724,-0.002544,0.004369,-105.12619,109.365585,-122.736847,60.187681,24.830107,13.659874,19.032912,-1.0,-1.0,100.60939,-0.67379,3.128174,-0.028426,-0.789395
839845.050132,0.10896948000000001,0.2832147,9.77706783,0.003603,-0.001926,0.004784,-105.042496,109.312347,-122.755859,60.187681,24.830107,13.659874,19.032912,-1.0,-1.0,100.60939,-0.67379,3.128175,-0.028427,-0.789393
839845.070116,0.07529175,0.28994436,9.763893,0.00288,-0.003127,0.00459,-105.000931,109.32814,-122.671188,60.187681,24.830107,13.659874,19.032912,-1.0,-1.0,100.60939,-0.67379,3.12818,-0.02844,-0.789404
839845.090101,0.08876088000000001,0.29608542000000004,9.78110955,0.003061,-0.004242,0.003966,-105.041351,109.413696,-122.954758,60.187681,24.830107,13.659874,19.032912,-1.0,-1.0,100.60939,-0.67379,3.128191,-0.028456,-0.789398
839845.110085,0.08846658,0.27737775000000003,9.775723860000001,0.003076,-0.002949,0.004622,-104.900284,109.216202,-122.528244,60.187681,24.830107,13.659874,19.032912,-1.0,-1.0,100.60939,-0.67379,3.128188,-0.028444,-0.789399
839845.13007,0.09116433,0.30132396,9.74848149,0.002265,-0.004357,0.005981,-105.02858,109.324081,-122.474762,60.187681,24.830107,13.659874,19.032912,-1.0,-1.0,100.60939,-0.67379,3.128178,-0.028449,-0.789385
839845.150054,0.08457201,0.28755072000000004,9.74997261,0.002972,0.000118,0.004681,-104.908432,109.355408,-122.765549,60.187681,24.830107,13.659874,19.032912,-1.0,-1.0,100.60939,-0.67379,3.128178,-0.028461,-0.789383
839845.170039,0.09849240000000001,0.28201788,9.771378030000001,0.003619,-0.004224,0.003517,-105.03891,109.290741,-122.617264,60.187681,24.830107,13.659874,19.032912,-1.0,-1.0,100.60939,-0.67379,3.128167,-0.028453,-0.789392
839845.190022,0.08696565,0.27437589,9.767934720000001,0.00232,-0.002446,0.004566,-104.997299,109.210052,-122.834717,60.187681,24.830107,13.659874,19.032912,-1.0,-1.0,100.60939,-0.67379,3.12817,-0.028438,-0.789386
839845.210008,0.09295956000000001,0.29668383,9.7695828,0.003318,-0.003675,0.005189,-104.97934,109.207886,-122.626434,60.187681,24.830107,13.659874,19.032912,-1.0,-1.0,100.60939,-0.67379,3.128148,-0.028458,-0.789383
839845.229992,0.08547453,0.27767205,9.763147440000001,0.003318,-0.003675,0.005189,-104.972916,109.202484,-123.030609,60.187681,24.830107,13.659874,19.032912,-1.0,-1.0,100.60939,-0.67379,3.128139,-0.028463,-0.789364
839845.249977,0.08023599000000001,0.28381311,9.751326390000001,0.002567,-0.002471,0.004259,-104.943542,109.130264,-122.691788,60.187681,24.830107,13.659874,19.032912,-1.0,-1.0,100.60939,-0.67379,3.128131,-0.028462,-0.789361
839845.289946,0.08532738,0.28291059,9.75207195,0.003562,-0.001467,0.003175,-104.963272,109.333038,-122.662338,60.187681,24.830107,13.659874,19.032912,-1.0,-1.0,100.60939,-0.67379,3.128107,-0.028464,-0.789349
839845.289946,0.08532738,0.28291059,9.75207195,0.003562,-0.001467,0.003175,-104.963272,109.333038,-122.662338,60.187681,24.830107,13.659874,19.032912,-1.0,-1.0,100.60939,-0.67379,3.128107,-0.028464,-0.789349
839845.329915,0.07574301000000001,0.28500993,9.759704130000001,0.003621,-0.000138,0.005245,-105.147476,109.141769,-122.595184,60.187681,24.830107,13.659874,19.032912,-1.0,-1.0,100.60939,-0.67379,3.128081,-0.028481,-0.789333
839845.329915,0.07574301000000001,0.28500993,9.759704130000001,0.003621,-0.000138,0.005245,-105.147476,109.141769,-122.595184,60.187681,24.830107,13.659874,19.032912,-1.0,-1.0,100.60939,-0.67379,3.128081,-0.028481,-0.789333
839845.369884,0.09205704,0.28845324,9.77032836,0.003351,-0.002753,0.004115,-105.23616,109.237366,-122.72464,60.187681,24.830107,13.659874,19.032912,-1.0,-1.0,100.60939,-0.67379,3.128063,-0.028474,-0.789355
839845.369884,0.09205704,0.28845324,9.77032836,0.003351,-0.002753,0.004115,-105.23616,109.237366,-122.72464,60.187681,24.830107,13.659874,19.032912,-1.0,-1.0,100.60939,-0.67379,3.128063,-0.028474,-0.789355
839845.409853,0.08277678,0.29922462000000005,9.76704201,0.003162,-0.003501,0.004319,-105.100937,109.32579,-122.608871,60.187681,24.830107,13.659874,19.032912,-1.0,-1.0,100.60939,-0.67379,3.128037,-0.02847,-0.789352
839845.409853,0.08277678,0.29922462000000005,9.76704201,0.003162,-0.003501,0.004319,-105.100937,109.32579,-122.608871,60.187681,24.830107,13.659874,19.032912,-1.0,-1.0,100.60939,-0.67379,3.128037,-0.02847,-0.789352
839845.449821,0.08622009,0.29443734,9.76209777,0.001744,-0.00411,0.001829,-104.86821,109.341293,-122.945877,60.187681,24.830107,13.659874,19.032912,-1.0,-1.0,100.60939,-0.67379,3.128021,-0.028464,-0.78934
839845.469805,0.08592579,0.29010132000000005,9.77347737,0.002695,-0.001347,0.00563,-105.141861,109.283173,-122.420685,60.187681,24.830107,13.659874,19.032912,-1.0,-1.0,100.60939,-0.67379,3.128003,-0.028457,-0.789336
839845.48979,0.09580446000000001,0.28709946000000003,9.772133400000001,0.003427,-0.003483,0.002097,-104.83226,109.333633,-122.668793,60.187681,24.830107,13.659874,19.032912,-1.0,-1.0,100.60939,-0.67379,3.127989,-0.028449,-0.789328
839845.48979,0.09580446000000001,0.28709946000000003,9.772133400000001,0.003427,-0.003483,0.002097,-104.83226,109.333633,-122.668793,60.187681,24.830107,13.659874,19.032912,-1.0,-1.0,100.60939,-0.67379,3.127989,-0.028449,-0.789328
839845.529759,0.08861373,0.27961443,9.76554108,0.003123,-0.001019,0.003879,-105.065994,109.252975,-122.708603,60.187681,24.830107,13.659874,19.032912,-1.0,-1.0,100.60939,-0.67379,3.127971,-0.028457,-0.789312
839845.549743,0.08996751000000001,0.28455867,9.767493270000001,0.002864,-0.002736,0.003986,-104.9534,109.147095,-122.520844,60.187681,24.830107,13.659874,19.032912,-1.0,-1.0,100.60939,-0.67379,3.127965,-0.028456,-0.789312
839845.569728,0.09040896000000001,0.28934595,9.764942670000002,0.002234,-0.00049,0.004307,-105.074646,108.972382,-122.303726,60.187681,24.830107,13.659874,19.032912,-1.0,-1.0,100.60939,-0.67379,3.127936,-0.02846,-0.789307
839845.589712,0.07574301000000001,0.29069973,9.74982546,0.003216,-0.004677,0.005186,-104.979324,108.990448,-122.94989,60.187681,24.830107,13.659874,19.032912,-1.0,-1.0,100.60939,-0.67379,3.127951,-0.028469,-0.789288
839845.609697,0.08157996,0.28680516,9.77018121,0.001949,-0.002067,0.003191,-104.998825,109.274246,-122.688507,60.187681,24.830107,13.659874,19.032912,-1.0,-1.0,100.60939,-0.67379,3.12793,-0.028464,-0.789297
839845.629681,0.08667135000000001,0.27542556,9.75671208,0.001876,-0.00384,0.006045,-104.929367,109.16568,-122.394501,60.187681,24.830107,13.659874,19.032912,-1.0,-1.0,100.60939,-0.67379,3.127902,-0.028447,-0.789291
839845.649666,0.09040896000000001,0.29010132000000005,9.763147440000001,0.004437,-0.002166,0.004737,-104.929367,109.16568,-122.394501,60.187681,24.830107,13.659874,19.032912,-1.0,-1.0,100.60939,-0.67379,3.127891,-0.028447,-0.789299
839845.66965,0.09026181000000001,0.2894931,9.768385980000001,0.003576,-0.003311,0.004084,-104.999344,109.123215,-122.692032,60.187681,24.830107,13.659874,19.032912,-1.0,-1.0,100.60939,-0.67379,3.127861,-0.028451,-0.789307
839845.689635,0.07184844,0.28201788,9.775723860000001,0.003615,-0.002757,0.004014,-105.027786,109.152496,-122.783432,60.187681,24.830107,13.659874,19.032912,-1.0,-1.0,100.60939,-0.67379,3.127849,-0.028448,-0.789294
839845.709619,0.08248248000000001,0.29429019,9.75341592,0.002842,-0.001417,0.004757,-105.011597,109.230164,-122.792557,60.187681,24.830107,13.659874,19.032912,-1.0,-1.0,100.60939,-0.67379,3.127832,-0.028451,-0.78928
839845.729604,0.09176274,0.30101985000000003,9.783503190000001,0.002421,-0.00387,0.004576,-105.069,109.204987,-122.655518,60.187681,24.830107,13.659874,19.032912,-1.0,-1.0,100.60939,-0.67379,3.127821,-0.02845,-0.789271
839845.749588,0.08277678,0.28381311,9.764795520000002,0.002061,-0.001946,0.004369,-104.789154,109.294693,-122.787933,60.187681,24.830107,13.659874,19.032912,-1.0,-1.0,100.60939,-0.67379,3.127807,-0.028444,-0.789279
839845.769573,0.07065162,0.28305774,9.765246780000002,0.003076,-0.005632,0.004015,-104.809357,109.229752,-122.596436,60.187681,24.830107,13.659874,19.032912,-1.0,-1.0,100.60939,-0.67379,3.127786,-0.028448,-0.789273
839845.789557,0.08726976,0.29069973,9.76464837,0.003003,-0.000561,0.003318,-104.901352,109.130966,-122.766403,60.187681,24.830107,13.659874,19.032912,-1.0,-1.0,100.60939,-0.67379,3.127759,-0.02845,-0.78928
839845.809542,0.09100737,0.28769787,9.772133400000001,0.002867,-0.002519,0.004221,-105.190689,109.109207,-122.814865,60.187681,24.830107,13.659874,19.032912,-1.0,-1.0,100.60939,-0.67379,3.127735,-0.028443,-0.789264
839845.829526,0.08876088000000001,0.27468000000000004,9.74458692,0.003761,-0.001147,0.004002,-105.12764,109.276855,-122.639175,60.187681,24.830107,13.659874,19.032912,-1.0,-1.0,100.60939,-0.67379,3.127723,-0.028443,-0.789251
839845.849511,0.09609875999999999,0.28530423000000005,9.77273181,0.003151,-0.002705,0.005898,-105.211227,109.222412,-122.358337,60.187681,24.830107,13.659874,19.032912,-1.0,-1.0,100.60939,-0.67379,3.127704,-0.028469,-0.789243
839845.869495,0.08906499000000001,0.28725642,9.77347737,0.002555,-0.002553,0.004074,-105.077728,109.281754,-122.670395,60.187681,24.830107,13.659874,19.032912,-1.0,-1.0,100.60939,-0.67379,3.127694,-0.02848,-0.789242
839845.88948,0.08023599000000001,0.2894931,9.76180347,0.003111,-0.00269,0.007246,-105.190079,109.116364,-122.696106,60.187681,24.830107,13.659874,19.032912,-1.0,-1.0,100.60939,-0.67379,3.127682,-0.028482,-0.789239
839845.909464,0.08172711,0.2980278,9.75027672,0.003383,-0.003524,0.003216,-105.12764,109.176239,-122.927826,60.187681,24.830107,13.659874,19.032912,-1.0,-1.0,100.60939,-0.67379,3.127673,-0.028475,-0.789217
839845.929449,0.08636724,0.26958861,9.759556980000001,0.00232,0.000392,0.004773,-105.35173,109.067139,-122.702896,60.187681,24.830107,13.659874,19.032912,-1.0,-1.0,100.60939,-0.67379,3.12766,-0.028487,-0.789221
839845.949433,0.09475478999999999,0.29997999,9.77077962,0.003194,-0.003445,0.003469,-105.193939,109.115631,-122.718628,60.187681,24.830107,13.659874,19.032912,-1.0,-1.0,100.60939,-0.67379,3.127649,-0.028488,-0.78922
839845.969418,0.06870924,0.28485297000000004,9.751473540000001,0.003688,-0.000919,0.003138,-105.271591,108.931931,-122.751083,60.187681,24.830107,13.659874,19.032912,-1.0,-1.0,100.60939,-0.67379,3.127641,-0.028493,-0.789219
839846.009387,0.08427771,0.27078543,9.774968490000001,0.00316,-0.002727,0.004479,-105.219376,109.017517,-122.894562,60.187681,24.830107,13.659874,19.032912,-1.0,-1.0,100.609268,-0.663219,3.127629,-0.028503,-0.789217
839846.009387,0.08427771,0.27078543,9.774968490000001,0.00316,-0.002727,0.004479,-105.219376,109.017517,-122.894562,60.187681,24.830107,13.659874,19.032912,-1.0,-1.0,100.609268,-0.663219,3.127629,-0.028503,-0.789217
839846.049356,0.07978473,0.29144529,9.768238830000001,0.003111,-0.004295,0.005267,-104.908447,109.516724,-122.616913,60.187681,24.830107,13.659874,19.032912,-1.0,-1.0,100.609268,-0.663219,3.127611,-0.028495,-0.789215
839846.049356,0.07978473,0.29144529,9.768238830000001,0.003111,-0.004295,0.005267,-104.908447,109.516724,-122.616913,60.187681,24.830107,13.659874,19.032912,-1.0,-1.0,100.609268,-0.663219,3.127611,-0.028495,-0.789215
839846.089325,0.10747836000000001,0.29353482000000003,9.771525180000001,0.001809,-0.003002,0.001475,-105.218765,109.191772,-122.773834,60.187681,24.830107,13.659874,19.032912,-1.0,-1.0,100.609268,-0.663219,3.1276,-0.028484,-0.789261
839846.109309,0.07858791000000001,0.29922462000000005,9.768690090000002,0.004159,0.000393,0.005249,-105.204651,109.151871,-122.78743,60.187681,24.830107,13.659874,19.032912,-1.0,-1.0,100.609268,-0.663219,3.127582,-0.028476,-0.789264
839846.129294,0.07320222,0.30371760000000003,9.76240188,0.003134,0.000665,0.005855,-105.08728,109.062805,-122.689819,60.187681,24.830107,13.659874,19.032912,-1.0,-1.0,100.609268,-0.663219,3.127594,-0.028469,-0.789211
839846.129294,0.07320222,0.30371760000000003,9.76240188,0.003134,0.000665,0.005855,-105.08728,109.062805,-122.689819,60.187681,24.830107,13.659874,19.032912,-1.0,-1.0,100.609268,-0.663219,3.127594,-0.028469,-0.789211
839846.169263,0.05792805,0.27138384000000004,9.772280550000001,0.002702,-2.1e-05,0.004547,-105.092346,109.138977,-122.692444,60.187681,24.830107,13.659874,19.032912,-1.0,-1.0,100.609268,-0.663219,3.127584,-0.028453,-0.789253
839846.189247,0.08921214,0.27932013,9.768690090000002,0.003712,-0.004861,0.007062,-105.175812,109.14856,-122.744064,60.187681,24.830107,13.659874,19.032912,-1.0,-1.0,100.609268,-0.663219,3.127571,-0.028462,-0.789224
839846.209232,0.09609875999999999,0.27857457,9.783208890000001,0.004006,-0.000671,0.000915,-105.049423,109.151062,-122.7957,60.187681,24.830107,13.659874,19.032912,-1.0,-1.0,100.609268,-0.663219,3.127551,-0.028462,-0.789257
839846.209232,0.09609875999999999,0.27857457,9.783208890000001,0.004006,-0.000671,0.000915,-105.049423,109.151062,-122.7957,60.187681,24.830107,13.659874,19.032912,-1.0,-1.0,100.609268,-0.663219,3.127551,-0.028462,-0.789257
839846.249201,0.09759969,0.29353482000000003,9.774968490000001,0.002626,-0.000432,0.007811,-104.886185,109.29393,-122.291092,60.187681,24.830107,13.659874,19.032912,-1.0,-1.0,100.609268,-0.663219,3.127527,-0.028503,-0.78918
839846.269185,0.07424208,0.29383893,9.771829290000001,0.002888,-0.001763,0.005123,-104.817749,109.493301,-122.566391,60.187681,24.830107,13.659874,19.032912,-1.0,-1.0,100.609268,-0.663219,3.127503,-0.028503,-0.789203
839846.28917,0.07648857,0.31674527999999996,9.790988220000001,0.002811,-0.001188,0.003175,-105.023972,109.478836,-122.691635,60.187681,24.830107,13.659874,19.032912,-1.0,-1.0,100.609268,-0.663219,3.127491,-0.028484,-0.789232
839846.28917,0.07648857,0.31674527999999996,9.790988220000001,0.002811,-0.001188,0.003175,-105.023972,109.478836,-122.691635,60.187681,24.830107,13.659874,19.032912,-1.0,-1.0,100.609268,-0.663219,3.127491,-0.028484,-0.789232
839846.329139,0.08188407,0.28276344,9.79413723,0.002127,-0.006558,0.004251,-105.080551,109.364075,-122.701859,60.187681,24.830107,13.659874,19.032912,-1.0,-1.0,100.609268,-0.663219,3.12747,-0.028451,-0.789227
839846.349123,0.10927359,0.25506981,9.802966230000001,-0.000561,-0.006073,0.001825,-105.106934,109.271896,-122.88002,60.187681,24.830107,13.659874,19.032912,-1.0,-1.0,100.609268,-0.663219,3.127455,-0.028447,-0.789233
839846.369108,0.034276140000000004,0.25896438000000005,9.733207320000002,0.006633,-0.004872,0.006523,-105.106934,109.271896,-122.88002,60.187681,24.830107,13.659874,19.032912,-1.0,-1.0,100.609268,-0.663219,3.127433,-0.028428,-0.789205
839846.389092,0.10088604,0.26255484,9.80909748,0.002894,0.005536,0.004485,-104.910339,109.33107,-122.752289,60.187681,24.830107,13.659874,19.032912,-1.0,-1.0,100.609268,-0.663219,3.127394,-0.028431,-0.789205
839846.389092,0.10088604,0.26255484,9.80909748,0.002894,0.005536,0.004485,-104.910339,109.33107,-122.752289,60.187681,24.830107,13.659874,19.032912,-1.0,-1.0,100.609268,-0.663219,3.127394,-0.028431,-0.789205
839846.429061,0.06601149,0.2573163,9.712704420000001,0.001435,-0.002472,0.004153,-105.052094,109.275558,-122.568542,60.187681,24.830107,13.659874,19.032912,-1.0,-1.0,100.609268,-0.663219,3.12733,-0.028436,-0.789239
839846.449046,0.06825798,0.21479976,9.751169430000001,0.001051,-0.012819,0.003806,-104.971893,109.371521,-122.655746,60.187681,24.830107,13.659874,19.032912,-1.0,-1.0,100.609268,-0.663219,3.12727,-0.028437,-0.789222
839846.46903,0.09236115,0.19863287999999998,9.74503818,0.000996,-0.004796,0.003585,-104.804337,109.774048,-122.621216,60.187681,24.830107,13.659874,19.032912,-1.0,-1.0,100.609268,-0.663219,3.127218,-0.028437,-0.789204
839846.489015,0.08471916,0.24892875000000003,9.735306660000001,0.002392,-0.008766,0.00394,-104.622299,109.574997,-122.680145,60.187681,24.830107,13.659874,19.032912,-1.0,-1.0,100.609268,-0.663219,3.12715,-0.02842,-0.789206
839846.528984,0.07603731000000001,0.29429019,9.74219328,0.002663,0.000819,0.003963,-104.076538,110.338928,-122.274384,60.187681,24.830107,13.659874,19.032912,-1.0,-1.0,100.609268,-0.663219,3.126937,-0.028378,-0.789183
839846.528984,0.07603731000000001,0.29429019,9.74219328,0.002663,0.000819,0.003963,-104.076538,110.338928,-122.274384,60.187681,24.830107,13.659874,19.032912,-1.0,-1.0,100.609268,-0.663219,3.126937,-0.028378,-0.789183
839846.568953,0.10059174,0.27063828,9.79712928,0.004926,0.004192,0.002908,-103.488266,110.627441,-122.199905,60.187681,24.830107,13.659874,19.032912,-1.0,-1.0,100.609268,-0.663219,3.126849,-0.028372,-0.789196
839846.568953,0.10059174,0.27063828,9.79712928,0.004926,0.004192,0.002908,-103.488266,110.627441,-122.199905,60.187681,24.830107,13.659874,19.032912,-1.0,-1.0,100.609268,-0.663219,3.126849,-0.028372,-0.789196
839846.608922,0.08172711,0.24339591000000002,9.78500412,0.004242,-0.002872,0.004121,-102.688156,110.739777,-121.964478,60.187681,24.830107,13.659874,19.032912,-1.0,-1.0,100.609268,-0.663219,3.126764,-0.028387,-0.789165
839846.608922,0.08172711,0.24339591000000002,9.78500412,0.004242,-0.002872,0.004121,-102.688156,110.739777,-121.964478,60.187681,24.830107,13.659874,19.032912,-1.0,-1.0,100.609268,-0.663219,3.126764,-0.028387,-0.789165
839846.648891,0.07993188000000001,0.26689086,9.743988510000001,0.003532,-0.00264,0.003391,-101.955536,110.968918,-121.983795,60.187681,24.830107,13.659874,19.032912,-1.0,-1.0,100.609268,-0.663219,3.126674,-0.028397,-0.789118
839846.648891,0.07993188000000001,0.26689086,9.743988510000001,0.003532,-0.00264,0.003391,-101.955536,110.968918,-121.983795,60.187681,24.830107,13.659874,19.032912,-1.0,-1.0,100.609268,-0.663219,3.126674,-0.028397,-0.789118
839846.68886,0.10972485000000001,0.30775932,9.80775351,0.000735,-0.005256,0.001596,-101.029312,111.086533,-121.595734,60.187681,24.830107,13.659874,19.032912,-1.0,-1.0,100.609268,-0.663219,3.126614,-0.028425,-0.78909
839846.68886,0.10972485000000001,0.30775932,9.80775351,0.000735,-0.005256,0.001596,-101.029312,111.086533,-121.595734,60.187681,24.830107,13.659874,19.032912,-1.0,-1.0,100.609268,-0.663219,3.126614,-0.028425,-0.78909
839846.68886,0.10972485000000001,0.30775932,9.80775351,0.000735,-0.005256,0.001596,-101.029312,111.086533,-121.595734,60.187681,24.830107,13.659874,19.032912,-1.0,-1.0,100.609268,-0.663219,3.126614,-0.028425,-0.78909
839846.728829,0.07380063,0.41404086,9.75880161,0.002693,-0.001167,0.002587,-100.261078,111.123062,-121.79335,60.187681,24.830107,13.659874,19.032912,-1.0,-1.0,100.609268,-0.663219,3.126528,-0.028432,-0.788986
839846.768798,0.017363700000000003,0.45250587000000003,9.75072798,0.002623,0.000142,0.015658,-100.024918,111.149933,-121.606506,60.187681,24.830107,13.659874,19.032912,-1.0,-1.0,100.609268,-0.663219,3.126492,-0.028463,-0.788973
839846.768798,0.017363700000000003,0.45250587000000003,9.75072798,0.002623,0.000142,0.015658,-100.024918,111.149933,-121.606506,60.187681,24.830107,13.659874,19.032912,-1.0,-1.0,100.609268,-0.663219,3.126492,-0.028463,-0.788973
839846.808767,0.09100737,0.33050871,9.756564930000001,0.000839,-0.007084,-0.002686,-100.220535,111.231125,-121.638794,60.187681,24.830107,13.659874,19.032912,-1.0,-1.0,100.609268,-0.663219,3.126397,-0.028428,-0.789074
839846.828752,0.045351630000000004,0.27377748,9.74114361,0.002709,-0.002644,0.005326,-100.476425,111.123322,-121.536209,60.187681,24.830107,13.659874,19.032912,-1.0,-1.0,100.609268,-0.663219,3.126424,-0.02843,-0.788891
839846.848736,0.12693159,0.21644784,9.787250610000001,0.003078,-0.006948,0.005838,-100.67186,110.984879,-121.348068,60.187681,24.830107,13.659874,19.032912,-1.0,-1.0,100.609268,-0.663219,3.126339,-0.028408,-0.788805
839846.868721,0.015264360000000001,0.23995260000000002,9.72003249,0.00261,0.002452,0.009246,-101.013412,110.979416,-121.450363,60.187681,24.830107,13.659874,19.032912,-1.0,-1.0,100.609268,-0.663219,3.126325,-0.028406,-0.788829
839846.888705,0.14594337000000002,0.22378572,9.80057259,0.000614,-0.003978,0.008954,-100.968155,111.067932,-121.495697,60.187681,24.830107,13.659874,19.032912,-1.0,-1.0,100.609268,-0.663219,3.1263,-0.028401,-0.788856
839846.90869,0.06406911000000001,0.25072398,9.7607538,0.001195,-0.001535,0.00628,-100.992386,111.227295,-121.61557,60.187681,24.830107,13.659874,19.032912,-1.0,-1.0,100.609268,-0.663219,3.126258,-0.028375,-0.788922
839846.928674,0.08083440000000001,0.26210358,9.775419750000001,0.003769,-0.003095,0.003662,-100.929321,111.104782,-121.30043,60.187681,24.830107,13.659874,19.032912,-1.0,-1.0,100.609268,-0.663219,3.126248,-0.02835,-0.788985
839846.948659,0.12154590000000001,0.28381311,9.76180347,0.0021,-0.004134,0.005848,-100.750549,111.07048,-121.443634,60.187681,24.830107,13.659874,19.032912,-1.0,-1.0,100.609268,-0.663219,3.126205,-0.028336,-0.788981
839846.968643,0.07020036,0.30101985000000003,9.7493742,0.004817,-0.000317,0.003593,-100.924332,111.25087,-121.304214,60.187681,24.830107,13.659874,19.032912,-1.0,-1.0,100.609268,-0.663219,3.126185,-0.028332,-0.788989
839846.988628,0.10568313,0.33514884,9.771829290000001,0.002381,-0.00178,0.002764,-100.86322,111.249069,-121.092636,60.187681,24.830107,13.659874,19.032912,-1.0,-1.0,100.609268,-0.663219,3.126149,-0.028323,-0.788993
839847.008612,0.08951625,0.34458605999999997,9.76030254,0.002443,-0.001328,0.004388,-100.867554,111.106277,-121.208298,60.187681,24.830107,13.659874,19.032912,-1.0,-1.0,100.609268,-0.663219,3.12612,-0.028315,-0.788952
839847.028597,0.09475478999999999,0.34593003000000005,9.75865446,0.004306,-0.000209,0.00161,-101.056488,111.087051,-121.292328,60.187681,24.830107,13.659874,19.032912,-1.0,-1.0,100.609268,-0.663219,3.126094,-0.028304,-0.788946
839847.048581,0.10358379000000001,0.31419468,9.787397760000001,0.002983,-0.004023,0.003554,-101.160965,111.214783,-121.518097,60.187681,24.830107,13.659874,19.032912,-1.0,-1.0,100.609268,-0.663219,3.126037,-0.0283,-0.788921
839847.068566,0.06646275,0.24983127000000002,9.768238830000001,0.004679,-0.000617,0.003783,-101.160965,111.214783,-121.518097,60.187681,24.830107,13.659874,19.032912,-1.0,-1.0,100.609268,-0.663219,3.126018,-0.028297,-0.788899
839847.08855,0.08801532000000001,0.20223315000000003,9.77317326,0.003997,-0.002279,0.005095,-101.355515,111.169357,-121.407761,60.187681,24.830107,13.659874,19.032912,-1.0,-1.0,100.609268,-0.663219,3.125997,-0.028314,-0.788888
839847.108535,0.0811287,0.21435831,9.75910572,0.003118,0.001551,0.010722,-101.503128,110.954498,-121.699707,60.187681,24.830107,13.659874,19.032912,-1.0,-1.0,100.609268,-0.663219,3.125979,-0.028331,-0.788864
839847.128519,0.09265545000000001,0.25985709,9.75011976,0.002759,0.003255,0.005254,-101.492722,111.191925,-121.680008,60.187681,24.830107,13.659874,19.032912,-1.0,-1.0,100.609268,-0.663219,3.125951,-0.028362,-0.788942
839847.148504,0.09655002,0.28620675,9.763451550000001,0.005011,0.002162,0.000457,-101.288879,111.168915,-121.466476,60.187681,24.830107,13.659874,19.032912,-1.0,-1.0,100.609268,-0.663219,3.125928,-0.028365,-0.789044
839847.188473,0.09445068,0.27168795,9.760008240000001,0.002523,-0.003471,0.006155,-101.507553,110.929153,-121.651428,60.187681,24.830107,13.659874,19.032912,-1.0,-1.0,100.609268,-0.663219,3.125873,-0.028363,-0.788982
839847.208458,0.09490194,0.29952873,9.75805605,0.005479,-0.000829,0.002657,-101.345551,110.98642,-121.870102,60.187681,24.830107,13.659874,19.032912,-1.0,-1.0,100.609268,-0.663219,3.125834,-0.028356,-0.789035
839847.208458,0.09490194,0.29952873,9.75805605,0.005479,-0.000829,0.002657,-101.345551,110.98642,-121.870102,60.187681,24.830107,13.659874,19.032912,-1.0,-1.0,100.609268,-0.663219,3.125834,-0.028356,-0.789035
839847.248427,0.10088604,0.30357045,9.76898439,0.003494,-0.00279,0.004124,-101.182388,111.261292,-121.764526,60.187681,24.830107,13.659874,19.032912,-1.0,-1.0,100.609268,-0.663219,3.125777,-0.028365,-0.789005
839847.248427,0.10088604,0.30357045,9.76898439,0.003494,-0.00279,0.004124,-101.182388,111.261292,-121.764526,60.187681,24.830107,13.659874,19.032912,-1.0,-1.0,100.609268,-0.663219,3.125777,-0.028365,-0.789005
839847.288396,0.07948062,0.28860039000000004,9.78500412,0.002646,-0.000765,0.003706,-101.220734,111.11972,-121.724365,60.187681,24.830107,13.659874,19.032912,-1.0,-1.0,100.609268,-0.663219,3.125711,-0.028339,-0.78902
839847.288396,0.07948062,0.28860039000000004,9.78500412,0.002646,-0.000765,0.003706,-101.220734,111.11972,-121.724365,60.187681,24.830107,13.659874,19.032912,-1.0,-1.0,100.609268,-0.663219,3.125711,-0.028339,-0.78902
839847.30838,0.09984618,0.2948886,9.77362452,0.001591,-0.000673,0.005178,-101.475677,111.228455,-121.808182,60.187681,24.830107,13.659874,19.032912,-1.0,-1.0,100.609268,-0.663219,3.125673,-0.028339,-0.789007
839847.348349,0.09370512,0.29114118,9.76300029,0.003241,-0.000112,0.005818,-101.403107,111.044098,-121.596191,60.187682,24.830166,14.279265,14.394378,-1.0,-1.0,100.609268,-0.663219,3.125645,-0.028329,-0.789017
839847.368334,0.08981055,0.27977139,9.77092677,0.001864,-0.000294,0.006029,-101.27066,111.204193,-121.915863,60.187682,24.830166,14.279265,14.394378,-1.0,-1.0,100.609268,-0.663219,3.125626,-0.028353,-0.789021
839847.388318,0.07035732,0.29069973,9.77287896,0.003589,-0.000496,0.00408,-101.362473,110.979767,-122.050064,60.187682,24.830166,14.279265,14.394378,-1.0,-1.0,100.609268,-0.663219,3.125624,-0.028365,-0.789032
839847.408303,0.09624591,0.27317907,9.78201207,0.002433,-0.000533,0.004612,-101.454987,111.063873,-121.870621,60.187682,24.830166,14.279265,14.394378,-1.0,-1.0,100.609268,-0.663219,3.125628,-0.028359,-0.78903
839847.428287,0.08576883000000002,0.27258066000000003,9.77512545,0.001837,-0.002113,0.004218,-101.479141,110.957352,-121.838394,60.187682,24.830166,14.279265,14.394378,-1.0,-1.0,100.609268,-0.663219,3.125617,-0.028356,-0.789026
839847.448273,0.09190989000000001,0.2749743,9.764942670000002,0.00522,0.000594,0.004069,-101.45433,110.945053,-121.994522,60.187682,24.830166,14.279265,14.394378,-1.0,-1.0,100.609268,-0.663219,3.125615,-0.028362,-0.789024
839847.468257,0.09564750000000001,0.28201788,9.77317326,0.001666,-0.001971,0.005193,-101.412949,111.023117,-121.952728,60.187682,24.830166,14.279265,14.394378,-1.0,-1.0,100.609268,-0.663219,3.125608,-0.028372,-0.789013
839847.488242,0.08517042000000001,0.28291059,9.78679935,0.004549,-0.000265,0.003808,-101.375504,111.05632,-122.096161,60.187682,24.830166,14.279265,14.394378,-1.0,-1.0,100.609268,-0.663219,3.125618,-0.028376,-0.789001
839847.508226,0.10059174,0.27961443,9.76704201,0.00254,-0.002091,0.003659,-101.618057,111.120972,-122.122711,60.187682,24.830166,14.279265,14.394378,-1.0,-1.0,100.609268,-0.663219,3.12563,-0.028373,-0.789007
839847.528211,0.09520605,0.29369178,9.76733631,0.003206,-0.00157,0.004766,-101.380447,111.258514,-121.661575,60.187682,24.830166,14.279265,14.394378,-1.0,-1.0,100.609268,-0.663219,3.12563,-0.028371,-0.789
839847.548195,0.09160578000000001,0.27513126000000004,9.772280550000001,0.001274,-0.00047,0.002164,-101.435425,111.089066,-121.760193,60.187682,24.830166,14.279265,14.394378,-1.0,-1.0,100.609268,-0.663219,3.12562,-0.02836,-0.789002
839847.56818,0.09430353000000001,0.29173959000000005,9.77737194,0.002853,-0.002535,0.003434,-101.111679,110.895737,-121.839386,60.187682,24.830166,14.279265,14.394378,-1.0,-1.0,100.609268,-0.663219,3.125615,-0.028353,-0.788998
839847.588164,0.09370512,0.28365615,9.75341592,0.003486,0.001258,0.004224,-101.25473,110.937241,-121.603027,60.187682,24.830166,14.279265,14.394378,-1.0,-1.0,100.609268,-0.663219,3.125606,-0.028347,-0.788987
839847.588164,0.09370512,0.28365615,9.75341592,0.003486,0.001258,0.004224,-101.25473,110.937241,-121.603027,60.187682,24.830166,14.279265,14.394378,-1.0,-1.0,100.609268,-0.663219,3.125606,-0.028347,-0.788987
839847.628133,0.08996751000000001,0.28141947,9.78170796,0.002962,-0.001312,0.002232,-101.399536,110.906372,-121.554489,60.187682,24.830166,14.279265,14.394378,-1.0,-1.0,100.609268,-0.663219,3.125609,-0.028334,-0.788977
839847.648118,0.08232552,0.29129814000000004,9.76764042,0.001292,-0.002856,0.006218,-101.286667,110.989471,-121.562546,60.187682,24.830166,14.279265,14.394378,-1.0,-1.0,100.609268,-0.663219,3.125615,-0.028331,-0.788955
839847.668103,0.07589016,0.28156662,9.76030254,0.003891,-0.001683,0.004392,-101.230804,111.105026,-121.652115,60.187682,24.830166,14.279265,14.394378,-1.0,-1.0,100.609268,-0.663219,3.125593,-0.028326,-0.788956
839847.688087,0.0865242,0.28141947,9.76883724,0.002776,-0.000299,0.0046,-101.343674,111.131287,-121.490753,60.187682,24.830166,14.279265,14.394378,-1.0,-1.0,100.609268,-0.663219,3.125583,-0.028339,-0.78895
839847.708072,0.09504909,0.28455867,9.76554108,0.003276,-0.002981,0.004874,-101.159256,111.18309,-121.602051,60.187682,24.830166,14.279265,14.394378,-1.0,-1.0,100.609268,-0.663219,3.125582,-0.028346,-0.788958
839847.728056,0.09774684000000002,0.28500993,9.75671208,0.002543,0.000339,0.00261,-101.244034,111.01358,-121.78804,60.187682,24.830166,14.279265,14.394378,-1.0,-1.0,100.609268,-0.663219,3.125574,-0.028359,-0.788958
839847.748041,0.0836793,0.29114118,9.76269618,0.003255,-0.000763,0.005275,-101.203629,111.169327,-121.841202,60.187682,24.830166,14.279265,14.394378,-1.0,-1.0,100.609268,-0.663219,3.125571,-0.028362,-0.788933
839847.78801,0.10478061,0.28590264,9.747431820000001,0.001358,-0.001694,0.004491,-101.183807,111.233185,-122.035904,60.187682,24.830166,14.279265,14.394378,-1.0,-1.0,100.609268,-0.663219,3.125568,-0.028349,-0.788919
839847.807994,0.07858791000000001,0.28381311,9.75910572,0.004687,0.000473,0.00424,-101.278503,111.051758,-121.865387,60.187682,24.830166,14.279265,14.394378,-1.0,-1.0,100.609268,-0.663219,3.125585,-0.028338,-0.788908
839847.807994,0.07858791000000001,0.28381311,9.75910572,0.004687,0.000473,0.00424,-101.278503,111.051758,-121.865387,60.187682,24.830166,14.279265,14.394378,-1.0,-1.0,100.609268,-0.663219,3.125585,-0.028338,-0.788908
839847.847963,0.08876088000000001,0.28425456,9.77617512,0.003973,5e-05,0.003815,-101.125214,111.12088,-121.796051,60.187682,24.830166,14.279265,14.394378,-1.0,-1.0,100.609268,-0.663219,3.125581,-0.028345,-0.788915
839847.867948,0.08786817,0.28695231,9.771378030000001,0.002977,-0.000794,0.004048,-101.042404,111.292679,-121.749054,60.187682,24.830166,14.279265,14.394378,-1.0,-1.0,100.609268,-0.663219,3.125576,-0.028351,-0.788921
839847.887932,0.08023599000000001,0.2806641,9.77437008,0.004715,-0.002064,0.005332,-101.1754,111.236954,-122.152924,60.187682,24.830166,14.279265,14.394378,-1.0,-1.0,100.609268,-0.663219,3.125573,-0.028348,-0.788907
839847.907917,0.10717425000000001,0.29458449000000003,9.78620094,0.003585,-0.001051,0.003252,-101.229996,111.236496,-122.079529,60.187682,24.830166,14.279265,14.394378,-1.0,-1.0,100.609268,-0.663219,3.125564,-0.028364,-0.788913
839847.927901,0.09310671,0.29369178,9.77287896,0.001908,-0.001314,0.004259,-101.014847,111.287949,-121.871689,60.187682,24.830166,14.279265,14.394378,-1.0,-1.0,100.609268,-0.663219,3.125562,-0.028361,-0.788923
839847.947886,0.09176274,0.27003987,9.783807300000001,0.004727,3.2e-05,0.003105,-101.300842,111.165192,-121.953781,60.187682,24.830166,14.279265,14.394378,-1.0,-1.0,100.609268,-0.663219,3.12556,-0.028369,-0.78891
839847.96787,0.09026181000000001,0.28381311,9.7869465,0.000305,0.000272,0.003291,-101.156723,111.294571,-121.94632,60.187682,24.830166,14.279265,14.394378,-1.0,-1.0,100.609268,-0.663219,3.125559,-0.02838,-0.788892
839847.987855,0.08861373,0.28276344,9.77976558,0.003197,-0.002739,0.004051,-101.455811,111.138687,-122.183212,60.187682,24.830166,14.279265,14.394378,-1.0,-1.0,100.609268,-0.663219,3.125565,-0.028379,-0.788889
839848.00784,0.09295956000000001,0.28381311,9.77601816,0.002218,-0.000648,0.004196,-101.294724,111.381134,-122.090027,60.187682,24.830166,14.279265,14.394378,-1.0,-1.0,100.609268,-0.663219,3.125567,-0.028382,-0.788884
839848.027824,0.08128566000000001,0.27393444,9.78185511,0.00365,-0.002813,0.003908,-101.408325,111.331024,-122.074478,60.187682,24.830166,14.279265,14.394378,-1.0,-1.0,100.609268,-0.663219,3.125566,-0.028387,-0.788869
839848.047809,0.07244685000000001,0.28231218,9.77976558,0.001707,-0.000726,0.005491,-101.567245,111.206696,-122.135895,60.187682,24.830166,14.279265,14.394378,-1.0,-1.0,100.609268,-0.663219,3.125559,-0.028406,-0.788858
839848.067793,0.08203122,0.27632808,9.74862864,0.002083,-0.001001,0.004164,-101.333221,111.228958,-122.074539,60.187682,24.830166,14.279265,14.394378,-1.0,-1.0,100.609268,-0.663219,3.125562,-0.0284,-0.788869
839848.087778,0.0953532,0.27901602,9.78649524,0.003532,-0.002024,0.005069,-101.43811,110.973801,-122.176788,60.187682,24.830166,14.279265,14.394378,-1.0,-1.0,100.609268,-0.663219,3.125583,-0.028387,-0.788881
839848.107762,0.08906499000000001,0.28740357,9.76164651,0.003037,-0.001379,0.003177,-101.40831,111.100922,-122.154297,60.187682,24.830166,14.279265,14.394378,-1.0,-1.0,100.609268,-0.663219,3.125586,-0.02839,-0.78888
839848.127747,0.08502327,0.29788065,9.77317326,0.006095,-0.002042,0.004033,-101.372208,111.06102,-121.758026,60.187682,24.830166,14.279265,14.394378,-1.0,-1.0,100.609268,-0.663219,3.125592,-0.028388,-0.78888
839848.147731,0.08471916,0.27138384000000004,9.79053696,0.000798,6.7e-05,0.004341,-101.320389,111.273499,-121.706009,60.187682,24.830166,14.279265,14.394378,-1.0,-1.0,100.609268,-0.663219,3.125595,-0.028406,-0.788872
839848.167716,0.09954207,0.28006569000000003,9.756564930000001,0.00517,-0.00156,0.004487,-101.287262,111.223053,-122.028046,60.187682,24.830166,14.279265,14.394378,-1.0,-1.0,100.609299,-0.665863,3.125614,-0.028402,-0.788877
839848.1877,0.10747836000000001,0.29847906,9.77257485,0.00221,-0.000637,0.004948,-101.275803,111.264359,-122.071213,60.187682,24.830166,14.279265,14.394378,-1.0,-1.0,100.609299,-0.665863,3.125631,-0.028408,-0.78887
839848.207685,0.08816247,0.27977139,9.77362452,0.003926,-0.001856,0.003729,-101.474991,111.117569,-121.919708,60.187682,24.830166,14.279265,14.394378,-1.0,-1.0,100.609299,-0.665863,3.12564,-0.02841,-0.788867
839848.227669,0.08981055,0.29683098,9.77018121,0.002458,0.000341,0.003788,-101.408157,111.289047,-121.866135,60.187682,24.830166,14.279265,14.394378,-1.0,-1.0,100.609299,-0.665863,3.125662,-0.028408,-0.788884
839848.247654,0.0981981,0.28396026,9.76284333,0.00289,-0.002129,0.003651,-101.28891,111.225571,-122.007294,60.187682,24.830166,14.279265,14.394378,-1.0,-1.0,100.609299,-0.665863,3.125675,-0.028417,-0.788864
839848.267638,0.07603731000000001,0.28575549,9.784405710000001,0.003785,0.000996,0.003517,-101.276352,111.053162,-121.835907,60.187682,24.830166,14.279265,14.394378,-1.0,-1.0,100.609299,-0.665863,3.125682,-0.028409,-0.788863
839848.287623,0.08562168,0.28650105,9.77063247,0.000697,-0.001243,0.006683,-101.142502,111.384613,-122.059464,60.187682,24.830166,14.279265,14.394378,-1.0,-1.0,100.609299,-0.665863,3.125696,-0.02841,-0.788831
839848.307608,0.0782838,0.28096821,9.76613949,0.003678,0.000584,0.003731,-101.296432,111.16922,-121.993759,60.187682,24.830166,14.279265,14.394378,-1.0,-1.0,100.609299,-0.665863,3.125704,-0.028407,-0.788834
839848.327592,0.10568313,0.29114118,9.7579089,0.003266,0.000237,0.002955,-101.303864,111.174438,-121.90863,60.187682,24.830166,14.279265,14.394378,-1.0,-1.0,100.609299,-0.665863,3.125711,-0.028398,-0.78884
839848.347577,0.09190989000000001,0.27647523,9.78005988,0.003111,-0.00221,0.004446,-101.352646,111.09552,-122.35408,60.187682,24.830166,14.279265,14.394378,-1.0,-1.0,100.609299,-0.665863,3.125732,-0.028409,-0.788836
839848.367561,0.08951625,0.2863539,9.76419711,0.002278,0.001295,0.003192,-101.344086,111.238739,-122.204239,60.187682,24.830166,14.279265,14.394378,-1.0,-1.0,100.609299,-0.665863,3.125752,-0.028403,-0.788836
839848.387546,0.09714843000000001,0.28725642,9.793087560000002,0.002246,-0.001576,0.004487,-101.427719,111.315628,-121.888763,60.187682,24.830166,14.279265,14.394378,-1.0,-1.0,100.609299,-0.665863,3.125767,-0.028403,-0.788837
839848.40753,0.10164141000000002,0.28919880000000003,9.79892451,0.003107,-0.001746,0.003674,-101.496307,111.207535,-122.110672,60.187682,24.830166,14.279265,14.394378,-1.0,-1.0,100.609299,-0.665863,3.125778,-0.028392,-0.788827
839848.427515,0.0953532,0.28381311,9.75910572,0.002422,-0.000913,0.003716,-101.431061,111.219696,-121.962845,60.187682,24.830166,14.279265,14.394378,-1.0,-1.0,100.609299,-0.665863,3.125795,-0.028374,-0.788833
839848.447498,0.08741691000000001,0.29847906,9.78679935,0.004733,-0.000591,0.003542,-101.558777,111.139984,-122.040131,60.187682,24.830166,14.279265,14.394378,-1.0,-1.0,100.609299,-0.665863,3.125813,-0.028381,-0.788823
839848.467483,0.08801532000000001,0.26539974000000005,9.78141366,0.001455,-0.000192,0.003768,-101.501114,111.249542,-121.927338,60.187682,24.830166,14.279265,14.394378,-1.0,-1.0,100.609299,-0.665863,3.125831,-0.028378,-0.788814
839848.487467,0.10912644,0.30536568000000003,9.77032836,0.003975,-0.002236,0.003921,-101.501114,111.249542,-121.927338,60.187682,24.830166,14.279265,14.394378,-1.0,-1.0,100.609299,-0.665863,3.125854,-0.028384,-0.788806
839848.487467,0.10912644,0.30536568000000003,9.77032836,0.003975,-0.002236,0.003921,-101.501114,111.249542,-121.927338,60.187682,24.830166,14.279265,14.394378,-1.0,-1.0,100.609299,-0.665863,3.125854,-0.028384,-0.788806
839848.527436,0.09580446000000001,0.28126251,9.799375770000001,0.003542,0.000664,0.003365,-101.603897,111.227188,-121.93924,60.187682,24.830166,14.279265,14.394378,-1.0,-1.0,100.609299,-0.665863,3.125862,-0.028376,-0.788797
839848.547421,0.08532738,0.2920437,9.764795520000002,0.002895,-0.001155,0.004643,-101.482117,111.121017,-121.879288,60.187682,24.830166,14.279265,14.394378,-1.0,-1.0,100.609299,-0.665863,3.125881,-0.028365,-0.788789
839848.58739,0.09355797,0.28515708,9.79353882,0.003662,0.000456,0.004186,-101.48027,111.280869,-121.846222,60.187682,24.830166,14.279265,14.394378,-1.0,-1.0,100.609299,-0.665863,3.125878,-0.028362,-0.78878
839848.607375,0.0925083,0.27393444,9.76733631,0.000676,-0.000498,0.005201,-101.469681,111.218536,-121.940765,60.187682,24.830166,14.279265,14.394378,-1.0,-1.0,100.609299,-0.665863,3.125882,-0.028363,-0.788778
839848.607375,0.0925083,0.27393444,9.76733631,0.000676,-0.000498,0.005201,-101.469681,111.218536,-121.940765,60.187682,24.830166,14.279265,14.394378,-1.0,-1.0,100.609299,-0.665863,3.125882,-0.028363,-0.788778
839848.647344,0.09205704,0.28785483,9.76044969,0.004149,-0.002174,0.001826,-101.48822,111.126984,-121.756851,60.187682,24.830166,14.279265,14.394378,-1.0,-1.0,100.609299,-0.665863,3.125907,-0.02835,-0.788773
839848.667328,0.0953532,0.28785483,9.772133400000001,0.002587,-0.001805,0.004026,-101.501129,111.237045,-121.859222,60.187682,24.830166,14.279265,14.394378,-1.0,-1.0,100.609299,-0.665863,3.125911,-0.028346,-0.78877
839848.687313,0.08607294000000001,0.28051695,9.764942670000002,0.002483,0.001005,0.004541,-101.502869,111.305527,-121.977798,60.187682,24.830166,14.279265,14.394378,-1.0,-1.0,100.609299,-0.665863,3.125923,-0.028343,-0.788748
839848.687313,0.08607294000000001,0.28051695,9.764942670000002,0.002483,0.001005,0.004541,-101.502869,111.305527,-121.977798,60.187682,24.830166,14.279265,14.394378,-1.0,-1.0,100.609299,-0.665863,3.125923,-0.028343,-0.788748
839848.727282,0.08831943,0.28800198,9.78170796,0.00325,-0.001656,0.004066,-101.539673,111.184601,-122.403885,60.187682,24.830166,14.279265,14.394378,-1.0,-1.0,100.609299,-0.665863,3.125963,-0.028337,-0.788733
839848.747266,0.09131148000000001,0.28874754,9.76584519,0.002324,-2.1e-05,0.005688,-101.522507,111.351151,-122.076569,60.187682,24.830166,14.279265,14.394378,-1.0,-1.0,100.609299,-0.665863,3.125973,-0.028349,-0.788727
839848.767251,0.08891784,0.28800198,9.783807300000001,0.004119,-0.001749,0.003656,-101.52504,111.131073,-122.272354,60.187682,24.830166,14.279265,14.394378,-1.0,-1.0,100.609299,-0.665863,3.125986,-0.02835,-0.788725
839848.787235,0.07933347,0.28905165000000005,9.7781175,0.001848,1e-05,0.005348,-101.478073,111.198151,-122.248764,60.187682,24.830166,14.279265,14.394378,-1.0,-1.0,100.609299,-0.665863,3.125977,-0.028353,-0.788723
839848.80722,0.08607294000000001,0.28769787,9.77797035,0.004302,-0.001287,0.003584,-101.504044,111.254181,-122.232773,60.187682,24.830166,14.279265,14.394378,-1.0,-1.0,100.609299,-0.665863,3.125977,-0.028355,-0.788718
839848.827204,0.08996751000000001,0.29278926000000005,9.791439480000001,0.003917,0.000799,0.003629,-101.732208,111.150833,-122.481262,60.187682,24.830166,14.279265,14.394378,-1.0,-1.0,100.609299,-0.665863,3.125991,-0.028353,-0.788711
839848.847189,0.08277678,0.28785483,9.75776175,0.003295,-0.001653,0.003452,-101.739517,111.22963,-122.136124,60.187682,24.830166,14.279265,14.394378,-1.0,-1.0,100.609299,-0.665863,3.126016,-0.02836,-0.788704
839848.867174,0.09999333,0.27946728,9.79084107,0.002909,-0.000731,0.004548,-101.659912,111.21994,-122.232437,60.187682,24.830166,14.279265,14.394378,-1.0,-1.0,100.609299,-0.665863,3.126033,-0.028364,-0.788691
839848.887158,0.07619427,0.28126251,9.77946147,0.002137,0.000206,0.003861,-101.645874,111.198273,-122.442078,60.187682,24.830166,14.279265,14.394378,-1.0,-1.0,100.609299,-0.665863,3.126039,-0.028356,-0.788683
839848.907143,0.08906499000000001,0.28814913000000003,9.763893,0.004845,-0.000541,0.003455,-101.712402,111.084412,-122.319305,60.187682,24.830166,14.279265,14.394378,-1.0,-1.0,100.609299,-0.665863,3.126055,-0.028356,-0.788674
839848.927127,0.09595161,0.28171377000000003,9.77856876,0.001104,9e-05,0.003901,-101.558899,111.133118,-122.322891,60.187682,24.830166,14.279265,14.394378,-1.0,-1.0,100.609299,-0.665863,3.126074,-0.028351,-0.788674
839848.947112,0.07708698000000001,0.28425456,9.775272600000001,0.003548,-0.001387,0.005521,-101.427933,111.110031,-122.263031,60.187682,24.830166,14.279265,14.394378,-1.0,-1.0,100.609299,-0.665863,3.126085,-0.028355,-0.788673
839848.967096,0.09759969,0.28680516,9.75372003,0.004065,0.00017,0.004594,-101.216354,111.144791,-122.465378,60.187682,24.830166,14.279265,14.394378,-1.0,-1.0,100.609299,-0.665863,3.126106,-0.028345,-0.788681
839848.987081,0.0868185,0.28979721,9.76898439,0.004057,-0.001086,0.005179,-101.403473,111.237381,-122.052353,60.187682,24.830166,14.279265,14.394378,-1.0,-1.0,100.609299,-0.665863,3.126119,-0.028353,-0.788695
839849.007065,0.09190989000000001,0.27991854,9.76404996,0.003424,0.0001,0.003371,-101.479752,111.236969,-122.439133,60.187682,24.830166,14.279265,14.394378,-1.0,-1.0,100.609299,-0.665863,3.126133,-0.028362,-0.788689
839849.02705,0.08532738,0.28425456,9.76883724,0.001796,-0.001514,0.005425,-101.63829,111.175323,-122.503265,60.187682,24.830166,14.279265,14.394378,-1.0,-1.0,100.609299,-0.665863,3.126139,-0.02836,-0.788676
839849.047034,0.0865242,0.29353482000000003,9.76195062,0.004821,-0.000108,0.004903,-101.388412,111.259354,-122.275803,60.187682,24.830166,14.279265,14.394378,-1.0,-1.0,100.609299,-0.665863,3.126158,-0.02836,-0.788686
839849.067019,0.09864936,0.28156662,9.78290478,0.001838,0.000693,0.00614,-101.50769,110.991837,-122.501053,60.187682,24.830166,14.279265,14.394378,-1.0,-1.0,100.609299,-0.665863,3.12617,-0.028357,-0.78869
839849.087003,0.08471916,0.29593827,9.771230880000001,0.003743,0.000497,0.00387,-101.436905,111.193207,-122.001343,60.187682,24.830166,14.279265,14.394378,-1.0,-1.0,100.609299,-0.665863,3.126187,-0.02836,-0.788683
839849.106988,0.08532738,0.30042144,9.76913154,0.003605,0.001096,0.002623,-101.445374,111.1259,-121.877136,60.187682,24.830166,14.279265,14.394378,-1.0,-1.0,100.609299,-0.665863,3.126197,-0.02835,-0.788715
839849.146957,0.09056592000000001,0.29219085,9.78904584,0.004224,-0.000461,0.004092,-101.252777,111.331421,-121.996017,60.187682,24.830166,14.279265,14.394378,-1.0,-1.0,100.609299,-0.665863,3.126219,-0.028324,-0.788724
839849.146957,0.09056592000000001,0.29219085,9.78904584,0.004224,-0.000461,0.004092,-101.252777,111.331421,-121.996017,60.187682,24.830166,14.279265,14.394378,-1.0,-1.0,100.609299,-0.665863,3.126219,-0.028324,-0.788724
839849.186926,0.08636724,0.2894931,9.76809168,0.004774,-0.001591,0.004154,-101.230331,111.358322,-121.688919,60.187682,24.830166,14.279265,14.394378,-1.0,-1.0,100.609299,-0.665863,3.126231,-0.028336,-0.788743
839849.206911,0.09086022,0.28650105,9.76464837,0.001389,0.000622,0.005402,-101.33371,111.207184,-121.923416,60.187682,24.830166,14.279265,14.394378,-1.0,-1.0,100.609299,-0.665863,3.126231,-0.028341,-0.788738
839849.206911,0.09086022,0.28650105,9.76464837,0.001389,0.000622,0.005402,-101.33371,111.207184,-121.923416,60.187682,24.830166,14.279265,14.394378,-1.0,-1.0,100.609299,-0.665863,3.126231,-0.028341,-0.788738
839849.24688,0.09714843000000001,0.29144529,9.756564930000001,0.003711,0.00211,0.00406,-101.329468,111.40947,-122.069839,60.187682,24.830166,14.279265,14.394378,-1.0,-1.0,100.609657,-0.697571,3.126257,-0.028336,-0.78874
839849.266864,0.09415638000000001,0.28845324,9.77362452,0.002512,-0.003,0.003321,-101.075455,111.362503,-122.179306,60.187682,24.830166,14.279265,14.394378,-1.0,-1.0,100.609657,-0.697571,3.126264,-0.028335,-0.78873
839849.286849,0.08547453,0.28455867,9.779314320000001,0.003145,-0.000256,0.004398,-101.346802,111.294098,-122.041946,60.187682,24.830166,14.279265,14.394378,-1.0,-1.0,100.609657,-0.697571,3.12627,-0.028313,-0.78873
839849.306833,0.09295956000000001,0.29847906,9.76030254,0.002446,-0.002932,0.00486,-101.180222,111.363892,-122.058578,60.187682,24.830166,14.279265,14.394378,-1.0,-1.0,100.609657,-0.697571,3.12628,-0.02832,-0.788719
839849.326818,0.08876088000000001,0.27692649,9.7664436,0.003343,0.000527,0.003105,-101.394119,111.257065,-122.115952,60.187682,24.830166,14.279265,14.394378,-1.0,-1.0,100.609657,-0.697571,3.126279,-0.028306,-0.788719
839849.346802,0.08951625,0.28665801,9.77737194,0.001796,3e-06,0.00363,-101.376709,111.3591,-121.830551,60.187682,24.830166,14.279265,14.394378,-1.0,-1.0,100.609657,-0.697571,3.126277,-0.028303,-0.788704
839849.366787,0.0836793,0.2749743,9.78261048,0.004137,-0.002269,0.005181,-101.49736,111.311295,-122.183044,60.187682,24.830166,14.279265,14.394378,-1.0,-1.0,100.609657,-0.697571,3.126297,-0.028291,-0.788696
839849.386772,0.07574301000000001,0.29099403,9.77737194,0.002373,-0.000124,0.004266,-101.543121,111.15419,-122.016022,60.187682,24.830166,14.279265,14.394378,-1.0,-1.0,100.609657,-0.697571,3.126304,-0.028299,-0.788694
839849.406756,0.09700128,0.29383893,9.75895857,0.003862,-0.003482,0.004385,-101.320755,111.349426,-121.709869,60.187682,24.830166,14.279265,14.394378,-1.0,-1.0,100.609657,-0.697571,3.126316,-0.028307,-0.7887
839849.426741,0.08951625,0.26435007,9.77826465,0.004194,1.4e-05,0.003138,-101.358673,111.229797,-121.839813,60.187682,24.830166,14.279265,14.394378,-1.0,-1.0,100.609657,-0.697571,3.126317,-0.028322,-0.788692
839849.446725,0.09040896000000001,0.29967588,9.764491410000002,0.001217,-0.003467,0.003832,-101.598389,111.152481,-121.734467,60.187682,24.830166,14.279265,14.394378,-1.0,-1.0,100.609657,-0.697571,3.126325,-0.02833,-0.788673
839849.466711,0.09430353000000001,0.28725642,9.767493270000001,0.004421,0.000567,0.004486,-101.399612,111.26712,-121.788147,60.187682,24.830166,14.279265,14.394378,-1.0,-1.0,100.609657,-0.697571,3.126346,-0.028332,-0.788665
839849.486695,0.09520605,0.27437589,9.76584519,0.002168,-0.000268,0.003173,-101.333755,111.207764,-122.05545,60.187682,24.830166,14.279265,14.394378,-1.0,-1.0,100.609657,-0.697571,3.12636,-0.02833,-0.788665
839849.50668,0.08726976,0.27303192,9.77092677,0.003771,-0.000749,0.006465,-101.52681,111.372314,-122.024094,60.187682,24.830166,14.279265,14.394378,-1.0,-1.0,100.609657,-0.697571,3.126379,-0.028333,-0.78867
839849.526664,0.09011466,0.30416886,9.75910572,0.002794,-0.001814,0.004169,-101.403671,111.254303,-121.992798,60.187682,24.830166,14.279265,14.394378,-1.0,-1.0,100.609657,-0.697571,3.12639,-0.028329,-0.788674
839849.546649,0.08981055,0.28575549,9.767934720000001,0.00496,-0.000459,0.004205,-101.388916,111.233002,-122.193787,60.187682,24.830166,14.279265,14.394378,-1.0,-1.0,100.609657,-0.697571,3.126386,-0.028323,-0.788683
839849.566633,0.09490194,0.28500993,9.759409830000001,0.003869,0.001068,0.002152,-101.300079,111.17363,-121.793976,60.187682,24.830166,14.279265,14.394378,-1.0,-1.0,100.609657,-0.697571,3.126384,-0.028334,-0.788682
839849.586618,0.09430353000000001,0.27408159,9.768385980000001,0.001114,-0.002052,0.005844,-101.347229,111.19458,-121.947037,60.187682,24.830166,14.279265,14.394378,-1.0,-1.0,100.609657,-0.697571,3.12641,-0.028354,-0.788683
839849.606602,0.08741691000000001,0.2920437,9.76044969,0.004788,-0.001892,0.004128,-101.21875,111.534622,-121.880997,60.187682,24.830166,14.279265,14.394378,-1.0,-1.0,100.609657,-0.697571,3.126425,-0.028341,-0.788682
839849.626587,0.10238697000000001,0.29084688000000003,9.77287896,0.002434,-0.000704,0.004327,-101.47052,111.261551,-121.782166,60.187682,24.830166,14.279265,14.394378,-1.0,-1.0,100.609657,-0.697571,3.126447,-0.028348,-0.788696
839849.646571,0.10283823,0.28365615,9.78141366,0.003392,3e-06,0.005073,-101.706314,111.088257,-121.857635,60.187682,24.830166,14.279265,14.394378,-1.0,-1.0,100.609657,-0.697571,3.126465,-0.028346,-0.788698
839849.666556,0.09011466,0.28740357,9.77048532,0.002215,-0.000364,0.003838,-101.643631,111.225433,-121.651917,60.187682,24.830166,14.279265,14.394378,-1.0,-1.0,100.609657,-0.697571,3.126472,-0.028351,-0.788687
839849.686541,0.08562168,0.29353482000000003,9.77108373,0.004236,-0.000263,0.00429,-101.654449,111.25322,-122.126221,60.187682,24.830166,14.279265,14.394378,-1.0,-1.0,100.609657,-0.697571,3.126481,-0.028357,-0.788705
839849.706525,0.09160578000000001,0.27468000000000004,9.79398027,0.001339,0.000789,0.002998,-101.509323,111.15062,-121.842758,60.187682,24.830166,14.279265,14.394378,-1.0,-1.0,100.609657,-0.697571,3.126498,-0.028346,-0.788708
839849.72651,0.08622009,0.2863539,9.76508982,0.003445,-0.001625,0.005179,-101.568146,111.173416,-121.931946,60.187682,24.830166,14.279265,14.394378,-1.0,-1.0,100.609657,-0.697571,3.126517,-0.028342,-0.788714
839849.766479,0.08471916,0.28845324,9.783954450000001,0.001857,-0.002465,0.004014,-101.626053,111.17218,-121.987061,60.187682,24.830166,14.279265,14.394378,-1.0,-1.0,100.609657,-0.697571,3.126527,-0.028324,-0.788701
839849.766479,0.08471916,0.28845324,9.783954450000001,0.001857,-0.002465,0.004014,-101.626053,111.17218,-121.987061,60.187682,24.830166,14.279265,14.394378,-1.0,-1.0,100.609657,-0.697571,3.126527,-0.028324,-0.788701
839849.786462,0.07933347,0.29548701,9.77677353,0.004127,-0.000985,0.005315,-101.593323,110.991119,-121.837799,60.187682,24.830166,14.279265,14.394378,-1.0,-1.0,100.609657,-0.697571,3.126538,-0.028312,-0.788689
839849.806448,0.08981055,0.29742939,9.77333022,0.002596,-0.000113,0.003425,-101.593704,111.064728,-121.709793,60.187682,24.830166,14.279265,14.394378,-1.0,-1.0,100.609657,-0.697571,3.126533,-0.028316,-0.788683
839849.826432,0.09026181000000001,0.283509,9.78215922,0.003153,-0.003243,0.003416,-101.492508,111.268341,-122.21727,60.187682,24.830166,14.279265,14.394378,-1.0,-1.0,100.609657,-0.697571,3.126548,-0.028312,-0.788677
839849.846417,0.08741691000000001,0.27557271000000005,9.76913154,0.001356,0.001182,0.003306,-101.671021,111.013855,-121.925858,60.187682,24.830166,14.279265,14.394378,-1.0,-1.0,100.609657,-0.697571,3.126549,-0.028318,-0.788668
839849.866401,0.0925083,0.29503575000000004,9.76659075,0.003047,-0.001271,0.003298,-101.592102,111.090286,-121.919907,60.187682,24.830166,14.279265,14.394378,-1.0,-1.0,100.609657,-0.697571,3.126566,-0.028324,-0.788651
839849.886386,0.08517042000000001,0.28410741,9.77003406,0.003523,-0.000472,0.003909,-101.436569,110.99411,-121.746811,60.187682,24.830166,14.279265,14.394378,-1.0,-1.0,100.609657,-0.697571,3.126569,-0.028315,-0.788636
839849.926354,0.09894366,0.29324052,9.7547697,0.004282,-0.000296,0.003194,-101.51886,111.024307,-122.098541,60.187682,24.830166,14.279265,14.394378,-1.0,-1.0,100.609657,-0.697571,3.126582,-0.028329,-0.788651
839849.926354,0.09894366,0.29324052,9.7547697,0.004282,-0.000296,0.003194,-101.51886,111.024307,-122.098541,60.187682,24.830166,14.279265,14.394378,-1.0,-1.0,100.609657,-0.697571,3.126582,-0.028329,-0.788651
839849.94634,0.0953532,0.28410741,9.78470001,0.00105,-0.000946,0.004398,-101.524597,111.0504,-122.050934,60.187682,24.830166,14.279265,14.394378,-1.0,-1.0,100.609657,-0.697571,3.126583,-0.02833,-0.788649
839849.94634,0.0953532,0.28410741,9.78470001,0.00105,-0.000946,0.004398,-101.524597,111.0504,-122.050934,60.187682,24.830166,14.279265,14.394378,-1.0,-1.0,100.609657,-0.697571,3.126583,-0.02833,-0.788649
839849.966324,0.08772102000000001,0.28245933,9.759851280000001,0.004102,-0.000999,0.005532,-101.456161,110.973038,-121.781326,60.187682,24.830166,14.279265,14.394378,-1.0,-1.0,100.609657,-0.697571,3.126591,-0.028317,-0.788629
839849.986309,0.09879651,0.29593827,9.76628664,0.001684,-0.001004,0.002808,-101.291931,111.00618,-121.78392,60.187682,24.830166,14.279265,14.394378,-1.0,-1.0,100.609657,-0.697571,3.126594,-0.028323,-0.788625
839850.026278,0.09176274,0.28845324,9.77108373,0.003225,0.000916,0.004326,-101.448425,111.183975,-121.763977,60.187682,24.830166,14.279265,14.394378,-1.0,-1.0,100.609657,-0.697571,3.12661,-0.028329,-0.788639
839850.046262,0.11241279000000001,0.28470582,9.76434426,0.001779,0.000779,0.003663,-101.260757,111.20285,-121.503815,60.187682,24.830166,14.279265,14.394378,-1.0,-1.0,100.609657,-0.697571,3.126612,-0.028328,-0.788634
839850.066247,0.09220419,0.28291059,9.77392863,0.00362,0.003531,0.005117,-101.544815,111.095993,-121.781219,60.187682,24.830166,14.279265,14.394378,-1.0,-1.0,100.609657,-0.697571,3.126629,-0.028319,-0.788617
839850.126201,0.06481467,0.29159244,9.772133400000001,0.002678,0.001888,0.004699,-101.47847,111.122086,-121.565628,60.187682,24.830166,14.279265,14.394378,-1.0,-1.0,100.609657,-0.697571,3.126675,-0.028286,-0.788614
839850.146185,0.11047041,0.28740357,9.76733631,0.002132,-0.001776,0.005235,-101.434021,111.111572,-121.643066,60.187682,24.830166,14.279265,14.394378,-1.0,-1.0,100.609657,-0.697571,3.126684,-0.028301,-0.788603
839850.16617,0.07320222,0.29623257000000003,9.74952135,0.002546,0.003275,0.003947,-101.535889,111.055328,-121.470184,60.187682,24.830166,14.279265,14.394378,-1.0,-1.0,100.609657,-0.697571,3.126689,-0.028286,-0.788618
839850.186154,0.09310671,0.30371760000000003,9.77467419,0.00257,-0.00198,0.00449,-101.433655,111.385559,-121.602524,60.187682,24.830166,14.279265,14.394378,-1.0,-1.0,100.609657,-0.697571,3.126699,-0.028281,-0.788595
839850.206139,0.10552617,0.28800198,9.77092677,0.004063,-0.000832,0.003874,-101.406281,111.06282,-121.655685,60.187682,24.830166,14.279265,14.394378,-1.0,-1.0,100.609657,-0.697571,3.126688,-0.028274,-0.788607
839850.246108,0.09700128,0.28470582,9.78919299,0.0037,-0.002445,0.005175,-101.333176,111.261444,-121.882935,60.187682,24.830166,14.279265,14.394378,-1.0,-1.0,100.609657,-0.697571,3.126703,-0.028272,-0.788608
839850.266092,0.09430353000000001,0.28515708,9.76764042,0.003358,1e-06,0.005393,-101.531235,111.252213,-121.480774,60.187682,24.830166,14.279265,14.394378,-1.0,-1.0,100.609657,-0.697571,3.126679,-0.028267,-0.788636
839850.286077,0.06990606,0.27482715,9.77347737,0.002896,-0.000533,0.004971,-101.41571,111.057007,-121.552551,60.187682,24.830166,14.279265,14.394378,-1.0,-1.0,100.609657,-0.697571,3.126694,-0.028263,-0.78865
839850.306061,0.11271690000000001,0.29249496,9.78036399,0.002535,-0.001176,0.003645,-101.545105,111.14061,-121.663177,60.187682,24.830166,14.279265,14.394378,-1.0,-1.0,100.609657,-0.697571,3.12667,-0.028266,-0.788652
839850.326045,0.09385227000000002,0.28500993,9.7547697,0.002809,-0.000187,0.004523,-101.618317,111.05809,-121.448685,60.187682,24.830166,14.279265,14.394378,-1.0,-1.0,100.609917,-0.718708,3.126671,-0.028257,-0.788647
839850.34603,0.0928026,0.27422874,9.77797035,0.004679,-0.002705,0.003881,-101.630493,110.924118,-121.39241,60.187682,24.830166,14.279265,14.394378,-1.0,-1.0,100.609917,-0.718708,3.126668,-0.028255,-0.788649
839850.366015,0.10193571,0.28740357,9.78529842,0.004679,-0.002705,0.003881,-101.490326,111.112,-121.719421,60.187682,24.830166,14.279265,14.394378,-1.0,-1.0,100.609917,-0.718708,3.12665,-0.028255,-0.788638
839850.405984,0.0953532,0.28515708,9.767787570000001,0.003101,-0.000261,0.003749,-101.519699,111.157166,-121.672913,60.187682,24.830166,14.279265,14.394378,-1.0,-1.0,100.609917,-0.718708,3.126676,-0.02827,-0.788614
839850.405984,0.0953532,0.28515708,9.767787570000001,0.003101,-0.000261,0.003749,-101.519699,111.157166,-121.672913,60.187682,24.830166,14.279265,14.394378,-1.0,-1.0,100.609917,-0.718708,3.126676,-0.02827,-0.788614
839850.445953,0.10358379000000001,0.30237363,9.77856876,0.002892,0.001228,0.005001,-101.425293,111.298447,-121.48468,60.187682,24.830166,14.279265,14.394378,-1.0,-1.0,100.609917,-0.718708,3.126709,-0.028248,-0.788601
839850.445953,0.10358379000000001,0.30237363,9.77856876,0.002892,0.001228,0.005001,-101.425293,111.298447,-121.48468,60.187682,24.830166,14.279265,14.394378,-1.0,-1.0,100.609917,-0.718708,3.126709,-0.028248,-0.788601
839850.485921,0.08128566000000001,0.29757654,9.77407578,0.004927,-0.000486,0.002726,-101.370193,111.149689,-121.723343,60.187682,24.830166,14.279265,14.394378,-1.0,-1.0,100.609917,-0.718708,3.126709,-0.028255,-0.788593
839850.505906,0.08906499000000001,0.28695231,9.76254903,0.002229,0.001205,0.003425,-101.579117,111.178848,-122.080795,60.187682,24.830166,14.279265,14.394378,-1.0,-1.0,100.609917,-0.718708,3.126729,-0.028272,-0.788587
839850.52589,0.09040896000000001,0.29129814000000004,9.783954450000001,0.003713,-0.001186,0.002984,-101.638092,111.135956,-121.941833,60.187682,24.830166,14.279265,14.394378,-1.0,-1.0,100.609917,-0.718708,3.126734,-0.028276,-0.788578
839850.545875,0.09430353000000001,0.2718351,9.76883724,0.000826,-0.000179,0.003117,-101.459167,111.263229,-121.742432,60.187682,24.830166,14.279265,14.394378,-1.0,-1.0,100.609917,-0.718708,3.126763,-0.028278,-0.788578
839850.565859,0.0928026,0.28276344,9.74293884,0.002849,-0.001903,0.00376,-101.525421,111.154892,-121.587219,60.187682,24.830166,14.279265,14.394378,-1.0,-1.0,100.609917,-0.718708,3.126769,-0.028282,-0.788571
839850.605829,0.10733121,0.29563416000000003,9.77077962,0.001753,-0.002048,0.003839,-101.230057,111.264908,-121.938248,60.187682,24.830166,14.279265,14.394378,-1.0,-1.0,100.609917,-0.718708,3.126782,-0.028281,-0.788543
839850.605829,0.10733121,0.29563416000000003,9.77077962,0.001753,-0.002048,0.003839,-101.230057,111.264908,-121.938248,60.187682,24.830166,14.279265,14.394378,-1.0,-1.0,100.609917,-0.718708,3.126782,-0.028281,-0.788543
839850.645798,0.10088604,0.29010132000000005,9.7582032,0.002714,-0.001044,0.004267,-101.599487,111.118546,-121.71843,60.187682,24.830166,14.279265,14.394378,-1.0,-1.0,100.609917,-0.718708,3.126808,-0.028292,-0.788546
839850.665782,0.09176274,0.2860596,9.783208890000001,0.003076,-0.001545,0.004972,-101.510086,111.174774,-121.622772,60.187682,24.830166,14.279265,14.394378,-1.0,-1.0,100.609917,-0.718708,3.126804,-0.028276,-0.788553
839850.685767,0.07499745000000001,0.28620675,9.79787484,0.001995,0.000528,0.004172,-101.543381,111.151306,-121.787277,60.187682,24.830166,14.279265,14.394378,-1.0,-1.0,100.609917,-0.718708,3.126809,-0.028272,-0.788549
839850.705751,0.10088604,0.29503575000000004,9.77317326,0.004416,0.000258,0.00461,-101.444931,111.156815,-121.459427,60.187682,24.830166,14.279265,14.394378,-1.0,-1.0,100.609917,-0.718708,3.126829,-0.028285,-0.788554
839850.725736,0.08576883000000002,0.28874754,9.76434426,0.003557,0.000811,0.003512,-101.433701,111.189163,-121.657974,60.187682,24.830166,14.279265,14.394378,-1.0,-1.0,100.609917,-0.718708,3.126842,-0.028288,-0.788559
839850.74572,0.09131148000000001,0.2860596,9.76972995,0.002357,-0.001745,0.002952,-101.444336,111.132401,-121.730682,60.187682,24.830166,14.279265,14.394378,-1.0,-1.0,100.609917,-0.718708,3.126851,-0.028291,-0.788556
839850.765705,0.10104300000000001,0.29173959000000005,9.77362452,0.003698,7.8e-05,0.00357,-101.419952,111.397873,-121.832886,60.187682,24.830166,14.279265,14.394378,-1.0,-1.0,100.609917,-0.718708,3.126866,-0.028278,-0.788557
839850.785689,0.09460764,0.28650105,9.775566900000001,0.001529,-0.001436,0.00466,-101.610764,111.217682,-121.958832,60.187682,24.830166,14.279265,14.394378,-1.0,-1.0,100.609917,-0.718708,3.126875,-0.028281,-0.788557
839850.805674,0.08816247,0.28725642,9.77302611,0.001529,-0.001436,0.00466,-101.67131,111.296036,-121.919983,60.187682,24.830166,14.279265,14.394378,-1.0,-1.0,100.609917,-0.718708,3.126899,-0.028272,-0.78856
839850.825659,0.08292393,0.29159244,9.7667379,0.002963,0.000723,0.004095,-101.616608,111.254944,-121.77536,60.187682,24.830166,14.279265,14.394378,-1.0,-1.0,100.609917,-0.718708,3.126895,-0.02827,-0.788567
839850.845643,0.0928026,0.28934595,9.75910572,0.002963,0.000723,0.004095,-101.585175,111.19458,-121.480484,60.187682,24.830166,14.279265,14.394378,-1.0,-1.0,100.609917,-0.718708,3.126912,-0.028266,-0.788558
839850.865628,0.0896634,0.29010132000000005,9.775871010000001,0.002439,0.001285,0.004881,-101.553726,111.364075,-121.520767,60.187682,24.830166,14.279265,14.394378,-1.0,-1.0,100.609917,-0.718708,3.126929,-0.028262,-0.788556
839850.885612,0.09040896000000001,0.28365615,9.7582032,0.001529,-0.00295,0.003785,-101.465973,111.286255,-121.845779,60.187682,24.830166,14.279265,14.394378,-1.0,-1.0,100.609917,-0.718708,3.126935,-0.028271,-0.788547
839850.885612,0.09040896000000001,0.28365615,9.7582032,0.001529,-0.00295,0.003785,-101.465973,111.286255,-121.845779,60.187682,24.830166,14.279265,14.394378,-1.0,-1.0,100.609917,-0.718708,3.126935,-0.028271,-0.788547
839850.925581,0.09655002,0.2718351,9.7692885,0.001665,0.001054,0.004905,-101.748993,110.98877,-121.532578,60.187682,24.830166,14.279265,14.394378,-1.0,-1.0,100.609917,-0.718708,3.126948,-0.028284,-0.788549
839850.96555,0.10014048,0.27108954,9.775272600000001,0.003663,0.000573,0.003792,-101.600571,111.261047,-121.640747,60.187682,24.830166,14.279265,14.394378,-1.0,-1.0,100.609917,-0.718708,3.12698,-0.028296,-0.788556
839850.96555,0.10014048,0.27108954,9.775272600000001,0.003663,0.000573,0.003792,-101.600571,111.261047,-121.640747,60.187682,24.830166,14.279265,14.394378,-1.0,-1.0,100.609917,-0.718708,3.12698,-0.028296,-0.788556
839851.005519,0.08726976,0.29114118,9.764491410000002,0.003206,0.001802,0.00331,-101.559021,111.150681,-121.770569,60.187682,24.830166,14.279265,14.394378,-1.0,-1.0,100.609917,-0.718708,3.126984,-0.028296,-0.788556
839851.005519,0.08726976,0.29114118,9.764491410000002,0.003206,0.001802,0.00331,-101.559021,111.150681,-121.770569,60.187682,24.830166,14.279265,14.394378,-1.0,-1.0,100.609917,-0.718708,3.126984,-0.028296,-0.788556
839851.045488,0.08801532000000001,0.27377748,9.780658290000002,0.003347,0.000441,0.00404,-101.439941,111.227463,-121.748779,60.187682,24.830166,14.279265,14.394378,-1.0,-1.0,100.609917,-0.718708,3.127018,-0.028296,-0.788551
839851.045488,0.08801532000000001,0.27377748,9.780658290000002,0.003347,0.000441,0.00404,-101.439941,111.227463,-121.748779,60.187682,24.830166,14.279265,14.394378,-1.0,-1.0,100.609917,-0.718708,3.127018,-0.028296,-0.788551
839851.085458,0.09190989000000001,0.29697813,9.768385980000001,0.004506,-0.001024,0.006485,-101.69104,111.313797,-121.769257,60.187682,24.830166,14.279265,14.394378,-1.0,-1.0,100.609917,-0.718708,3.127037,-0.028275,-0.78854
839851.105442,0.10059174,0.28336185,9.783503190000001,0.002031,-0.000904,0.004479,-101.545135,111.14267,-121.839294,60.187682,24.830166,14.279265,14.394378,-1.0,-1.0,100.609917,-0.718708,3.127046,-0.028278,-0.788553
839851.125427,0.08457201,0.29159244,9.76613949,0.003017,-0.002334,0.004472,-101.772964,111.077545,-121.951935,60.187682,24.830166,14.279265,14.394378,-1.0,-1.0,100.609917,-0.718708,3.127074,-0.028265,-0.788539
839851.145411,0.08756406,0.28575549,9.75776175,0.003816,0.000638,0.003496,-101.505402,111.075439,-121.824265,60.187682,24.830166,14.279265,14.394378,-1.0,-1.0,100.609917,-0.718708,3.127086,-0.028255,-0.78854
839851.165396,0.08921214,0.28650105,9.76374585,0.00289,-0.002355,0.005716,-101.612274,111.059448,-121.712418,60.187682,24.830166,14.279265,14.394378,-1.0,-1.0,100.609917,-0.718708,3.127098,-0.028269,-0.788541
839851.205365,0.09655002,0.28515708,9.775566900000001,0.002239,1.6e-05,0.003972,-101.779633,111.028351,-121.529175,60.187682,24.830166,14.279265,14.394378,-1.0,-1.0,100.609917,-0.718708,3.127123,-0.028277,-0.788542
839851.205365,0.09655002,0.28515708,9.775566900000001,0.002239,1.6e-05,0.003972,-101.779633,111.028351,-121.529175,60.187682,24.830166,14.279265,14.394378,-1.0,-1.0,100.609917,-0.718708,3.127123,-0.028277,-0.788542
839851.225349,0.08337519,0.28800198,9.765246780000002,0.00319,-3.6e-05,0.004433,-101.670746,110.916779,-121.76825,60.187682,24.830166,14.279265,14.394378,-1.0,-1.0,100.609917,-0.718708,3.127126,-0.028274,-0.788553
839851.245334,0.08217837000000001,0.28365615,9.75386718,0.00087,0.001728,0.003136,-101.603348,111.199188,-121.809097,60.187682,24.830166,14.279265,14.394378,-1.0,-1.0,100.609917,-0.718708,3.127157,-0.028275,-0.788558
839851.285303,0.10014048,0.29114118,9.77347737,0.00283,0.00165,0.003308,-101.609711,111.231567,-121.929352,60.187682,24.830166,14.279265,14.394378,-1.0,-1.0,100.609917,-0.718708,3.127183,-0.028268,-0.788538
839851.285303,0.10014048,0.29114118,9.77347737,0.00283,0.00165,0.003308,-101.609711,111.231567,-121.929352,60.187682,24.830166,14.279265,14.394378,-1.0,-1.0,100.609917,-0.718708,3.127183,-0.028268,-0.788538
839851.325272,0.08786817,0.29533986,9.771976440000001,0.004644,-0.000151,0.00425,-101.645889,111.126022,-121.749069,60.187682,24.830166,14.279265,14.394378,-1.0,-1.0,100.609917,-0.718708,3.127212,-0.02827,-0.788528
839851.345257,0.10373094000000001,0.28441152000000003,9.79038981,0.001366,-0.000653,0.002847,-101.568893,111.156555,-121.529755,60.187682,24.830166,14.279265,14.394378,-1.0,-1.0,100.609917,-0.718708,3.127209,-0.028273,-0.788542
