timestamp,accel_x,accel_y,accel_z,gyro_x,gyro_y,gyro_z,mag_x,mag_y,mag_z,gps_lat,gps_lon,gps_alt,gps_accuracy,gps_speed,gps_course,pressure,altitude,roll,pitch,yaw
207147.898714,-0.08517042000000001,-0.16375833,-9.787093650000001,0.000525,-0.00392,0.004413,-38.115768,155.395721,-201.732071,60.18768,24.830126,12.915765,9.620208,-1.0,-1.0,101.633934,-0.396347,-0.009191,0.01593,-0.728881
207147.97864,-0.10912644,-0.15223158,-9.846522629999999,0.005789,0.003309,0.005468,-38.081055,155.446793,-201.738571,60.18768,24.830126,12.915765,9.620208,-1.0,-1.0,101.633934,-0.396347,-0.009285,0.015896,-0.728892
207148.018603,-0.08772102000000001,-0.16046217000000002,-9.81373761,0.002833,-0.000961,0.004389,-38.198776,155.473724,-201.525238,60.18768,24.830126,12.915765,9.620208,-1.0,-1.0,101.633934,-0.396347,-0.009293,0.015887,-0.728893
207148.038584,-0.09655002,-0.15582204,-9.8302086,0.003682,0.000968,0.00488,-38.006851,155.416443,-201.41333,60.18768,24.830126,12.915765,9.620208,-1.0,-1.0,101.633934,-0.396347,-0.009269,0.015889,-0.728895
207148.058566,-0.08622009,-0.17318574,-9.808803180000002,0.002344,-0.000399,0.005357,-38.016525,155.548676,-201.62767,60.18768,24.830126,12.915765,9.620208,-1.0,-1.0,101.633934,-0.396347,-0.009275,0.015888,-0.728898
207148.078547,-0.0953532,-0.16256151,-9.82197801,0.0044,0.000469,0.004908,-38.048553,155.324112,-201.557098,60.18768,24.830126,12.915765,9.620208,-1.0,-1.0,101.633934,-0.396347,-0.009269,0.015889,-0.728902
207148.098529,-0.08188407,-0.15462522000000004,-9.807155100000001,0.00424,9e-06,0.003864,-38.046631,155.313553,-201.604034,60.18768,24.830126,12.915765,9.620208,-1.0,-1.0,101.633934,-0.396347,-0.009269,0.015899,-0.728893
207148.098529,-0.08188407,-0.15462522000000004,-9.807155100000001,0.00424,9e-06,0.003864,-38.046631,155.313553,-201.604034,60.18768,24.830126,12.915765,9.620208,-1.0,-1.0,101.633934,-0.396347,-0.009269,0.015899,-0.728893
207148.138492,-0.09100737,-0.15762708,-9.82062423,0.003506,-0.000576,0.005159,-38.061951,155.33728,-201.742157,60.18768,24.830126,12.915765,9.620208,-1.0,-1.0,101.633934,-0.396347,-0.009251,0.015892,-0.728901
207148.158473,-0.09160578000000001,-0.15971661,-9.807459210000001,0.003792,-0.000362,0.004547,-38.305435,155.315948,-201.447784,60.18768,24.830126,12.915765,9.620208,-1.0,-1.0,101.633934,-0.396347,-0.009258,0.015898,-0.728899
207148.178455,-0.09340101,-0.14923953,-9.82122264,0.003046,-0.000656,0.005669,-38.305435,155.315948,-201.447784,60.18768,24.830126,12.915765,9.620208,-1.0,-1.0,101.633934,-0.396347,-0.009252,0.015903,-0.728893
207148.198436,-0.08816247,-0.16270866,-9.807459210000001,0.00511,-0.001234,0.005965,-38.303085,155.259689,-201.571472,60.18768,24.830126,12.915765,9.620208,-1.0,-1.0,101.633934,-0.396347,-0.009253,0.015908,-0.728888
207148.218418,-0.08876088000000001,-0.16136469,-9.82197801,0.003845,6.6e-05,0.004508,-38.12439,155.364441,-201.740936,60.18768,24.830126,12.915765,9.620208,-1.0,-1.0,101.633934,-0.396347,-0.009264,0.015913,-0.728882
207148.238399,-0.09205704,-0.15088761,-9.81868185,0.002964,0.001388,0.004855,-38.136414,155.34436,-201.560822,60.18768,24.830126,12.915765,9.620208,-1.0,-1.0,101.633934,-0.396347,-0.009256,0.015936,-0.728879
207148.258381,-0.0865242,-0.16974243,-9.81494424,0.003171,-0.001108,0.004172,-38.18808,155.42099,-201.624649,60.18768,24.830126,12.915765,9.620208,-1.0,-1.0,101.633934,-0.396347,-0.00924,0.01594,-0.728892
207148.278362,-0.07933347,-0.14938668000000002,-9.82841337,0.003836,-0.000872,0.004499,-37.974854,155.395996,-201.659271,60.18768,24.830126,12.915765,9.620208,-1.0,-1.0,101.633934,-0.396347,-0.009224,0.01594,-0.728898
207148.298344,-0.09564750000000001,-0.15747012000000002,-9.795334050000001,0.003915,6.5e-05,0.003959,-37.972092,155.497055,-201.946762,60.18768,24.830126,12.915765,9.620208,-1.0,-1.0,101.633934,-0.396347,-0.009225,0.015937,-0.728907
207148.318325,-0.09759969,-0.15986376000000002,-9.81449298,0.001511,-0.000512,0.003788,-38.032089,155.335831,-201.62262,60.18768,24.830126,12.915765,9.620208,-1.0,-1.0,101.633934,-0.396347,-0.009233,0.015938,-0.728912
207148.338307,-0.10164141000000002,-0.16794720000000002,-9.81509139,0.001253,0.001123,0.00488,-37.87645,155.378326,-201.818115,60.18768,24.830126,12.915765,9.620208,-1.0,-1.0,101.633934,-0.396347,-0.009238,0.015934,-0.72892
207148.338307,-0.10164141000000002,-0.16794720000000002,-9.81509139,0.001253,0.001123,0.00488,-37.87645,155.378326,-201.818115,60.18768,24.830126,12.915765,9.620208,-1.0,-1.0,101.633934,-0.396347,-0.009238,0.015934,-0.72892
207148.37827,-0.08935929000000001,-0.16525926000000002,-9.81823059,0.002992,0.000676,0.00371,-38.024017,155.230194,-201.607437,60.18768,24.830126,12.915765,9.620208,-1.0,-1.0,101.633934,-0.396347,-0.009241,0.015915,-0.728927
207148.398251,-0.09295956000000001,-0.16406244,-9.823469130000001,0.003069,0.000635,0.003181,-37.847626,155.290726,-201.758636,60.18768,24.830126,12.915765,9.620208,-1.0,-1.0,101.633934,-0.396347,-0.009244,0.015914,-0.728916
207148.418233,-0.0981981,-0.16899687,-9.823027680000001,0.002155,-0.001283,0.005077,-38.135773,155.332275,-201.298004,60.18768,24.830126,12.915765,9.620208,-1.0,-1.0,101.633934,-0.396347,-0.009239,0.015913,-0.728916
207148.438214,-0.0865242,-0.14773860000000003,-9.823174830000001,0.00365,-0.000701,0.003557,-38.094055,155.203781,-201.700256,60.18768,24.830126,12.915765,9.620208,-1.0,-1.0,101.633934,-0.396347,-0.009248,0.015896,-0.728901
207148.458196,-0.09894366,-0.15837263999999998,-9.80895033,0.002234,-0.00014,0.00427,-38.0728,155.491898,-201.642471,60.18768,24.830126,12.915765,9.620208,-1.0,-1.0,101.633934,-0.396347,-0.009252,0.015903,-0.728906
207148.478177,-0.09475478999999999,-0.16959528000000001,-9.819584370000001,0.003103,-0.000923,0.005617,-38.128952,155.188965,-201.694016,60.18768,24.830126,12.915765,9.620208,-1.0,-1.0,101.633934,-0.396347,-0.009258,0.015901,-0.728904
207148.498159,-0.09145863,-0.15956946,-9.81194238,0.002618,-8e-06,0.003005,-38.166306,155.262466,-201.614075,60.18768,24.830126,12.915765,9.620208,-1.0,-1.0,101.633934,-0.396347,-0.009268,0.015887,-0.728888
207148.51814,-0.08741691000000001,-0.16136469,-9.828707670000002,0.00273,-0.000767,0.003663,-38.116257,155.587601,-201.247391,60.18768,24.830126,12.915765,9.620208,-1.0,-1.0,101.633934,-0.396347,-0.009264,0.015894,-0.728897
207148.538122,-0.10687995,-0.16315992,-9.81583695,0.003463,0.001067,0.003864,-38.129059,155.220703,-201.400558,60.18768,24.830126,12.915765,9.620208,-1.0,-1.0,101.633934,-0.396347,-0.009258,0.015898,-0.728899
207148.558103,-0.08007903000000001,-0.14729715000000002,-9.82497006,0.003226,-0.001089,0.005077,-38.309021,155.242279,-201.715073,60.18768,24.830126,12.915765,9.620208,-1.0,-1.0,101.633934,-0.396347,-0.009253,0.015906,-0.728904
207148.578085,-0.09190989000000001,-0.16031502,-9.829158930000002,0.002533,-0.001256,0.003813,-38.169388,155.380707,-201.581177,60.18768,24.830126,12.915765,9.620208,-1.0,-1.0,101.633934,-0.396347,-0.009264,0.015917,-0.728892
207148.598066,-0.08921214,-0.1704978,-9.821821049999999,0.004827,0.000464,0.004545,-38.197449,155.460052,-201.646454,60.18768,24.830126,12.915765,9.620208,-1.0,-1.0,101.633934,-0.396347,-0.009271,0.015908,-0.728892
207148.618048,-0.09086022,-0.15822549000000002,-9.82197801,0.001088,0.000189,0.004641,-37.988617,155.408325,-201.805725,60.18768,24.830126,12.915765,9.620208,-1.0,-1.0,101.633934,-0.396347,-0.009275,0.01592,-0.728888
207148.638029,-0.08996751000000001,-0.16630893,-9.8216739,0.003632,-0.00219,0.003879,-37.937241,155.383514,-201.382172,60.18768,24.830126,12.915765,9.620208,-1.0,-1.0,101.633934,-0.396347,-0.009283,0.015903,-0.728891
207148.658011,-0.08726976,-0.16375833,-9.82721655,0.002557,0.000222,0.004488,-38.048523,155.319702,-201.793594,60.18768,24.830126,12.915765,9.620208,-1.0,-1.0,101.633934,-0.396347,-0.009292,0.01591,-0.728899
207148.677992,-0.09520605,-0.14998509000000002,-9.82212516,0.002859,-3.8e-05,0.004755,-37.992371,155.364548,-201.689728,60.18768,24.830126,12.915765,9.620208,-1.0,-1.0,101.633934,-0.396347,-0.009303,0.015914,-0.728891
207148.697974,-0.09999333,-0.16466085000000003,-9.83274939,0.00412,-0.000405,0.003483,-38.122284,155.357346,-201.679291,60.18768,24.830126,12.915765,9.620208,-1.0,-1.0,101.633934,-0.396347,-0.009302,0.015911,-0.728884
207148.717956,-0.09086022,-0.16690734000000002,-9.828707670000002,0.003682,-0.000269,0.004856,-38.027145,155.234482,-201.88118,60.18768,24.830126,12.915765,9.620208,-1.0,-1.0,101.633934,-0.396347,-0.009298,0.015918,-0.728899
207148.737937,-0.10059174,-0.1619631,-9.81329616,0.004009,-0.000737,0.005695,-38.045456,155.390442,-201.922607,60.18768,24.830126,12.915765,9.620208,-1.0,-1.0,101.633934,-0.396347,-0.009316,0.015929,-0.728877
207148.7779,-0.11092167,-0.1619631,-9.81987867,0.004296,-0.000307,0.004611,-38.111252,155.332428,-201.819138,60.18768,24.830126,12.915765,9.620208,-1.0,-1.0,101.633934,-0.396347,-0.009292,0.015953,-0.728857
207148.7779,-0.11092167,-0.1619631,-9.81987867,0.004296,-0.000307,0.004611,-38.111252,155.332428,-201.819138,60.18768,24.830126,12.915765,9.620208,-1.0,-1.0,101.633934,-0.396347,-0.009292,0.015953,-0.728857
207148.817863,-0.08996751000000001,-0.15492933000000003,-9.81119682,0.003246,-0.000901,0.003992,-38.155441,155.160294,-201.875732,60.18768,24.830126,12.915765,9.620208,-1.0,-1.0,101.633934,-0.396347,-0.009301,0.015963,-0.728848
207148.817863,-0.08996751000000001,-0.15492933000000003,-9.81119682,0.003246,-0.000901,0.003992,-38.155441,155.160294,-201.875732,60.18768,24.830126,12.915765,9.620208,-1.0,-1.0,101.633934,-0.396347,-0.009301,0.015963,-0.728848
207148.857826,-0.07724394000000001,-0.16211025,-9.831258270000001,0.004213,-0.000348,0.005421,-38.113785,155.407257,-201.830673,60.18768,24.830126,12.915765,9.620208,-1.0,-1.0,101.633934,-0.396347,-0.009308,0.015953,-0.728838
207148.857826,-0.07724394000000001,-0.16211025,-9.831258270000001,0.004213,-0.000348,0.005421,-38.113785,155.407257,-201.830673,60.18768,24.830126,12.915765,9.620208,-1.0,-1.0,101.633934,-0.396347,-0.009308,0.015953,-0.728838
207148.897789,-0.08382645000000001,-0.15223158,-9.82542132,0.003494,-0.00025,0.004019,-38.278183,155.36348,-201.610413,60.18768,24.830126,12.915765,9.620208,-1.0,-1.0,101.633934,-0.396347,-0.009301,0.015938,-0.728822
207148.897789,-0.08382645000000001,-0.15223158,-9.82542132,0.003494,-0.00025,0.004019,-38.278183,155.36348,-201.610413,60.18768,24.830126,12.915765,9.620208,-1.0,-1.0,101.633934,-0.396347,-0.009301,0.015938,-0.728822
207148.937752,-0.08906499000000001,-0.15986376000000002,-9.8159841,0.003666,0.001067,0.00379,-37.956268,155.39296,-201.581009,60.18768,24.830126,12.915765,9.620208,-1.0,-1.0,101.633934,-0.396347,-0.009293,0.015929,-0.728805
207148.937752,-0.08906499000000001,-0.15986376000000002,-9.8159841,0.003666,0.001067,0.00379,-37.956268,155.39296,-201.581009,60.18768,24.830126,12.915765,9.620208,-1.0,-1.0,101.633934,-0.396347,-0.009293,0.015929,-0.728805
207148.977715,-0.07903917,-0.16046217000000002,-9.833946209999999,0.004646,-0.000274,0.004126,-38.045654,155.235077,-201.717743,60.18768,24.830126,12.915765,9.620208,-1.0,-1.0,101.634033,-0.406918,-0.009279,0.015924,-0.728809
207148.977715,-0.07903917,-0.16046217000000002,-9.833946209999999,0.004646,-0.000274,0.004126,-38.045654,155.235077,-201.717743,60.18768,24.830126,12.915765,9.620208,-1.0,-1.0,101.634033,-0.406918,-0.009279,0.015924,-0.728809
207149.017678,-0.09100737,-0.16406244,-9.83664396,0.002043,-0.000517,0.006979,-37.899963,155.365997,-201.725204,60.18768,24.830126,12.915765,9.620208,-1.0,-1.0,101.634033,-0.406918,-0.009288,0.01592,-0.728802
207149.03766,-0.10328949000000001,-0.15612615,-9.82661814,0.003682,0.001279,0.005063,-38.091751,155.265991,-201.602722,60.18768,24.830126,12.915765,9.620208,-1.0,-1.0,101.634033,-0.406918,-0.009296,0.015916,-0.728791
207149.057641,-0.09504909,-0.15418377,-9.82241946,0.002421,-0.000575,0.006168,-38.091873,155.279816,-201.410156,60.18768,24.830126,12.915765,9.620208,-1.0,-1.0,101.634033,-0.406918,-0.00928,0.015924,-0.72879
207149.077623,-0.09984618,-0.16630893,-9.811343970000001,0.002796,-0.00047,0.004591,-37.932266,155.582291,-201.747162,60.18768,24.830126,12.915765,9.620208,-1.0,-1.0,101.634033,-0.406918,-0.00927,0.015919,-0.728779
207149.097604,-0.07559586,-0.16615197,-9.81793629,0.003328,0.000723,0.003681,-38.100983,155.369766,-202.05423,60.18768,24.830126,12.915765,9.620208,-1.0,-1.0,101.634033,-0.406918,-0.00926,0.015917,-0.728785
207149.117586,-0.09580446000000001,-0.15133887000000001,-9.81777933,0.003328,0.000723,0.003681,-37.987991,155.563156,-201.846695,60.18768,24.830126,12.915765,9.620208,-1.0,-1.0,101.634033,-0.406918,-0.009249,0.015925,-0.728786
207149.137568,-0.09624591,-0.16406244,-9.81329616,0.003626,-0.000468,0.003349,-38.11882,155.239212,-201.931,60.18768,24.830126,12.915765,9.620208,-1.0,-1.0,101.634033,-0.406918,-0.009248,0.015924,-0.728799
207149.157549,-0.08532738,-0.15866694,-9.83065986,0.004821,-0.000741,0.003946,-38.246155,155.361252,-201.656876,60.18768,24.830126,12.915765,9.620208,-1.0,-1.0,101.634033,-0.406918,-0.009239,0.015919,-0.728797
207149.177531,-0.10792962,-0.16899687,-9.813139200000002,0.003427,-0.000453,0.003584,-38.220139,155.306747,-201.903122,60.18768,24.830126,12.915765,9.620208,-1.0,-1.0,101.634033,-0.406918,-0.009245,0.015934,-0.728797
207149.197512,-0.08576883000000002,-0.1588239,-9.81074556,0.003975,-0.001588,0.00353,-38.308746,155.219376,-201.453705,60.18768,24.830126,12.915765,9.620208,-1.0,-1.0,101.634033,-0.406918,-0.009242,0.015927,-0.728799
207149.217494,-0.09774684000000002,-0.16690734000000002,-9.81045126,0.002459,-0.001023,0.004088,-38.168411,155.151871,-201.897598,60.18768,24.830126,12.915765,9.620208,-1.0,-1.0,101.634033,-0.406918,-0.009246,0.015923,-0.728804
207149.217494,-0.09774684000000002,-0.16690734000000002,-9.81045126,0.002459,-0.001023,0.004088,-38.168411,155.151871,-201.897598,60.18768,24.830126,12.915765,9.620208,-1.0,-1.0,101.634033,-0.406918,-0.009246,0.015923,-0.728804
207149.257457,-0.09100737,-0.16466085000000003,-9.816141060000001,0.003272,-0.000127,0.003496,-38.469879,155.301682,-201.62355,60.18768,24.830126,12.915765,9.620208,-1.0,-1.0,101.634033,-0.406918,-0.009244,0.015936,-0.728813
207149.277438,-0.09550035000000001,-0.16884972000000004,-9.819133110000001,0.003064,0.000344,0.004356,-38.267578,155.101593,-201.771942,60.18768,24.830126,12.915765,9.620208,-1.0,-1.0,101.634033,-0.406918,-0.009247,0.015944,-0.728816
207149.29742,-0.08636724,-0.15942231,-9.81823059,0.003627,-0.001272,0.004996,-38.240036,155.298035,-201.458221,60.18768,24.830126,12.915765,9.620208,-1.0,-1.0,101.634033,-0.406918,-0.009241,0.015967,-0.728819
207149.317401,-0.10313253,-0.14594337000000002,-9.818829,0.003371,-0.000368,0.004802,-38.118851,155.093674,-201.443497,60.18768,24.830126,12.915765,9.620208,-1.0,-1.0,101.634033,-0.406918,-0.009248,0.015981,-0.728819
207149.337383,-0.09640287000000002,-0.15538058999999999,-9.81777933,0.003469,0.000123,0.003622,-38.291611,155.449677,-201.622086,60.18768,24.830126,12.915765,9.620208,-1.0,-1.0,101.634033,-0.406918,-0.009247,0.015977,-0.728815
207149.357364,-0.09655002,-0.1588239,-9.81344331,0.004896,-0.001527,0.004952,-38.296127,155.225616,-201.443008,60.18768,24.830126,12.915765,9.620208,-1.0,-1.0,101.634033,-0.406918,-0.009241,0.015988,-0.728809
207149.377346,-0.08831943,-0.16435674000000003,-9.803260530000001,0.003512,0.000322,0.004605,-38.337448,155.117371,-201.858261,60.18768,24.830126,12.915765,9.620208,-1.0,-1.0,101.634033,-0.406918,-0.009254,0.016,-0.728812
207149.397328,-0.08876088000000001,-0.16301277,-9.830807010000001,0.00391,-0.00035,0.003268,-38.235962,155.298264,-201.93045,60.18768,24.830126,12.915765,9.620208,-1.0,-1.0,101.634033,-0.406918,-0.009237,0.016005,-0.72881
207149.417309,-0.08801532000000001,-0.15717582000000002,-9.81164808,0.004046,-0.000313,0.004777,-38.247681,155.210205,-201.723816,60.18768,24.830126,12.915765,9.620208,-1.0,-1.0,101.634033,-0.406918,-0.009232,0.016015,-0.728819
207149.457272,-0.09220419,-0.15866694,-9.823174830000001,0.003855,-6e-06,0.004227,-38.343964,155.128418,-201.905975,60.18768,24.830126,12.915765,9.620208,-1.0,-1.0,101.634033,-0.406918,-0.009213,0.016008,-0.728826
207149.457272,-0.09220419,-0.15866694,-9.823174830000001,0.003855,-6e-06,0.004227,-38.343964,155.128418,-201.905975,60.18768,24.830126,12.915765,9.620208,-1.0,-1.0,101.634033,-0.406918,-0.009213,0.016008,-0.728826
207149.497235,-0.08712261,-0.16839846000000003,-9.827069400000001,0.00155,-0.000298,0.004184,-38.509552,155.093689,-201.50296,60.18768,24.830126,12.915765,9.620208,-1.0,-1.0,101.634033,-0.406918,-0.009201,0.015993,-0.728842
207149.497235,-0.08712261,-0.16839846000000003,-9.827069400000001,0.00155,-0.000298,0.004184,-38.509552,155.093689,-201.50296,60.18768,24.830126,12.915765,9.620208,-1.0,-1.0,101.634033,-0.406918,-0.009201,0.015993,-0.728842
207149.537198,-0.08622009,-0.16780005,-9.816582510000002,0.00262,-0.00035,0.004928,-38.400925,155.160461,-201.807159,60.18768,24.830126,12.915765,9.620208,-1.0,-1.0,101.634033,-0.406918,-0.009194,0.015984,-0.728837
207149.537198,-0.08622009,-0.16780005,-9.816582510000002,0.00262,-0.00035,0.004928,-38.400925,155.160461,-201.807159,60.18768,24.830126,12.915765,9.620208,-1.0,-1.0,101.634033,-0.406918,-0.009194,0.015984,-0.728837
207149.577161,-0.09550035000000001,-0.16165899,-9.82586277,0.003721,-0.000222,0.005594,-38.159439,155.244995,-201.538467,60.18768,24.830126,12.915765,9.620208,-1.0,-1.0,101.634033,-0.406918,-0.009166,0.01599,-0.728826
207149.577161,-0.09550035000000001,-0.16165899,-9.82586277,0.003721,-0.000222,0.005594,-38.159439,155.244995,-201.538467,60.18768,24.830126,12.915765,9.620208,-1.0,-1.0,101.634033,-0.406918,-0.009166,0.01599,-0.728826
207149.617125,-0.08023599000000001,-0.16270866,-9.823174830000001,0.003493,0.000215,0.003098,-38.215515,155.068115,-201.800705,60.18768,24.830126,12.915765,9.620208,-1.0,-1.0,101.634033,-0.406918,-0.009159,0.015965,-0.728841
207149.617125,-0.08023599000000001,-0.16270866,-9.823174830000001,0.003493,0.000215,0.003098,-38.215515,155.068115,-201.800705,60.18768,24.830126,12.915765,9.620208,-1.0,-1.0,101.634033,-0.406918,-0.009159,0.015965,-0.728841
207149.657088,-0.09595161,-0.16600482,-9.82272357,0.003297,-0.001305,0.003551,-38.262283,155.222214,-201.970886,60.18768,24.830126,12.915765,9.620208,-1.0,-1.0,101.634033,-0.406918,-0.009129,0.015961,-0.728855
207149.677069,-0.08322804,-0.14354973000000001,-9.8216739,0.004814,-0.00049,0.002222,-38.140915,155.278564,-201.782516,60.18768,24.830126,12.915765,9.620208,-1.0,-1.0,101.634033,-0.406918,-0.009138,0.015969,-0.728863
207149.697051,-0.09430353000000001,-0.16061913,-9.82241946,0.001929,-0.000761,0.003422,-38.161957,155.434784,-202.052856,60.18768,24.830126,12.915765,9.620208,-1.0,-1.0,101.634033,-0.406918,-0.00913,0.015979,-0.728885
207149.717032,-0.09011466,-0.16151184,-9.82272357,0.0022,-0.001233,0.003239,-37.981644,155.402573,-201.812943,60.18768,24.830126,12.915765,9.620208,-1.0,-1.0,101.634033,-0.406918,-0.009116,0.015966,-0.728898
207149.737014,-0.08861373,-0.17035065,-9.8216739,0.00266,-0.000204,0.004397,-38.163544,155.094498,-201.902603,60.18768,24.830126,12.915765,9.620208,-1.0,-1.0,101.634033,-0.406918,-0.009114,0.015954,-0.728911
207149.756995,-0.08921214,-0.16315992,-9.81194238,0.00266,-0.000204,0.004397,-38.117386,155.395874,-201.845444,60.18768,24.830126,12.915765,9.620208,-1.0,-1.0,101.634033,-0.406918,-0.009114,0.015943,-0.728912
207149.776977,-0.10298538000000002,-0.16870257000000002,-9.823469130000001,0.003982,8.3e-05,0.004459,-38.078827,155.275452,-201.8535,60.18768,24.830126,12.915765,9.620208,-1.0,-1.0,101.634033,-0.406918,-0.00911,0.015939,-0.728924
207149.796958,-0.09774684000000002,-0.16091343000000002,-9.82646118,0.003809,-6e-05,0.005189,-38.158875,155.308273,-201.78212,60.18768,24.830126,12.915765,9.620208,-1.0,-1.0,101.634033,-0.406918,-0.009105,0.015935,-0.728921
207149.81694,-0.0928026,-0.15866694,-9.832150980000002,0.003849,0.00046,0.00533,-38.161591,155.217789,-201.543549,60.18768,24.830126,12.915765,9.620208,-1.0,-1.0,101.634033,-0.406918,-0.00911,0.015947,-0.728924
207149.836922,-0.09894366,-0.16061913,-9.8216739,0.003849,0.00046,0.00533,-38.288727,155.1875,-202.061295,60.18768,24.830126,12.915765,9.620208,-1.0,-1.0,101.634033,-0.406918,-0.009096,0.015952,-0.728926
207149.856903,-0.07963758,-0.15342840000000002,-9.811049670000001,0.003376,-0.000391,0.002303,-38.249359,155.288208,-201.808655,60.18768,24.830126,12.915765,9.620208,-1.0,-1.0,101.634033,-0.406918,-0.009093,0.015955,-0.728936
207149.876885,-0.08741691000000001,-0.1474443,-9.832602240000002,0.003429,0.001181,0.00352,-38.172272,155.217407,-201.773895,60.18768,24.830126,12.915765,9.620208,-1.0,-1.0,101.634033,-0.406918,-0.009091,0.015952,-0.728958
207149.896866,-0.09460764,-0.15418377,-9.811795230000001,0.002776,-0.000651,0.004901,-38.121277,155.280334,-201.868576,60.18768,24.830126,12.915765,9.620208,-1.0,-1.0,101.634033,-0.406918,-0.009087,0.015962,-0.728972
207149.916848,-0.10269108,-0.15926535,-9.81209934,0.003337,-0.000755,0.00517,-38.145004,155.284653,-201.555878,60.18768,24.830126,12.915765,9.620208,-1.0,-1.0,101.634033,-0.406918,-0.009092,0.015973,-0.728987
207149.936829,-0.08756406,-0.16076628,-9.839037600000001,0.002905,0.000427,0.004589,-38.266418,155.207764,-201.60675,60.18768,24.830126,12.915765,9.620208,-1.0,-1.0,101.634033,-0.406918,-0.009089,0.015981,-0.728996
207149.956811,-0.10119015,-0.15986376000000002,-9.823174830000001,0.001565,-0.000915,0.003298,-38.330521,155.161255,-201.712143,60.18768,24.830126,12.915765,9.620208,-1.0,-1.0,101.634033,-0.406918,-0.009081,0.015979,-0.728998
207149.976792,-0.09744273000000002,-0.17139051000000002,-9.82122264,0.002951,-0.000797,0.00341,-38.107101,155.398636,-201.833313,60.18768,24.830126,12.915765,9.620208,-1.0,-1.0,101.634033,-0.406918,-0.009082,0.015969,-0.729014
207149.996774,-0.08053028999999999,-0.16330707,-9.82616688,0.002529,-0.001003,0.005663,-38.089355,155.277527,-201.970764,60.18768,24.830126,12.915765,9.620208,-1.0,-1.0,101.634033,-0.406918,-0.009082,0.015968,-0.729029
207150.016756,-0.09415638000000001,-0.14818986,-9.82107549,0.004612,0.0006,0.003394,-38.012802,155.584549,-202.055847,60.18768,24.830126,12.915765,9.620208,-1.0,-1.0,101.634064,-0.406918,-0.009087,0.015968,-0.729028
207150.036737,-0.08471916,-0.16211025,-9.82032993,0.003697,-0.001073,0.003597,-38.125381,155.425049,-202.069077,60.18768,24.830126,12.915765,9.620208,-1.0,-1.0,101.634064,-0.406918,-0.009085,0.015994,-0.729049
207150.056719,-0.09026181000000001,-0.16660323000000002,-9.812246490000001,0.002989,-0.00052,0.004115,-38.131302,155.335388,-201.910812,60.18768,24.830126,12.915765,9.620208,-1.0,-1.0,101.634064,-0.406918,-0.009101,0.015996,-0.729058
207150.096682,-0.08756406,-0.15118191,-9.812246490000001,0.002562,-0.000638,0.004475,-38.092529,155.505371,-202.027695,60.18768,24.830126,12.915765,9.620208,-1.0,-1.0,101.634064,-0.406918,-0.009095,0.015994,-0.729047
207150.096682,-0.08756406,-0.15118191,-9.812246490000001,0.002562,-0.000638,0.004475,-38.092529,155.505371,-202.027695,60.18768,24.830126,12.915765,9.620208,-1.0,-1.0,101.634064,-0.406918,-0.009095,0.015994,-0.729047
207150.136645,-0.09145863,-0.16690734000000002,-9.823626090000001,0.002695,-0.000715,0.004508,-38.084641,155.510818,-202.122894,60.18768,24.830126,12.915765,9.620208,-1.0,-1.0,101.634064,-0.406918,-0.009096,0.016004,-0.729054
207150.136645,-0.09145863,-0.16690734000000002,-9.823626090000001,0.002695,-0.000715,0.004508,-38.084641,155.510818,-202.122894,60.18768,24.830126,12.915765,9.620208,-1.0,-1.0,101.634064,-0.406918,-0.009096,0.016004,-0.729054
207150.176608,-0.09490194,-0.15418377,-9.81494424,0.003542,-0.001039,0.003718,-37.980835,155.210144,-201.617661,60.18768,24.830126,12.915765,9.620208,-1.0,-1.0,101.634064,-0.406918,-0.009122,0.016013,-0.729079
207150.176608,-0.09490194,-0.15418377,-9.81494424,0.003542,-0.001039,0.003718,-37.980835,155.210144,-201.617661,60.18768,24.830126,12.915765,9.620208,-1.0,-1.0,101.634064,-0.406918,-0.009122,0.016013,-0.729079
207150.216571,-0.09490194,-0.15373251000000002,-9.81643536,0.003012,-0.000968,0.004722,-38.070755,155.491058,-202.176819,60.18768,24.830126,12.915765,9.620208,-1.0,-1.0,101.634064,-0.406918,-0.009135,0.016024,-0.72909
207150.216571,-0.09490194,-0.15373251000000002,-9.81643536,0.003012,-0.000968,0.004722,-38.070755,155.491058,-202.176819,60.18768,24.830126,12.915765,9.620208,-1.0,-1.0,101.634064,-0.406918,-0.009135,0.016024,-0.72909
207150.256534,-0.08906499000000001,-0.15866694,-9.816582510000002,0.002111,-0.000434,0.004022,-38.062332,155.371201,-202.204849,60.18768,24.830126,12.915765,9.620208,-1.0,-1.0,101.634064,-0.406918,-0.009149,0.016022,-0.72909
207150.276516,-0.10927359,-0.16046217000000002,-9.831101310000001,0.002919,-0.00051,0.00387,-38.159637,155.337708,-201.861526,60.18768,24.830126,12.915765,9.620208,-1.0,-1.0,101.634064,-0.406918,-0.009149,0.016015,-0.729089
207150.296497,-0.08232552,-0.15822549000000002,-9.823626090000001,0.002417,-0.000552,0.0056,-37.961853,155.437378,-201.913452,60.18768,24.830126,12.915765,9.620208,-1.0,-1.0,101.634064,-0.406918,-0.009153,0.016011,-0.729112
207150.296497,-0.08232552,-0.15822549000000002,-9.823626090000001,0.002417,-0.000552,0.0056,-37.961853,155.437378,-201.913452,60.18768,24.830126,12.915765,9.620208,-1.0,-1.0,101.634064,-0.406918,-0.009153,0.016011,-0.729112
207150.336461,-0.08308089000000002,-0.15822549000000002,-9.82901178,0.00276,0.000761,0.004057,-37.986832,155.390778,-201.829605,60.18768,24.830126,12.915765,9.620208,-1.0,-1.0,101.634064,-0.406918,-0.00917,0.015985,-0.729109
207150.336461,-0.08308089000000002,-0.15822549000000002,-9.82901178,0.00276,0.000761,0.004057,-37.986832,155.390778,-201.829605,60.18768,24.830126,12.915765,9.620208,-1.0,-1.0,101.634064,-0.406918,-0.00917,0.015985,-0.729109
207150.376424,-0.09040896000000001,-0.15866694,-9.820182780000001,0.002949,5.8e-05,0.002901,-38.094406,155.296539,-201.7845,60.18768,24.830126,12.915765,9.620208,-1.0,-1.0,101.634064,-0.406918,-0.009164,0.01597,-0.72911
207150.376424,-0.09040896000000001,-0.15866694,-9.820182780000001,0.002949,5.8e-05,0.002901,-38.094406,155.296539,-201.7845,60.18768,24.830126,12.915765,9.620208,-1.0,-1.0,101.634064,-0.406918,-0.009164,0.01597,-0.72911
207150.416387,-0.08712261,-0.15657741,-9.82241946,0.003621,0.000223,0.006047,-38.043228,155.522476,-201.621643,60.18768,24.830126,12.915765,9.620208,-1.0,-1.0,101.634064,-0.406918,-0.009179,0.015958,-0.72912
207150.436369,-0.08981055,-0.16630893,-9.817033770000002,0.003864,-0.000376,0.004106,-37.948074,155.381088,-201.660904,60.18768,24.830126,12.915765,9.620208,-1.0,-1.0,101.634064,-0.406918,-0.009177,0.015958,-0.729106
207150.45635,-0.09011466,-0.16136469,-9.81777933,0.002596,-0.000679,0.004741,-38.003983,155.509628,-202.2668,60.18768,24.830126,12.915765,9.620208,-1.0,-1.0,101.634064,-0.406918,-0.009183,0.015958,-0.729121
207150.476332,-0.10463346000000001,-0.15806852999999998,-9.82946304,0.003509,0.000376,0.0039,-37.952072,155.331223,-201.880554,60.18768,24.830126,12.915765,9.620208,-1.0,-1.0,101.634064,-0.406918,-0.009171,0.015948,-0.729126
207150.496313,-0.09026181000000001,-0.16315992,-9.819427410000001,0.002705,-0.001536,0.002883,-38.200531,155.286469,-202.089417,60.18768,24.830126,12.915765,9.620208,-1.0,-1.0,101.634064,-0.406918,-0.009175,0.015943,-0.729119
207150.516295,-0.09415638000000001,-0.16734879000000003,-9.81209934,0.002368,-0.000432,0.004646,-38.195038,155.20015,-201.857956,60.18768,24.830126,12.915765,9.620208,-1.0,-1.0,101.634064,-0.406918,-0.009182,0.015937,-0.729131
207150.536276,-0.08846658,-0.16136469,-9.83379906,0.003369,0.000112,0.006128,-38.079285,155.336075,-202.041077,60.18768,24.830126,12.915765,9.620208,-1.0,-1.0,101.634064,-0.406918,-0.00918,0.015943,-0.729141
207150.556258,-0.08053028999999999,-0.15538058999999999,-9.82542132,0.002641,-0.001818,0.004541,-38.147324,155.35582,-201.850037,60.18768,24.830126,12.915765,9.620208,-1.0,-1.0,101.634064,-0.406918,-0.009179,0.015954,-0.729133
207150.57624,-0.09714843000000001,-0.15088761,-9.82107549,0.002215,0.000331,0.005587,-38.194916,155.179214,-201.824768,60.18768,24.830126,12.915765,9.620208,-1.0,-1.0,101.634064,-0.406918,-0.009189,0.015956,-0.729147
207150.596221,-0.09805095000000001,-0.15358536,-9.81299205,0.002503,-0.001266,0.006454,-38.189087,155.591583,-201.848694,60.18768,24.830126,12.915765,9.620208,-1.0,-1.0,101.634064,-0.406918,-0.009186,0.015954,-0.72914
207150.616203,-0.08576883000000002,-0.16002072,-9.82646118,0.003539,-0.000138,0.0038,-38.087662,155.452499,-201.894852,60.18768,24.830126,12.915765,9.620208,-1.0,-1.0,101.634064,-0.406918,-0.009196,0.015954,-0.72914
207150.636184,-0.10269108,-0.164808,-9.823469130000001,0.002929,0.000215,0.005262,-38.192383,155.56897,-201.74176,60.18768,24.830126,12.915765,9.620208,-1.0,-1.0,101.634064,-0.406918,-0.009194,0.015966,-0.72915
207150.656166,-0.10193571,-0.16450389,-9.82646118,0.002556,-0.001868,0.005225,-37.954895,155.53035,-201.582443,60.18768,24.830126,12.915765,9.620208,-1.0,-1.0,101.634064,-0.406918,-0.009209,0.015964,-0.729158
207150.676147,-0.07708698000000001,-0.15328125,-9.819427410000001,0.000752,-0.001088,0.003412,-38.034195,155.393204,-201.950714,60.18768,24.830126,12.915765,9.620208,-1.0,-1.0,101.634064,-0.406918,-0.009218,0.015958,-0.729165
207150.696129,-0.09714843000000001,-0.15462522000000004,-9.82332198,0.003628,-0.000301,0.005471,-38.0354,155.387207,-201.961304,60.18768,24.830126,12.915765,9.620208,-1.0,-1.0,101.634064,-0.406918,-0.009231,0.015939,-0.729176
207150.716111,-0.09100737,-0.15897105,-9.819133110000001,0.003923,-0.000318,0.005498,-38.148926,155.406876,-202.166489,60.18768,24.830126,12.915765,9.620208,-1.0,-1.0,101.634064,-0.406918,-0.009233,0.015938,-0.729179
207150.736092,-0.09100737,-0.14878827,-9.823626090000001,0.003397,-0.000377,0.004382,-37.955154,155.675186,-201.683472,60.18768,24.830126,12.915765,9.620208,-1.0,-1.0,101.634064,-0.406918,-0.009244,0.015949,-0.729175
207150.756074,-0.09100737,-0.15313410000000002,-9.82841337,0.002747,-0.000109,0.005868,-38.129379,155.361923,-201.648117,60.18768,24.830126,12.915765,9.620208,-1.0,-1.0,101.634064,-0.406918,-0.009241,0.015958,-0.729187
207150.776055,-0.10208286000000001,-0.16555356,-9.822870720000001,0.003035,0.000642,0.005373,-38.108795,155.323456,-201.741562,60.18768,24.830126,12.915765,9.620208,-1.0,-1.0,101.634064,-0.406918,-0.009246,0.015953,-0.729193
207150.796037,-0.0836793,-0.16660323000000002,-9.835594290000001,0.002973,-0.001623,0.003456,-38.110718,155.238083,-201.387604,60.18768,24.830126,12.915765,9.620208,-1.0,-1.0,101.634064,-0.406918,-0.009242,0.015963,-0.729194
207150.816019,-0.09295956000000001,-0.16256151,-9.823469130000001,0.002746,0.000647,0.00403,-38.038712,155.2948,-201.297729,60.18768,24.830126,12.915765,9.620208,-1.0,-1.0,101.634064,-0.406918,-0.009266,0.015958,-0.729209
207150.855982,-0.08592579,-0.15193728,-9.82886463,0.003951,-0.000545,0.004932,-38.172302,155.15918,-201.641037,60.18768,24.830126,12.915765,9.620208,-1.0,-1.0,101.634064,-0.406918,-0.009271,0.015948,-0.729206
207150.855982,-0.08592579,-0.15193728,-9.82886463,0.003951,-0.000545,0.004932,-38.172302,155.15918,-201.641037,60.18768,24.830126,12.915765,9.620208,-1.0,-1.0,101.634064,-0.406918,-0.009271,0.015948,-0.729206
207150.875963,-0.09669717,-0.16794720000000002,-9.82272357,0.003672,-3.4e-05,0.006229,-38.070068,155.249741,-201.735458,60.18768,24.830126,12.915765,9.620208,-1.0,-1.0,101.634064,-0.406918,-0.009283,0.01594,-0.729212
207150.875963,-0.09669717,-0.16794720000000002,-9.82272357,0.003672,-3.4e-05,0.006229,-38.070068,155.249741,-201.735458,60.18768,24.830126,12.915765,9.620208,-1.0,-1.0,101.634064,-0.406918,-0.009283,0.01594,-0.729212
207150.875963,-0.09669717,-0.16794720000000002,-9.82272357,0.003672,-3.4e-05,0.006229,-38.070068,155.249741,-201.735458,60.18768,24.830126,12.915765,9.620208,-1.0,-1.0,101.634064,-0.406918,-0.009283,0.01594,-0.729212
207150.935908,-0.08217837000000001,-0.17258733,-9.831101310000001,0.004133,0.000655,0.005849,-38.140686,155.19133,-201.39534,60.18768,24.830126,12.915765,9.620208,-1.0,-1.0,101.634064,-0.406918,-0.009286,0.015934,-0.729207
207150.97587,-0.0868185,-0.16914402,-9.819731520000001,0.001641,-0.000993,0.003497,-38.035812,155.363388,-201.593658,60.18768,24.830126,12.915765,9.620208,-1.0,-1.0,101.634064,-0.406918,-0.009292,0.015915,-0.72921
207150.995853,-0.09805095000000001,-0.16600482,-9.82107549,0.003066,-0.001401,0.004643,-38.133514,155.312485,-202.024811,60.18768,24.830126,12.915765,9.620208,-1.0,-1.0,101.634064,-0.406918,-0.00929,0.015905,-0.729212
207151.015834,-0.10119015,-0.15956946,-9.818829,0.003191,-0.00097,0.003967,-38.079376,155.401184,-201.979019,60.18768,24.830126,12.915765,9.620208,-1.0,-1.0,101.634064,-0.406918,-0.009297,0.015904,-0.729212
207151.015834,-0.10119015,-0.15956946,-9.818829,0.003191,-0.00097,0.003967,-38.079376,155.401184,-201.979019,60.18768,24.830126,12.915765,9.620208,-1.0,-1.0,101.634064,-0.406918,-0.009297,0.015904,-0.729212
207151.055798,-0.08981055,-0.14923953,-9.81418887,0.003515,0.000511,0.004449,-38.061523,155.345352,-201.84407,60.18768,24.830126,12.915765,9.620208,-1.0,-1.0,101.634064,-0.406918,-0.009308,0.01591,-0.729214
207151.075779,-0.09040896000000001,-0.16765290000000002,-9.82466595,0.004467,0.000297,0.00358,-37.941391,155.547729,-201.892883,60.18768,24.830126,12.915765,9.620208,-1.0,-1.0,101.634064,-0.406918,-0.009295,0.015926,-0.729213
207151.095761,-0.09744273000000002,-0.17035065,-9.82511721,0.003776,-0.001046,0.00467,-37.971085,155.375397,-202.110275,60.18768,24.830126,12.915765,9.620208,-1.0,-1.0,101.634094,-0.412201,-0.009287,0.015938,-0.729226
207151.115742,-0.09385227000000002,-0.16600482,-9.81643536,0.004421,-0.000192,0.004636,-38.048645,155.472488,-202.015182,60.18768,24.830126,12.915765,9.620208,-1.0,-1.0,101.634094,-0.412201,-0.009287,0.015957,-0.729237
207151.135724,-0.09729558,-0.15956946,-9.820182780000001,0.004515,-0.000436,0.005475,-37.962814,155.464874,-202.236938,60.18768,24.830126,12.915765,9.620208,-1.0,-1.0,101.634094,-0.412201,-0.00929,0.015978,-0.729243
207151.155706,-0.09056592000000001,-0.16630893,-9.81209934,0.003087,0.000416,0.005028,-37.861465,155.440948,-201.873871,60.18768,24.830126,12.915765,9.620208,-1.0,-1.0,101.634094,-0.412201,-0.009294,0.015983,-0.729233
207151.175687,-0.09669717,-0.17214588000000003,-9.82511721,0.003639,-0.000176,0.005421,-37.829666,155.476013,-201.961685,60.18768,24.830126,12.915765,9.620208,-1.0,-1.0,101.634094,-0.412201,-0.009292,0.015978,-0.729234
207151.195669,-0.10298538000000002,-0.16136469,-9.82257642,0.002742,0.000304,0.005608,-37.937012,155.54364,-201.856506,60.18768,24.830126,12.915765,9.620208,-1.0,-1.0,101.634094,-0.412201,-0.009294,0.015987,-0.72924
207151.21565,-0.09954207,-0.16016787000000002,-9.82601973,0.00268,0.000243,0.006693,-38.022095,155.394501,-201.901733,60.18768,24.830126,12.915765,9.620208,-1.0,-1.0,101.634094,-0.412201,-0.009288,0.015979,-0.729237
207151.235632,-0.09564750000000001,-0.15657741,-9.807155100000001,0.003286,3.7e-05,0.003764,-37.891602,155.373749,-201.753571,60.18768,24.830126,12.915765,9.620208,-1.0,-1.0,101.634094,-0.412201,-0.00928,0.01598,-0.729241
207151.255614,-0.09564750000000001,-0.15507648,-9.81090252,0.002608,-0.000868,0.004744,-37.981491,155.576508,-201.835907,60.18768,24.830126,12.915765,9.620208,-1.0,-1.0,101.634094,-0.412201,-0.009279,0.015977,-0.729252
207151.275595,-0.07948062,-0.16989939,-9.81733788,0.003356,0.000394,0.004605,-38.090424,155.513748,-201.650375,60.18768,24.830126,12.915765,9.620208,-1.0,-1.0,101.634094,-0.412201,-0.009273,0.015988,-0.729267
207151.295577,-0.09609875999999999,-0.17109621000000003,-9.807302250000001,0.004904,-0.001163,0.004226,-37.971039,155.453445,-201.870758,60.18768,24.830126,12.915765,9.620208,-1.0,-1.0,101.634094,-0.412201,-0.00927,0.015983,-0.729265
207151.315557,-0.09520605,-0.16106057999999998,-9.836045550000001,0.00439,4.4e-05,0.004121,-37.986801,155.545425,-202.03952,60.18768,24.830126,12.915765,9.620208,-1.0,-1.0,101.634094,-0.412201,-0.009271,0.016,-0.729273
207151.33554,-0.09504909,-0.16495515000000002,-9.820025820000001,0.00383,-0.00028,0.006383,-37.94635,155.27594,-201.686981,60.18768,24.830126,12.915765,9.620208,-1.0,-1.0,101.634094,-0.412201,-0.009265,0.016005,-0.729283
207151.355522,-0.09609875999999999,-0.17004654,-9.818534699999999,0.004035,-1.8e-05,0.003496,-37.951736,155.332642,-201.888519,60.18768,24.830126,12.915765,9.620208,-1.0,-1.0,101.634094,-0.412201,-0.009264,0.016001,-0.729264
207151.375503,-0.09400923,-0.16435674000000003,-9.81987867,0.002314,3e-06,0.004438,-38.093994,155.302444,-201.842285,60.18768,24.830126,12.915765,9.620208,-1.0,-1.0,101.634094,-0.412201,-0.009253,0.016021,-0.729261
207151.395485,-0.10028763,-0.15926535,-9.81418887,0.001591,-0.001071,0.004201,-37.973465,155.253357,-201.668076,60.18768,24.830126,12.915765,9.620208,-1.0,-1.0,101.634094,-0.412201,-0.009247,0.016012,-0.729262
207151.415466,-0.09236115,-0.15373251000000002,-9.818829,0.002635,0.00117,0.00453,-38.112411,155.338043,-201.369629,60.18768,24.830126,12.915765,9.620208,-1.0,-1.0,101.634094,-0.412201,-0.009246,0.01601,-0.729262
207151.435448,-0.08996751000000001,-0.15866694,-9.811500930000001,0.002346,0.000481,0.004304,-38.308365,155.264236,-201.581131,60.18768,24.830126,12.915765,9.620208,-1.0,-1.0,101.634094,-0.412201,-0.009241,0.016009,-0.729265
207151.45543,-0.08786817,-0.16211025,-9.81404172,0.003622,3.5e-05,0.002623,-38.097153,155.318634,-201.605469,60.18768,24.830126,12.915765,9.620208,-1.0,-1.0,101.634094,-0.412201,-0.009243,0.016004,-0.729269
207151.475411,-0.09490194,-0.1761876,-9.82466595,0.00372,0.000253,0.003988,-38.104355,155.2659,-201.777634,60.18768,24.830126,12.915765,9.620208,-1.0,-1.0,101.634094,-0.412201,-0.009241,0.016003,-0.72928
207151.495393,-0.08981055,-0.16106057999999998,-9.82406754,0.003994,-0.000567,0.003397,-38.000565,155.391846,-201.79425,60.18768,24.830126,12.915765,9.620208,-1.0,-1.0,101.634094,-0.412201,-0.009236,0.015998,-0.729292
207151.535356,-0.09550035000000001,-0.16241436,-9.80925444,0.003299,-0.000295,0.005053,-37.924667,155.437637,-201.699738,60.18768,24.830126,12.915765,9.620208,-1.0,-1.0,101.634094,-0.412201,-0.009228,0.015995,-0.729306
207151.535356,-0.09550035000000001,-0.16241436,-9.80925444,0.003299,-0.000295,0.005053,-37.924667,155.437637,-201.699738,60.18768,24.830126,12.915765,9.620208,-1.0,-1.0,101.634094,-0.412201,-0.009228,0.015995,-0.729306
207151.575319,-0.09310671,-0.16301277,-9.820182780000001,0.003236,0.000372,0.003814,-37.869064,155.250916,-201.448013,60.18768,24.830126,12.915765,9.620208,-1.0,-1.0,101.634094,-0.412201,-0.009249,0.015996,-0.729313
207151.575319,-0.09310671,-0.16301277,-9.820182780000001,0.003236,0.000372,0.003814,-37.869064,155.250916,-201.448013,60.18768,24.830126,12.915765,9.620208,-1.0,-1.0,101.634094,-0.412201,-0.009249,0.015996,-0.729313
207151.615283,-0.07663572,-0.17468667000000002,-9.830807010000001,0.002529,0.000548,0.005237,-37.868179,155.545059,-201.630325,60.18768,24.830126,12.915765,9.620208,-1.0,-1.0,101.634094,-0.412201,-0.009229,0.015993,-0.729324
207151.615283,-0.07663572,-0.17468667000000002,-9.830807010000001,0.002529,0.000548,0.005237,-37.868179,155.545059,-201.630325,60.18768,24.830126,12.915765,9.620208,-1.0,-1.0,101.634094,-0.412201,-0.009229,0.015993,-0.729324
207151.655246,-0.1038879,-0.16256151,-9.820182780000001,0.003056,-0.0013,0.005392,-37.872528,155.630478,-201.812592,60.18768,24.830126,12.915765,9.620208,-1.0,-1.0,101.634094,-0.412201,-0.009226,0.01599,-0.729337
207151.655246,-0.1038879,-0.16256151,-9.820182780000001,0.003056,-0.0013,0.005392,-37.872528,155.630478,-201.812592,60.18768,24.830126,12.915765,9.620208,-1.0,-1.0,101.634094,-0.412201,-0.009226,0.01599,-0.729337
207151.695209,-0.08427771,-0.15687171,-9.822870720000001,0.003742,0.000489,0.003449,-37.84079,155.241013,-201.812012,60.18768,24.830126,12.915765,9.620208,-1.0,-1.0,101.634094,-0.412201,-0.009232,0.015986,-0.72934
207151.715191,-0.09475478999999999,-0.16270866,-9.81329616,0.001964,-0.00121,0.004095,-37.945969,155.345673,-201.802383,60.18768,24.830126,12.915765,9.620208,-1.0,-1.0,101.634094,-0.412201,-0.009228,0.016002,-0.729344
207151.735172,-0.09504909,-0.15507648,-9.81763218,0.003351,-0.001878,0.003267,-37.775513,155.515732,-201.845612,60.18768,24.830126,12.915765,9.620208,-1.0,-1.0,101.634094,-0.412201,-0.009225,0.016,-0.729349
207151.735172,-0.09504909,-0.15507648,-9.81763218,0.003351,-0.001878,0.003267,-37.775513,155.515732,-201.845612,60.18768,24.830126,12.915765,9.620208,-1.0,-1.0,101.634094,-0.412201,-0.009225,0.016,-0.729349
207151.775134,-0.09849240000000001,-0.16974243,-9.81,0.003434,-0.001092,0.004962,-37.946487,155.540314,-201.575104,60.18768,24.830126,12.915765,9.620208,-1.0,-1.0,101.634094,-0.412201,-0.009237,0.015986,-0.729373
207151.795117,-0.09924777,-0.16630893,-9.817485030000002,0.001858,-0.000858,0.004473,-37.917313,155.537903,-201.652756,60.18768,24.830126,12.915765,9.620208,-1.0,-1.0,101.634094,-0.412201,-0.009243,0.015984,-0.729377
207151.815099,-0.09325386000000001,-0.16974243,-9.83200383,0.003954,-0.000897,0.005002,-37.81218,155.394974,-201.791,60.18768,24.830126,12.915765,9.620208,-1.0,-1.0,101.634094,-0.412201,-0.009244,0.015973,-0.729386
207151.83508,-0.09834525,-0.15942231,-9.80655669,0.003498,-0.000872,0.004568,-37.784668,155.527481,-201.552002,60.18768,24.830126,12.915765,9.620208,-1.0,-1.0,101.634094,-0.412201,-0.009257,0.015981,-0.729398
207151.855062,-0.09071307,-0.16375833,-9.817485030000002,0.003327,0.000813,0.004749,-37.998932,155.656967,-201.735992,60.18768,24.830126,12.915765,9.620208,-1.0,-1.0,101.634094,-0.412201,-0.009267,0.015981,-0.729389
207151.875044,-0.08667135000000001,-0.16884972000000004,-9.81538569,0.004266,2.8e-05,0.004021,-38.062805,155.398178,-201.933258,60.18768,24.830126,12.915765,9.620208,-1.0,-1.0,101.634094,-0.412201,-0.009269,0.015983,-0.729391
207151.895025,-0.10373094000000001,-0.14849397,-9.80655669,0.001909,0.000421,0.005683,-38.021683,155.421005,-201.906631,60.18768,24.830126,12.915765,9.620208,-1.0,-1.0,101.634094,-0.412201,-0.009258,0.01598,-0.729387
207151.895025,-0.10373094000000001,-0.14849397,-9.80655669,0.001909,0.000421,0.005683,-38.021683,155.421005,-201.906631,60.18768,24.830126,12.915765,9.620208,-1.0,-1.0,101.634094,-0.412201,-0.009258,0.01598,-0.729387
207151.895025,-0.10373094000000001,-0.14849397,-9.80655669,0.001909,0.000421,0.005683,-38.021683,155.421005,-201.906631,60.18768,24.830126,12.915765,9.620208,-1.0,-1.0,101.634094,-0.412201,-0.009258,0.01598,-0.729387
207151.95497,-0.08427771,-0.16031502,-9.81239364,0.002435,-4.4e-05,0.005505,-37.976898,155.508041,-201.775635,60.18768,24.830126,12.915765,9.620208,-1.0,-1.0,101.634094,-0.412201,-0.009245,0.015963,-0.729399
207151.974952,-0.09100737,-0.1704978,-9.8159841,0.002477,-0.00092,0.003837,-38.087845,155.541489,-201.738556,60.18768,24.830126,12.915765,9.620208,-1.0,-1.0,101.634094,-0.412201,-0.009244,0.015968,-0.729384
207151.994933,-0.09265545000000001,-0.16899687,-9.81718092,0.004465,2.6e-05,0.004011,-38.068268,155.39325,-201.604004,60.18768,24.830126,12.915765,9.620208,-1.0,-1.0,101.634094,-0.412201,-0.009237,0.015958,-0.729386
207152.014915,-0.09968922,-0.15851979,-9.82152675,0.001587,-0.001671,0.005625,-37.88739,155.679291,-201.590256,60.18768,24.830126,12.915765,9.620208,-1.0,-1.0,101.634094,-0.412201,-0.009241,0.015973,-0.729383
207152.034897,-0.08232552,-0.15313410000000002,-9.818829,0.002005,0.000242,0.004103,-38.042313,155.681747,-201.722046,60.18768,24.830126,12.915765,9.620208,-1.0,-1.0,101.634094,-0.412201,-0.009244,0.015964,-0.729386
207152.054878,-0.09116433,-0.15358536,-9.829158930000002,0.0011,-0.000579,0.005534,-37.774872,155.718933,-201.797592,60.18768,24.830126,12.915765,9.620208,-1.0,-1.0,101.634094,-0.412201,-0.009231,0.015951,-0.729398
207152.07486,-0.09145863,-0.15657741,-9.823626090000001,0.003136,0.000351,0.005432,-38.062271,155.465668,-201.603424,60.18768,24.830126,12.915765,9.620208,-1.0,-1.0,101.634094,-0.412201,-0.009226,0.015936,-0.729388
207152.094842,-0.10073889000000001,-0.16046217000000002,-9.82406754,0.003964,-0.001958,0.003515,-38.017776,155.251892,-201.651306,60.18768,24.830126,12.915765,9.620208,-1.0,-1.0,101.634094,-0.412201,-0.009219,0.015946,-0.72938
207152.114823,-0.08308089000000002,-0.15433092,-9.828109260000002,0.003908,-0.000604,0.003727,-38.006531,155.46698,-201.850479,60.18768,24.830126,12.915765,9.620208,-1.0,-1.0,101.634094,-0.412201,-0.009231,0.015965,-0.729384
207152.134805,-0.09190989000000001,-0.16121754000000002,-9.81464013,0.003977,0.002151,0.00414,-37.996765,155.452377,-201.748764,60.18768,24.830126,12.915765,9.620208,-1.0,-1.0,101.634094,-0.412201,-0.009223,0.015966,-0.729394
207152.154786,-0.09236115,-0.16750575,-9.836045550000001,0.003764,0.00031,0.003246,-37.780136,155.763367,-201.354828,60.18768,24.830126,12.915765,9.620208,-1.0,-1.0,101.634094,-0.412201,-0.009202,0.015967,-0.729389
207152.174768,-0.08935929000000001,-0.15253569,-9.820025820000001,0.001928,-0.000789,0.004782,-37.999023,155.374054,-201.856567,60.18768,24.830126,12.915765,9.620208,-1.0,-1.0,101.634201,-0.422771,-0.009206,0.015981,-0.7294
207152.19475,-0.09236115,-0.164808,-9.821821049999999,0.004075,-0.000917,0.005053,-37.764603,155.550034,-201.690186,60.18768,24.830126,12.915765,9.620208,-1.0,-1.0,101.634201,-0.422771,-0.009213,0.015969,-0.729393
207152.214731,-0.09131148000000001,-0.15762708,-9.819731520000001,0.003554,-0.000302,0.004596,-38.090942,155.490387,-201.621475,60.18768,24.830126,12.915765,9.620208,-1.0,-1.0,101.634201,-0.422771,-0.009218,0.015963,-0.729388
207152.254695,-0.0925083,-0.15942231,-9.82062423,0.002641,-0.001429,0.005246,-38.051712,155.392303,-201.975128,60.18768,24.830126,12.915765,9.620208,-1.0,-1.0,101.634201,-0.422771,-0.009213,0.015966,-0.729388
207152.254695,-0.0925083,-0.15942231,-9.82062423,0.002641,-0.001429,0.005246,-38.051712,155.392303,-201.975128,60.18768,24.830126,12.915765,9.620208,-1.0,-1.0,101.634201,-0.422771,-0.009213,0.015966,-0.729388
207152.294658,-0.08846658,-0.15538058999999999,-9.82377324,0.002003,-0.000158,0.006093,-38.113144,155.518799,-201.853775,60.18768,24.830126,12.915765,9.620208,-1.0,-1.0,101.634201,-0.422771,-0.009197,0.015978,-0.729377
207152.294658,-0.08846658,-0.15538058999999999,-9.82377324,0.002003,-0.000158,0.006093,-38.113144,155.518799,-201.853775,60.18768,24.830126,12.915765,9.620208,-1.0,-1.0,101.634201,-0.422771,-0.009197,0.015978,-0.729377
207152.334621,-0.09415638000000001,-0.16675038,-9.80925444,0.002121,-3.5e-05,0.004337,-37.894485,155.246002,-202.058914,60.18768,24.830126,12.915765,9.620208,-1.0,-1.0,101.634201,-0.422771,-0.009215,0.015967,-0.729365
207152.334621,-0.09415638000000001,-0.16675038,-9.80925444,0.002121,-3.5e-05,0.004337,-37.894485,155.246002,-202.058914,60.18768,24.830126,12.915765,9.620208,-1.0,-1.0,101.634201,-0.422771,-0.009215,0.015967,-0.729365
207152.374584,-0.08442486000000002,-0.15732297,-9.82241946,0.00376,0.00053,0.003323,-37.900803,155.556091,-202.072708,60.18768,24.830126,12.915765,9.620208,-1.0,-1.0,101.634201,-0.422771,-0.009216,0.015935,-0.729355
207152.374584,-0.08442486000000002,-0.15732297,-9.82241946,0.00376,0.00053,0.003323,-37.900803,155.556091,-202.072708,60.18768,24.830126,12.915765,9.620208,-1.0,-1.0,101.634201,-0.422771,-0.009216,0.015935,-0.729355
207152.414548,-0.0928026,-0.15088761,-9.8245188,0.002476,-0.00014,0.006034,-37.70401,155.624802,-201.786453,60.18768,24.830126,12.915765,9.620208,-1.0,-1.0,101.634201,-0.422771,-0.00923,0.01592,-0.729359
207152.414548,-0.0928026,-0.15088761,-9.8245188,0.002476,-0.00014,0.006034,-37.70401,155.624802,-201.786453,60.18768,24.830126,12.915765,9.620208,-1.0,-1.0,101.634201,-0.422771,-0.00923,0.01592,-0.729359
207152.454511,-0.0953532,-0.16106057999999998,-9.820477080000002,0.00252,-0.001625,0.006098,-37.769043,155.723602,-201.951416,60.18768,24.830126,12.915765,9.620208,-1.0,-1.0,101.634201,-0.422771,-0.009236,0.015923,-0.729345
207152.454511,-0.0953532,-0.16106057999999998,-9.820477080000002,0.00252,-0.001625,0.006098,-37.769043,155.723602,-201.951416,60.18768,24.830126,12.915765,9.620208,-1.0,-1.0,101.634201,-0.422771,-0.009236,0.015923,-0.729345
207152.494474,-0.08906499000000001,-0.16720164,-9.8242245,0.001892,0.000526,0.005157,-37.785767,155.41069,-201.669022,60.18768,24.830126,12.915765,9.620208,-1.0,-1.0,101.634201,-0.422771,-0.009279,0.015922,-0.729348
207152.494474,-0.08906499000000001,-0.16720164,-9.8242245,0.001892,0.000526,0.005157,-37.785767,155.41069,-201.669022,60.18768,24.830126,12.915765,9.620208,-1.0,-1.0,101.634201,-0.422771,-0.009279,0.015922,-0.729348
207152.534437,-0.10269108,-0.16151184,-9.81554265,0.003162,0.000288,0.004962,-37.931976,155.688126,-201.926498,60.18768,24.830126,12.915765,9.620208,-1.0,-1.0,101.634201,-0.422771,-0.009286,0.015917,-0.729307
207152.534437,-0.10269108,-0.16151184,-9.81554265,0.003162,0.000288,0.004962,-37.931976,155.688126,-201.926498,60.18768,24.830126,12.915765,9.620208,-1.0,-1.0,101.634201,-0.422771,-0.009286,0.015917,-0.729307
207152.574401,-0.10238697000000001,-0.15148602000000003,-9.814787280000001,0.002368,-0.001346,0.004711,-37.796204,155.46376,-201.961121,60.18768,24.830126,12.915765,9.620208,-1.0,-1.0,101.634201,-0.422771,-0.009301,0.015917,-0.729301
207152.594382,-0.09385227000000002,-0.15956946,-9.828266220000001,0.003536,0.000423,0.0029,-37.773666,155.549332,-201.847794,60.18768,24.830126,12.915765,9.620208,-1.0,-1.0,101.634201,-0.422771,-0.009301,0.015923,-0.729292
207152.614364,-0.10253412,-0.16466085000000003,-9.81928026,0.002641,-0.001638,0.004573,-37.796341,155.552063,-201.873795,60.18768,24.830126,12.915765,9.620208,-1.0,-1.0,101.634201,-0.422771,-0.009295,0.015921,-0.729292
207152.634346,-0.09684432000000001,-0.14983794,-9.82107549,0.004056,-3.4e-05,0.005162,-38.024719,155.287827,-201.639313,60.18768,24.830126,12.915765,9.620208,-1.0,-1.0,101.634201,-0.422771,-0.009313,0.015922,-0.729292
207152.654327,-0.09669717,-0.15747012000000002,-9.83290635,0.001901,0.000272,0.005272,-38.022018,155.278931,-202.075195,60.18768,24.830126,12.915765,9.620208,-1.0,-1.0,101.634201,-0.422771,-0.009305,0.015939,-0.729282
207152.674309,-0.10119015,-0.15433092,-9.81254079,0.002702,0.001737,0.004246,-37.978546,155.516373,-201.83609,60.18768,24.830126,12.915765,9.620208,-1.0,-1.0,101.634201,-0.422771,-0.009301,0.015929,-0.729273
207152.694291,-0.0928026,-0.15926535,-9.827363700000001,0.002055,-0.001663,0.003861,-37.67421,155.567017,-201.769638,60.18768,24.830126,12.915765,9.620208,-1.0,-1.0,101.634201,-0.422771,-0.009301,0.015926,-0.729283
207152.714272,-0.08726976,-0.14969079000000002,-9.814787280000001,0.003891,-0.000463,0.003546,-38.038956,155.298752,-201.851242,60.18768,24.830126,12.915765,9.620208,-1.0,-1.0,101.634201,-0.422771,-0.009316,0.01593,-0.729283
207152.734254,-0.09176274,-0.15492933000000003,-9.81823059,0.003035,0.00043,0.004823,-38.103897,155.520599,-201.677185,60.18768,24.830126,12.915765,9.620208,-1.0,-1.0,101.634201,-0.422771,-0.009316,0.015946,-0.72929
207152.754236,-0.09968922,-0.15478218000000002,-9.823469130000001,0.002896,-0.000861,0.005222,-37.934113,155.390228,-201.788254,60.18768,24.830126,12.915765,9.620208,-1.0,-1.0,101.634201,-0.422771,-0.009312,0.01595,-0.729297
207152.774217,-0.09460764,-0.15282999000000003,-9.81554265,0.003161,-0.000345,0.004157,-37.832092,155.622101,-201.931915,60.18768,24.830126,12.915765,9.620208,-1.0,-1.0,101.634201,-0.422771,-0.009321,0.015954,-0.729299
207152.814181,-0.09580446000000001,-0.16794720000000002,-9.819133110000001,0.002657,-0.001162,0.004592,-38.107162,155.306458,-201.632294,60.18768,24.830126,12.915765,9.620208,-1.0,-1.0,101.634201,-0.422771,-0.009302,0.015929,-0.729288
207152.814181,-0.09580446000000001,-0.16794720000000002,-9.819133110000001,0.002657,-0.001162,0.004592,-38.107162,155.306458,-201.632294,60.18768,24.830126,12.915765,9.620208,-1.0,-1.0,101.634201,-0.422771,-0.009302,0.015929,-0.729288
207152.854144,-0.08232552,-0.15971661,-9.816582510000002,0.003857,-0.001099,0.006192,-37.81572,155.499557,-201.629196,60.18768,24.830126,12.915765,9.620208,-1.0,-1.0,101.634201,-0.422771,-0.009311,0.015924,-0.72929
207152.854144,-0.08232552,-0.15971661,-9.816582510000002,0.003857,-0.001099,0.006192,-37.81572,155.499557,-201.629196,60.18768,24.830126,12.915765,9.620208,-1.0,-1.0,101.634201,-0.422771,-0.009311,0.015924,-0.72929
207152.874126,-0.09176274,-0.15193728,-9.81,0.003406,0.000382,0.003604,-37.991425,155.402023,-201.69812,60.18768,24.830126,12.915765,9.620208,-1.0,-1.0,101.634201,-0.422771,-0.009327,0.015931,-0.729289
207152.894107,-0.07844076,-0.16870257000000002,-9.81418887,0.00299,0.00012,0.005478,-37.809525,155.515976,-201.682816,60.18768,24.830126,12.915765,9.620208,-1.0,-1.0,101.634201,-0.422771,-0.009321,0.015937,-0.729288
207152.93407,-0.09475478999999999,-0.16151184,-9.81793629,0.00135,0.000945,0.003024,-38.024918,155.463638,-201.478241,60.18768,24.830126,12.915765,9.620208,-1.0,-1.0,101.634201,-0.422771,-0.00931,0.015931,-0.729284
207152.93407,-0.09475478999999999,-0.16151184,-9.81793629,0.00135,0.000945,0.003024,-38.024918,155.463638,-201.478241,60.18768,24.830126,12.915765,9.620208,-1.0,-1.0,101.634201,-0.422771,-0.00931,0.015931,-0.729284
207152.974034,-0.09026181000000001,-0.16091343000000002,-9.81299205,0.00306,-0.000239,0.003974,-38.135284,155.46579,-201.784058,60.18768,24.830126,12.915765,9.620208,-1.0,-1.0,101.634201,-0.422771,-0.0093,0.015917,-0.729292
207152.974034,-0.09026181000000001,-0.16091343000000002,-9.81299205,0.00306,-0.000239,0.003974,-38.135284,155.46579,-201.784058,60.18768,24.830126,12.915765,9.620208,-1.0,-1.0,101.634201,-0.422771,-0.0093,0.015917,-0.729292
207153.013997,-0.09640287000000002,-0.15701886,-9.81733788,0.003254,-0.000644,0.004165,-37.762466,155.555237,-201.527145,60.18768,24.830126,12.915765,9.620208,-1.0,-1.0,101.634201,-0.422771,-0.009313,0.015915,-0.729283
207153.013997,-0.09640287000000002,-0.15701886,-9.81733788,0.003254,-0.000644,0.004165,-37.762466,155.555237,-201.527145,60.18768,24.830126,12.915765,9.620208,-1.0,-1.0,101.634201,-0.422771,-0.009313,0.015915,-0.729283
207153.05396,-0.09116433,-0.15402681000000001,-9.82062423,0.003415,-0.000555,0.004826,-37.941742,155.531265,-201.488785,60.18768,24.830126,12.915765,9.620208,-1.0,-1.0,101.634201,-0.422771,-0.009301,0.015932,-0.729279
207153.05396,-0.09116433,-0.15402681000000001,-9.82062423,0.003415,-0.000555,0.004826,-37.941742,155.531265,-201.488785,60.18768,24.830126,12.915765,9.620208,-1.0,-1.0,101.634201,-0.422771,-0.009301,0.015932,-0.729279
207153.093924,-0.09415638000000001,-0.15747012000000002,-9.819427410000001,0.002724,-0.001747,0.004125,-37.952637,155.13858,-201.653351,60.18768,24.830126,12.915765,9.620208,-1.0,-1.0,101.634201,-0.422771,-0.009304,0.01594,-0.729266
207153.113905,-0.09220419,-0.15792138000000003,-9.829610190000002,0.002959,-0.000441,0.005441,-37.963333,155.343918,-201.71814,60.18768,24.830126,12.915765,9.620208,-1.0,-1.0,101.634201,-0.422771,-0.009319,0.015937,-0.729264
207153.133887,-0.09984618,-0.16136469,-9.81554265,0.00331,1.2e-05,0.00327,-37.978882,155.30368,-201.709503,60.18768,24.830126,12.915765,9.620208,-1.0,-1.0,101.634201,-0.422771,-0.009336,0.015933,-0.72925
207153.153869,-0.08861373,-0.15387966,-9.823174830000001,0.00325,4e-05,0.002823,-37.983765,155.292831,-201.545502,60.18768,24.830126,12.915765,9.620208,-1.0,-1.0,101.634201,-0.422771,-0.00934,0.015943,-0.729248
207153.17385,-0.09265545000000001,-0.16181595000000001,-9.80940159,0.003568,-0.000357,0.005105,-37.888733,155.266708,-201.728485,60.18768,24.830126,12.915765,9.620208,-1.0,-1.0,101.634201,-0.422771,-0.009347,0.015943,-0.729249
207153.193832,-0.08951625,-0.16570071,-9.818377739999999,0.003564,0.001398,0.003523,-38.126419,155.158737,-201.679871,60.18768,24.830126,12.915765,9.620208,-1.0,-1.0,101.634201,-0.422771,-0.009353,0.015938,-0.729248
207153.213814,-0.09310671,-0.16315992,-9.819731520000001,0.003379,-0.000183,0.004629,-37.932266,155.157867,-201.803146,60.18768,24.830126,12.915765,9.620208,-1.0,-1.0,101.634201,-0.422771,-0.009345,0.01593,-0.729246
207153.233795,-0.08576883000000002,-0.15522363,-9.822272309999999,0.002595,-0.001827,0.004799,-38.126694,155.087173,-201.804855,60.18768,24.830126,12.915765,9.620208,-1.0,-1.0,101.634201,-0.422771,-0.00935,0.015929,-0.729248
207153.253777,-0.08607294000000001,-0.16211025,-9.82511721,0.003147,0.000389,0.004722,-38.179047,155.350952,-201.522675,60.18768,24.830126,12.915765,9.620208,-1.0,-1.0,101.634254,-0.422771,-0.009343,0.015918,-0.729246
207153.273759,-0.09056592000000001,-0.14654178,-9.803711790000001,0.002641,-0.000242,0.005923,-37.985443,155.364029,-201.970261,60.18768,24.830126,12.915765,9.620208,-1.0,-1.0,101.634254,-0.422771,-0.009332,0.015925,-0.729241
207153.29374,-0.08471916,-0.15926535,-9.819731520000001,0.002088,-0.00211,0.002768,-37.922546,155.354752,-201.730637,60.18768,24.830126,12.915765,9.620208,-1.0,-1.0,101.634254,-0.422771,-0.009343,0.015923,-0.72924
207153.313722,-0.08262963000000001,-0.16136469,-9.82542132,0.001792,-0.001398,0.004797,-38.1698,154.944794,-201.68486,60.18768,24.830126,12.915765,9.620208,-1.0,-1.0,101.634254,-0.422771,-0.009351,0.015923,-0.729259
207153.333704,-0.08772102000000001,-0.15193728,-9.816739470000002,0.003403,-9.9e-05,0.004291,-38.248932,155.180725,-201.611984,60.18768,24.830126,12.915765,9.620208,-1.0,-1.0,101.634254,-0.422771,-0.009357,0.01592,-0.729262
207153.353685,-0.1013373,-0.15986376000000002,-9.82721655,0.003269,-0.001491,0.004788,-38.131409,155.435959,-201.724915,60.18768,24.830126,12.915765,9.620208,-1.0,-1.0,101.634254,-0.422771,-0.009349,0.015926,-0.729261
207153.373667,-0.09744273000000002,-0.15043635,-9.81763218,0.002992,-0.000708,0.006514,-38.112686,155.423019,-201.524673,60.18768,24.830126,12.915765,9.620208,-1.0,-1.0,101.634254,-0.422771,-0.009359,0.015933,-0.729266
207153.41363,-0.09295956000000001,-0.15552774,-9.82631403,0.003036,-0.002045,0.004591,-38.311768,155.070053,-201.705124,60.18768,24.830126,12.915765,9.620208,-1.0,-1.0,101.634254,-0.422771,-0.009347,0.015943,-0.729271
207153.41363,-0.09295956000000001,-0.15552774,-9.82631403,0.003036,-0.002045,0.004591,-38.311768,155.070053,-201.705124,60.18768,24.830126,12.915765,9.620208,-1.0,-1.0,101.634254,-0.422771,-0.009347,0.015943,-0.729271
207153.453594,-0.08322804,-0.16151184,-9.82631403,0.002831,-0.000161,0.004088,-38.13739,155.3582,-201.782852,60.18768,24.830126,12.915765,9.620208,-1.0,-1.0,101.634254,-0.422771,-0.009367,0.015944,-0.729271
207153.453594,-0.08322804,-0.16151184,-9.82631403,0.002831,-0.000161,0.004088,-38.13739,155.3582,-201.782852,60.18768,24.830126,12.915765,9.620208,-1.0,-1.0,101.634254,-0.422771,-0.009367,0.015944,-0.729271
207153.493557,-0.10583028000000001,-0.15342840000000002,-9.81014715,0.002034,0.000846,0.003928,-38.283234,155.432205,-201.586914,60.18768,24.830126,12.915765,9.620208,-1.0,-1.0,101.634254,-0.422771,-0.009372,0.015932,-0.729283
207153.493557,-0.10583028000000001,-0.15342840000000002,-9.81014715,0.002034,0.000846,0.003928,-38.283234,155.432205,-201.586914,60.18768,24.830126,12.915765,9.620208,-1.0,-1.0,101.634254,-0.422771,-0.009372,0.015932,-0.729283
207153.53352,-0.0953532,-0.16450389,-9.820182780000001,0.002341,-0.000252,0.004153,-37.971542,155.470978,-201.787216,60.18768,24.830126,12.915765,9.620208,-1.0,-1.0,101.634254,-0.422771,-0.009357,0.015908,-0.729287
207153.53352,-0.0953532,-0.16450389,-9.820182780000001,0.002341,-0.000252,0.004153,-37.971542,155.470978,-201.787216,60.18768,24.830126,12.915765,9.620208,-1.0,-1.0,101.634254,-0.422771,-0.009357,0.015908,-0.729287
207153.573484,-0.09220419,-0.16211025,-9.820182780000001,0.00455,-0.001824,0.004402,-38.094757,155.310928,-201.529327,60.18768,24.830126,12.915765,9.620208,-1.0,-1.0,101.634254,-0.422771,-0.00935,0.015915,-0.729281
207153.573484,-0.09220419,-0.16211025,-9.820182780000001,0.00455,-0.001824,0.004402,-38.094757,155.310928,-201.529327,60.18768,24.830126,12.915765,9.620208,-1.0,-1.0,101.634254,-0.422771,-0.00935,0.015915,-0.729281
207153.613447,-0.09564750000000001,-0.16720164,-9.80535987,0.002616,0.000336,0.00437,-37.996658,155.446533,-201.759262,60.18768,24.830126,12.915765,9.620208,-1.0,-1.0,101.634254,-0.422771,-0.009358,0.015937,-0.729284
207153.613447,-0.09564750000000001,-0.16720164,-9.80535987,0.002616,0.000336,0.00437,-37.996658,155.446533,-201.759262,60.18768,24.830126,12.915765,9.620208,-1.0,-1.0,101.634254,-0.422771,-0.009358,0.015937,-0.729284
207153.65341,-0.08023599000000001,-0.16615197,-9.827814960000001,0.003916,0.000482,0.005006,-38.068161,155.304733,-201.722229,60.18768,24.830126,12.915765,9.620208,-1.0,-1.0,101.634254,-0.422771,-0.009357,0.015936,-0.729274
207153.673392,-0.08921214,-0.14998509000000002,-9.81793629,0.004392,0.000846,0.003483,-38.073135,155.410477,-201.908737,60.18768,24.830126,12.915765,9.620208,-1.0,-1.0,101.634254,-0.422771,-0.009349,0.015942,-0.72928
207153.693374,-0.10492776000000001,-0.16989939,-9.811500930000001,0.003111,-0.000523,0.005738,-38.082825,155.647385,-201.613297,60.18768,24.830126,12.915765,9.620208,-1.0,-1.0,101.634254,-0.422771,-0.009335,0.015939,-0.729294
207153.713355,-0.0928026,-0.14729715000000002,-9.813139200000002,0.003034,-7.7e-05,0.005575,-38.056686,155.458298,-201.365631,60.18768,24.830126,12.915765,9.620208,-1.0,-1.0,101.634254,-0.422771,-0.009335,0.015933,-0.729281
207153.733337,-0.09805095000000001,-0.15447807000000002,-9.8245188,0.003441,0.001168,0.005446,-37.839981,155.564209,-201.926575,60.18768,24.830126,12.915765,9.620208,-1.0,-1.0,101.634254,-0.422771,-0.00934,0.015935,-0.729292
207153.753319,-0.09160578000000001,-0.15986376000000002,-9.82257642,0.004258,0.000178,0.005958,-37.907104,155.564011,-201.433762,60.18768,24.830126,12.915765,9.620208,-1.0,-1.0,101.634254,-0.422771,-0.009322,0.015938,-0.729285
207153.7733,-0.08592579,-0.17858124000000003,-9.8216739,0.003324,-0.001498,0.005161,-38.122849,155.49498,-201.861969,60.18768,24.830126,12.915765,9.620208,-1.0,-1.0,101.634254,-0.422771,-0.009318,0.015938,-0.729271
207153.793282,-0.08576883000000002,-0.15956946,-9.823626090000001,0.00331,-0.000933,0.003748,-38.143066,155.414886,-202.00412,60.18768,24.830126,12.915765,9.620208,-1.0,-1.0,101.634254,-0.422771,-0.009319,0.015928,-0.729267
207153.813264,-0.09160578000000001,-0.16361118,-9.81509139,0.002245,-0.000726,0.0048,-37.897659,155.335388,-201.897354,60.18768,24.830126,12.915765,9.620208,-1.0,-1.0,101.634254,-0.422771,-0.009321,0.015919,-0.729268
207153.833245,-0.11451213,-0.15986376000000002,-9.81344331,0.002849,-0.000908,0.003847,-38.037079,155.22438,-201.78038,60.18768,24.830126,12.915765,9.620208,-1.0,-1.0,101.634254,-0.422771,-0.00932,0.015909,-0.729267
207153.853227,-0.09116433,-0.16361118,-9.83350476,0.001823,-0.000836,0.00591,-38.036621,155.487671,-202.044525,60.18768,24.830126,12.915765,9.620208,-1.0,-1.0,101.634254,-0.422771,-0.009328,0.015908,-0.729279
207153.873209,-0.09759969,-0.15552774,-9.82886463,0.002875,-0.001206,0.004049,-37.995117,155.465942,-201.937851,60.18768,24.830126,12.915765,9.620208,-1.0,-1.0,101.634254,-0.422771,-0.009327,0.015903,-0.729275
207153.89319,-0.09430353000000001,-0.16765290000000002,-9.82796211,0.004761,2e-06,0.00415,-37.98175,155.694519,-201.867081,60.18768,24.830126,12.915765,9.620208,-1.0,-1.0,101.634254,-0.422771,-0.009335,0.015902,-0.729279
207153.913172,-0.0868185,-0.16151184,-9.822870720000001,0.004204,-0.00145,0.005155,-38.026108,155.489471,-202.246109,60.18768,24.830126,12.915765,9.620208,-1.0,-1.0,101.634254,-0.422771,-0.009326,0.015922,-0.729285
207153.933154,-0.09939492000000001,-0.15897105,-9.82616688,0.00267,-0.000647,0.004966,-38.266769,155.276474,-202.008118,60.18768,24.830126,12.915765,9.620208,-1.0,-1.0,101.634254,-0.422771,-0.009331,0.015932,-0.729284
207153.953135,-0.09595161,-0.14998509000000002,-9.819731520000001,0.005101,-0.000591,0.00322,-38.068848,155.384262,-202.08316,60.18768,24.830126,12.915765,9.620208,-1.0,-1.0,101.634254,-0.422771,-0.009328,0.01594,-0.729284
207153.973117,-0.09205704,-0.15657741,-9.825715620000002,0.00373,-0.001345,0.004983,-38.137665,155.393906,-202.019028,60.18768,24.830126,12.915765,9.620208,-1.0,-1.0,101.634254,-0.422771,-0.009334,0.015953,-0.729299
207153.993099,-0.08996751000000001,-0.16241436,-9.82152675,0.002602,9.3e-05,0.005168,-38.173737,155.395416,-201.59906,60.18768,24.830126,12.915765,9.620208,-1.0,-1.0,101.634254,-0.422771,-0.009343,0.015955,-0.729301
207154.013081,-0.10164141000000002,-0.15492933000000003,-9.811049670000001,0.002756,-0.002006,0.005998,-38.041351,155.452637,-201.820633,60.18768,24.830126,12.915765,9.620208,-1.0,-1.0,101.634254,-0.422771,-0.009354,0.01595,-0.729295
207154.033062,-0.08772102000000001,-0.16540641000000003,-9.81763218,0.003621,-0.000612,0.004344,-38.184174,155.237854,-201.952576,60.18768,24.830126,12.915765,9.620208,-1.0,-1.0,101.634254,-0.422771,-0.009374,0.015957,-0.729281
207154.053044,-0.08188407,-0.16555356,-9.833053500000002,0.002902,-0.000266,0.005577,-38.404022,155.31041,-201.851974,60.18768,24.830126,12.915765,9.620208,-1.0,-1.0,101.634254,-0.422771,-0.009369,0.015951,-0.729269
207154.073026,-0.09924777,-0.1651023,-9.808803180000002,0.002027,0.000602,0.003988,-38.279617,155.474319,-201.81897,60.18768,24.830126,12.915765,9.620208,-1.0,-1.0,101.634254,-0.422771,-0.009366,0.015943,-0.729258
207154.093007,-0.09954207,-0.15612615,-9.8245188,0.003199,0.000138,0.005127,-38.20195,155.40918,-201.998245,60.18768,24.830126,12.915765,9.620208,-1.0,-1.0,101.634254,-0.422771,-0.009363,0.01594,-0.729268
207154.132971,-0.09086022,-0.16780005,-9.8128449,0.004019,-0.000171,0.004167,-38.117676,155.568954,-201.735504,60.18768,24.830126,12.915765,9.620208,-1.0,-1.0,101.634254,-0.422771,-0.009358,0.015937,-0.729265
207154.132971,-0.09086022,-0.16780005,-9.8128449,0.004019,-0.000171,0.004167,-38.117676,155.568954,-201.735504,60.18768,24.830126,12.915765,9.620208,-1.0,-1.0,101.634254,-0.422771,-0.009358,0.015937,-0.729265
207154.172934,-0.09729558,-0.16106057999999998,-9.81718092,0.003762,-0.00066,0.005936,-38.081665,155.439407,-201.923706,60.18768,24.830126,12.915765,9.620208,-1.0,-1.0,101.634254,-0.422771,-0.009362,0.015937,-0.729265
207154.172934,-0.09729558,-0.16106057999999998,-9.81718092,0.003762,-0.00066,0.005936,-38.081665,155.439407,-201.923706,60.18768,24.830126,12.915765,9.620208,-1.0,-1.0,101.634254,-0.422771,-0.009362,0.015937,-0.729265
207154.212897,-0.09265545000000001,-0.16091343000000002,-9.81928026,0.003631,6.3e-05,0.005302,-38.056183,155.491699,-201.767975,60.18768,24.830126,12.915765,9.620208,-1.0,-1.0,101.634254,-0.422771,-0.009354,0.015953,-0.729238
207154.212897,-0.09265545000000001,-0.16091343000000002,-9.81928026,0.003631,6.3e-05,0.005302,-38.056183,155.491699,-201.767975,60.18768,24.830126,12.915765,9.620208,-1.0,-1.0,101.634254,-0.422771,-0.009354,0.015953,-0.729238
207154.252861,-0.08891784,-0.1562733,-9.82466595,0.004102,-0.000894,0.00448,-37.969894,155.57341,-201.876144,60.18768,24.830126,12.915765,9.620208,-1.0,-1.0,101.634254,-0.422771,-0.009365,0.015973,-0.729232
207154.252861,-0.08891784,-0.1562733,-9.82466595,0.004102,-0.000894,0.00448,-37.969894,155.57341,-201.876144,60.18768,24.830126,12.915765,9.620208,-1.0,-1.0,101.634254,-0.422771,-0.009365,0.015973,-0.729232
207154.292824,-0.0865242,-0.15208443,-9.81464013,0.000783,0.000951,0.005472,-37.88562,155.368179,-201.550858,60.18768,24.830126,12.915765,9.620208,-1.0,-1.0,101.634254,-0.422771,-0.009371,0.015962,-0.729227
207154.292824,-0.0865242,-0.15208443,-9.81464013,0.000783,0.000951,0.005472,-37.88562,155.368179,-201.550858,60.18768,24.830126,12.915765,9.620208,-1.0,-1.0,101.634254,-0.422771,-0.009371,0.015962,-0.729227
207154.332788,-0.09026181000000001,-0.16211025,-9.82946304,0.002897,-0.000271,0.003589,-38.066086,155.475372,-201.297806,60.18768,24.830126,12.915765,9.620208,-1.0,-1.0,101.634254,-0.422771,-0.009361,0.015943,-0.729223
207154.332788,-0.09026181000000001,-0.16211025,-9.82946304,0.002897,-0.000271,0.003589,-38.066086,155.475372,-201.297806,60.18768,24.830126,12.915765,9.620208,-1.0,-1.0,101.634254,-0.422771,-0.009361,0.015943,-0.729223
207154.372751,-0.0836793,-0.15507648,-9.82257642,0.003822,-0.001325,0.004604,-38.02916,155.394531,-201.752563,60.18768,24.830126,12.915765,9.620208,-1.0,-1.0,101.634254,-0.422771,-0.009363,0.015934,-0.729247
207154.372751,-0.0836793,-0.15507648,-9.82257642,0.003822,-0.001325,0.004604,-38.02916,155.394531,-201.752563,60.18768,24.830126,12.915765,9.620208,-1.0,-1.0,101.634254,-0.422771,-0.009363,0.015934,-0.729247
207154.412714,-0.10642868999999999,-0.14714019,-9.816582510000002,0.001548,-0.000506,0.003988,-38.008652,155.263412,-201.963272,60.18768,24.830126,12.915765,9.620208,-1.0,-1.0,101.634254,-0.422771,-0.00936,0.015937,-0.729243
207154.432696,-0.08143281,-0.16870257000000002,-9.823469130000001,0.004432,-5.7e-05,0.005179,-37.966293,155.462616,-201.871567,60.18768,24.830126,12.915765,9.620208,-1.0,-1.0,101.634254,-0.422771,-0.009364,0.015928,-0.729259
207154.452678,-0.09071307,-0.16256151,-9.80490861,0.003552,0.000272,0.004238,-37.871948,155.533997,-201.644897,60.18768,24.830126,12.915765,9.620208,-1.0,-1.0,101.634254,-0.422771,-0.009374,0.015941,-0.729261
207154.452678,-0.09071307,-0.16256151,-9.80490861,0.003552,0.000272,0.004238,-37.871948,155.533997,-201.644897,60.18768,24.830126,12.915765,9.620208,-1.0,-1.0,101.634254,-0.422771,-0.009374,0.015941,-0.729261
207154.492641,-0.08801532000000001,-0.15268284000000001,-9.82796211,0.003979,0.000183,0.006091,-37.97081,155.555435,-201.842239,60.18768,24.830126,12.915765,9.620208,-1.0,-1.0,101.634254,-0.422771,-0.00937,0.015954,-0.72926
207154.512623,-0.09655002,-0.15942231,-9.811500930000001,0.004079,-0.000793,0.005037,-37.820877,155.231735,-201.935074,60.18768,24.830126,12.915765,9.620208,-1.0,-1.0,101.634254,-0.422771,-0.009372,0.015956,-0.729241
207154.532605,-0.08172711,-0.16825131000000002,-9.824371650000002,0.002134,0.00011,0.004554,-37.915085,155.297134,-201.869339,60.18768,24.830126,12.915765,9.620208,-1.0,-1.0,101.634254,-0.422771,-0.009379,0.015979,-0.729228
207154.552586,-0.09669717,-0.16660323000000002,-9.803113380000001,0.004355,-0.00145,0.004499,-37.820816,155.390076,-202.091171,60.18768,24.830126,12.915765,9.620208,-1.0,-1.0,101.634254,-0.422771,-0.009372,0.01597,-0.729232
207154.572568,-0.09295956000000001,-0.164808,-9.816141060000001,0.003443,-0.000669,0.005817,-37.925674,155.437988,-201.754745,60.18768,24.830126,12.915765,9.620208,-1.0,-1.0,101.634254,-0.422771,-0.009384,0.015973,-0.729235
207154.572568,-0.09295956000000001,-0.164808,-9.816141060000001,0.003443,-0.000669,0.005817,-37.925674,155.437988,-201.754745,60.18768,24.830126,12.915765,9.620208,-1.0,-1.0,101.634254,-0.422771,-0.009384,0.015973,-0.729235
207154.612531,-0.10208286000000001,-0.1591182,-9.82616688,0.004646,-0.000863,0.003517,-38.059418,155.29599,-201.634506,60.18768,24.830126,12.915765,9.620208,-1.0,-1.0,101.634254,-0.422771,-0.009402,0.015987,-0.72923
207154.632513,-0.08712261,-0.15762708,-9.821821049999999,0.004678,-0.000141,0.003887,-38.138138,155.405182,-201.72171,60.18768,24.830126,12.915765,9.620208,-1.0,-1.0,101.634254,-0.422771,-0.009408,0.015992,-0.729247
207154.652495,-0.0925083,-0.16615197,-9.81299205,0.003063,-0.00042,0.005236,-38.099594,155.185699,-202.05014,60.18768,24.830126,12.915765,9.620208,-1.0,-1.0,101.634254,-0.422771,-0.009408,0.016003,-0.729253
207154.672476,-0.09939492000000001,-0.16315992,-9.82377324,0.00266,0.000205,0.004273,-37.916702,155.47081,-201.98642,60.18768,24.830126,12.915765,9.620208,-1.0,-1.0,101.634254,-0.422771,-0.009401,0.015999,-0.729254
207154.692458,-0.08726976,-0.15717582000000002,-9.81733788,0.002569,-0.001001,0.003873,-38.054413,155.42392,-202.075409,60.18768,24.830126,12.915765,9.620208,-1.0,-1.0,101.634254,-0.422771,-0.00941,0.015996,-0.729251
207154.71244,-0.09340101,-0.15373251000000002,-9.82841337,0.003588,-0.000394,0.00454,-38.106201,155.230698,-201.989716,60.18768,24.830126,12.915765,9.620208,-1.0,-1.0,101.634254,-0.422771,-0.009415,0.016001,-0.729265
207154.732422,-0.09220419,-0.14849397,-9.831709530000001,0.003127,-0.001023,0.003187,-38.227966,155.537506,-201.882797,60.18768,24.830126,12.915765,9.620208,-1.0,-1.0,101.634254,-0.422771,-0.009412,0.016001,-0.729258
207154.752403,-0.09295956000000001,-0.16046217000000002,-9.81868185,0.003623,-0.001516,0.004183,-38.140396,155.453293,-201.910873,60.18768,24.830126,12.915765,9.620208,-1.0,-1.0,101.634254,-0.422771,-0.009414,0.016009,-0.729279
207154.772385,-0.08712261,-0.16301277,-9.81688662,0.003072,-0.001206,0.004892,-38.360046,155.233719,-201.92276,60.18768,24.830126,12.915765,9.620208,-1.0,-1.0,101.634254,-0.422771,-0.009417,0.016001,-0.729276
207154.792366,-0.09131148000000001,-0.16361118,-9.82556847,0.003502,-0.000579,0.005077,-38.135101,155.444702,-201.711487,60.18768,24.830126,12.915765,9.620208,-1.0,-1.0,101.634254,-0.422771,-0.009424,0.016002,-0.729283
207154.812347,-0.08442486000000002,-0.14789556,-9.81554265,0.002467,-0.000177,0.00411,-38.097549,155.517853,-201.734573,60.18768,24.830126,12.915765,9.620208,-1.0,-1.0,101.634254,-0.422771,-0.009437,0.016006,-0.729287
207154.852311,-0.09564750000000001,-0.15447807000000002,-9.820182780000001,0.003909,0.000372,0.005176,-37.768433,155.57074,-201.730682,60.18768,24.830126,12.915765,9.620208,-1.0,-1.0,101.634254,-0.422771,-0.009442,0.015996,-0.72931
207154.852311,-0.09564750000000001,-0.15447807000000002,-9.820182780000001,0.003909,0.000372,0.005176,-37.768433,155.57074,-201.730682,60.18768,24.830126,12.915765,9.620208,-1.0,-1.0,101.634254,-0.422771,-0.009442,0.015996,-0.72931
207154.892274,-0.08772102000000001,-0.15253569,-9.824371650000002,0.00415,-0.001268,0.003687,-38.047363,155.388123,-201.607529,60.18768,24.830126,12.915765,9.620208,-1.0,-1.0,101.634254,-0.422771,-0.009427,0.016003,-0.729313
207154.892274,-0.08772102000000001,-0.15253569,-9.824371650000002,0.00415,-0.001268,0.003687,-38.047363,155.388123,-201.607529,60.18768,24.830126,12.915765,9.620208,-1.0,-1.0,101.634254,-0.422771,-0.009427,0.016003,-0.729313
207154.932238,-0.08846658,-0.15747012000000002,-9.82886463,0.003914,-0.000537,0.004972,-38.147202,155.452576,-201.929398,60.18768,24.830126,12.915765,9.620208,-1.0,-1.0,101.634254,-0.422771,-0.009415,0.016019,-0.729309
207154.932238,-0.08846658,-0.15747012000000002,-9.82886463,0.003914,-0.000537,0.004972,-38.147202,155.452576,-201.929398,60.18768,24.830126,12.915765,9.620208,-1.0,-1.0,101.634254,-0.422771,-0.009415,0.016019,-0.729309
207154.972201,-0.08576883000000002,-0.15387966,-9.822870720000001,0.004322,-1e-06,0.004518,-38.046738,155.312469,-201.829041,60.18768,24.830126,12.915765,9.620208,-1.0,-1.0,101.634254,-0.422771,-0.009407,0.016043,-0.729321
207154.972201,-0.08576883000000002,-0.15387966,-9.822870720000001,0.004322,-1e-06,0.004518,-38.046738,155.312469,-201.829041,60.18768,24.830126,12.915765,9.620208,-1.0,-1.0,101.634254,-0.422771,-0.009407,0.016043,-0.729321
207155.012165,-0.09145863,-0.14818986,-9.82511721,0.002459,-0.001053,0.004748,-38.164169,155.344788,-201.742371,60.18768,24.830126,12.915765,9.620208,-1.0,-1.0,101.634254,-0.422771,-0.0094,0.016049,-0.729322
207155.012165,-0.09145863,-0.14818986,-9.82511721,0.002459,-0.001053,0.004748,-38.164169,155.344788,-201.742371,60.18768,24.830126,12.915765,9.620208,-1.0,-1.0,101.634254,-0.422771,-0.0094,0.016049,-0.729322
207155.012165,-0.09145863,-0.14818986,-9.82511721,0.002459,-0.001053,0.004748,-38.164169,155.344788,-201.742371,60.18768,24.830126,12.915765,9.620208,-1.0,-1.0,101.634254,-0.422771,-0.0094,0.016049,-0.729322
207155.012165,-0.09145863,-0.14818986,-9.82511721,0.002459,-0.001053,0.004748,-38.164169,155.344788,-201.742371,60.18768,24.830126,12.915765,9.620208,-1.0,-1.0,101.634254,-0.422771,-0.0094,0.016049,-0.729322
207155.012165,-0.09145863,-0.14818986,-9.82511721,0.002459,-0.001053,0.004748,-38.164169,155.344788,-201.742371,60.18768,24.830126,12.915765,9.620208,-1.0,-1.0,101.634254,-0.422771,-0.0094,0.016049,-0.729322
207155.012165,-0.09145863,-0.14818986,-9.82511721,0.002459,-0.001053,0.004748,-38.164169,155.344788,-201.742371,60.18768,24.830126,12.915765,9.620208,-1.0,-1.0,101.634254,-0.422771,-0.0094,0.016049,-0.729322
207155.012165,-0.09145863,-0.14818986,-9.82511721,0.002459,-0.001053,0.004748,-38.164169,155.344788,-201.742371,60.18768,24.830126,12.915765,9.620208,-1.0,-1.0,101.634254,-0.422771,-0.0094,0.016049,-0.729322
207155.032146,-0.08861373,-0.15268284000000001,-9.827069400000001,0.002036,-0.001363,0.004806,-38.153244,155.410355,-201.574036,60.18768,24.830126,12.915765,9.620208,-1.0,-1.0,101.634254,-0.422771,-0.009399,0.016034,-0.729326
207155.092092,-0.09805095000000001,-0.16151184,-9.82032993,0.003476,0.000345,0.004356,-38.044861,155.371201,-201.929199,60.18768,24.830126,12.915765,9.620208,-1.0,-1.0,101.634254,-0.422771,-0.009402,0.016027,-0.729305
207155.172018,-0.09026181000000001,-0.1619631,-9.819731520000001,0.004797,0.0007,0.004263,-37.913162,155.242386,-201.832657,60.18768,24.830126,12.915765,9.620208,-1.0,-1.0,101.634254,-0.422771,-0.00942,0.01603,-0.72929
207155.211982,-0.08502327,-0.16106057999999998,-9.8216739,0.003004,-6.8e-05,0.004788,-38.039261,155.44368,-201.440399,60.187678,24.830128,12.941236,19.207949,-1.0,-1.0,101.634254,-0.422771,-0.009418,0.016053,-0.729284
207155.231964,-0.08412075,-0.15806852999999998,-9.82631403,0.002427,-3e-06,0.005621,-38.045792,155.204514,-202.002548,60.187678,24.830128,12.941236,19.207949,-1.0,-1.0,101.634254,-0.422771,-0.009418,0.016047,-0.729289
207155.251945,-0.08756406,-0.15507648,-9.82930608,0.003341,-0.001584,0.004365,-38.123871,155.240326,-201.887955,60.187678,24.830128,12.941236,19.207949,-1.0,-1.0,101.634254,-0.422771,-0.009408,0.01603,-0.729272
207155.271927,-0.09236115,-0.15942231,-9.815689800000001,0.004188,-0.000357,0.003591,-38.116043,155.503586,-201.8909,60.187678,24.830128,12.941236,19.207949,-1.0,-1.0,101.634254,-0.422771,-0.009404,0.016034,-0.729266
207155.291909,-0.09595161,-0.15777423000000002,-9.82122264,0.003867,-0.000866,0.003009,-38.050446,155.313461,-201.837387,60.187678,24.830128,12.941236,19.207949,-1.0,-1.0,101.634254,-0.422771,-0.009396,0.016036,-0.729256
207155.311891,-0.09011466,-0.14909238,-9.81793629,0.002994,-0.000509,0.003151,-38.114578,155.23938,-202.067261,60.187678,24.830128,12.941236,19.207949,-1.0,-1.0,101.634254,-0.422771,-0.009393,0.016041,-0.729267
207155.331872,-0.1013373,-0.16361118,-9.820477080000002,0.003099,-0.000364,0.005562,-38.062363,155.540634,-201.852219,60.187678,24.830128,12.941236,19.207949,-1.0,-1.0,101.634254,-0.422771,-0.009395,0.016045,-0.729265
207155.371836,-0.10523187,-0.15986376000000002,-9.823174830000001,0.00403,-0.001516,0.003804,-37.988602,155.321228,-202.104553,60.187678,24.830128,12.941236,19.207949,-1.0,-1.0,101.634254,-0.422771,-0.009413,0.016016,-0.729256
207155.371836,-0.10523187,-0.15986376000000002,-9.823174830000001,0.00403,-0.001516,0.003804,-37.988602,155.321228,-202.104553,60.187678,24.830128,12.941236,19.207949,-1.0,-1.0,101.634254,-0.422771,-0.009413,0.016016,-0.729256
207155.411799,-0.09849240000000001,-0.16091343000000002,-9.817033770000002,0.003502,-0.000437,0.005171,-38.232895,155.394409,-202.197525,60.187678,24.830128,12.941236,19.207949,-1.0,-1.0,101.634308,-0.428055,-0.009416,0.016004,-0.729272
207155.411799,-0.09849240000000001,-0.16091343000000002,-9.817033770000002,0.003502,-0.000437,0.005171,-38.232895,155.394409,-202.197525,60.187678,24.830128,12.941236,19.207949,-1.0,-1.0,101.634308,-0.428055,-0.009416,0.016004,-0.729272
207155.451763,-0.09265545000000001,-0.16930098,-9.824371650000002,0.001889,-0.000437,0.00301,-37.926834,155.398804,-201.954544,60.187678,24.830128,12.941236,19.207949,-1.0,-1.0,101.634308,-0.428055,-0.009407,0.016006,-0.729276
207155.451763,-0.09265545000000001,-0.16930098,-9.824371650000002,0.001889,-0.000437,0.00301,-37.926834,155.398804,-201.954544,60.187678,24.830128,12.941236,19.207949,-1.0,-1.0,101.634308,-0.428055,-0.009407,0.016006,-0.729276
207155.491726,-0.09490194,-0.16390548000000002,-9.82257642,0.002086,-0.000133,0.004331,-38.071808,155.384186,-201.914352,60.187678,24.830128,12.941236,19.207949,-1.0,-1.0,101.634308,-0.428055,-0.009404,0.015988,-0.729309
207155.491726,-0.09490194,-0.16390548000000002,-9.82257642,0.002086,-0.000133,0.004331,-38.071808,155.384186,-201.914352,60.187678,24.830128,12.941236,19.207949,-1.0,-1.0,101.634308,-0.428055,-0.009404,0.015988,-0.729309
207155.53169,-0.08756406,-0.16390548000000002,-9.82241946,0.003512,-0.000742,0.003774,-38.145508,155.515503,-201.647186,60.187678,24.830128,12.941236,19.207949,-1.0,-1.0,101.634308,-0.428055,-0.009396,0.015987,-0.729328
207155.53169,-0.08756406,-0.16390548000000002,-9.82241946,0.003512,-0.000742,0.003774,-38.145508,155.515503,-201.647186,60.187678,24.830128,12.941236,19.207949,-1.0,-1.0,101.634308,-0.428055,-0.009396,0.015987,-0.729328
207155.571653,-0.09640287000000002,-0.16870257000000002,-9.8302086,0.00259,0.000118,0.004978,-38.149582,155.528702,-201.468872,60.187678,24.830128,12.941236,19.207949,-1.0,-1.0,101.634308,-0.428055,-0.009388,0.015989,-0.729332
207155.571653,-0.09640287000000002,-0.16870257000000002,-9.8302086,0.00259,0.000118,0.004978,-38.149582,155.528702,-201.468872,60.187678,24.830128,12.941236,19.207949,-1.0,-1.0,101.634308,-0.428055,-0.009388,0.015989,-0.729332
207155.611617,-0.0754389,-0.16165899,-9.83274939,0.002355,-0.001533,0.004742,-38.039124,155.665375,-201.930878,60.187678,24.830128,12.941236,19.207949,-1.0,-1.0,101.634308,-0.428055,-0.009379,0.015993,-0.729325
207155.611617,-0.0754389,-0.16165899,-9.83274939,0.002355,-0.001533,0.004742,-38.039124,155.665375,-201.930878,60.187678,24.830128,12.941236,19.207949,-1.0,-1.0,101.634308,-0.428055,-0.009379,0.015993,-0.729325
207155.65158,-0.09729558,-0.17453952,-9.803260530000001,0.002178,-0.001961,0.004139,-38.137375,155.528915,-201.874252,60.187678,24.830128,12.941236,19.207949,-1.0,-1.0,101.634308,-0.428055,-0.009362,0.015993,-0.729331
207155.65158,-0.09729558,-0.17453952,-9.803260530000001,0.002178,-0.001961,0.004139,-38.137375,155.528915,-201.874252,60.187678,24.830128,12.941236,19.207949,-1.0,-1.0,101.634308,-0.428055,-0.009362,0.015993,-0.729331
207155.691544,-0.09116433,-0.14864112000000002,-9.8302086,0.003845,0.000372,0.005432,-38.019333,155.802078,-202.209793,60.187678,24.830128,12.941236,19.207949,-1.0,-1.0,101.634308,-0.428055,-0.009358,0.015976,-0.729346
207155.691544,-0.09116433,-0.14864112000000002,-9.8302086,0.003845,0.000372,0.005432,-38.019333,155.802078,-202.209793,60.187678,24.830128,12.941236,19.207949,-1.0,-1.0,101.634308,-0.428055,-0.009358,0.015976,-0.729346
207155.731507,-0.10463346000000001,-0.15732297,-9.824822910000002,0.003309,-0.001124,0.003645,-37.736893,155.613373,-202.184402,60.187678,24.830128,12.941236,19.207949,-1.0,-1.0,101.634308,-0.428055,-0.009359,0.015969,-0.72936
207155.731507,-0.10463346000000001,-0.15732297,-9.824822910000002,0.003309,-0.001124,0.003645,-37.736893,155.613373,-202.184402,60.187678,24.830128,12.941236,19.207949,-1.0,-1.0,101.634308,-0.428055,-0.009359,0.015969,-0.72936
207155.771471,-0.08172711,-0.16091343000000002,-9.8302086,0.004227,-0.000456,0.00368,-37.886215,155.390945,-202.201492,60.187678,24.830128,12.941236,19.207949,-1.0,-1.0,101.634308,-0.428055,-0.009355,0.01597,-0.729369
207155.791452,-0.09640287000000002,-0.16301277,-9.81868185,0.003396,0.00092,0.005522,-38.192017,155.424988,-201.757874,60.187678,24.830128,12.941236,19.207949,-1.0,-1.0,101.634308,-0.428055,-0.009358,0.015982,-0.729378
207155.811435,-0.09056592000000001,-0.15747012000000002,-9.812246490000001,0.001956,-0.000688,0.002997,-38.127441,155.373001,-202.040695,60.187678,24.830128,12.941236,19.207949,-1.0,-1.0,101.634308,-0.428055,-0.00935,0.015994,-0.729366
207155.831417,-0.09086022,-0.16270866,-9.819133110000001,0.002028,-0.001348,0.005808,-38.046219,155.464294,-201.484879,60.187678,24.830128,12.941236,19.207949,-1.0,-1.0,101.634308,-0.428055,-0.009354,0.015993,-0.729382
207155.851399,-0.09714843000000001,-0.15942231,-9.82990449,0.003113,-0.000509,0.004159,-38.111237,155.49028,-201.862274,60.187678,24.830128,12.941236,19.207949,-1.0,-1.0,101.634308,-0.428055,-0.009362,0.015988,-0.729381
207155.87138,-0.0896634,-0.15701886,-9.82616688,0.003674,-0.000106,0.004466,-38.086487,155.39389,-201.816528,60.187678,24.830128,12.941236,19.207949,-1.0,-1.0,101.634308,-0.428055,-0.009359,0.015991,-0.72938
207155.891362,-0.08876088000000001,-0.15552774,-9.82631403,0.003932,0.001685,0.003873,-38.151779,155.27948,-201.89975,60.187678,24.830128,12.941236,19.207949,-1.0,-1.0,101.634308,-0.428055,-0.009352,0.015988,-0.729381
207155.911344,-0.07993188000000001,-0.16286562,-9.81344331,0.002608,-0.000345,0.004755,-38.016876,155.529007,-202.006012,60.187678,24.830128,12.941236,19.207949,-1.0,-1.0,101.634308,-0.428055,-0.009348,0.01598,-0.729378
207155.931326,-0.08712261,-0.17064495000000002,-9.82241946,0.003875,-0.000955,0.005873,-38.028397,155.26181,-201.764648,60.187678,24.830128,12.941236,19.207949,-1.0,-1.0,101.634308,-0.428055,-0.009357,0.015978,-0.729374
207155.951307,-0.09385227000000002,-0.16375833,-9.82975734,0.004271,-0.000409,0.003961,-37.99086,155.239319,-201.912888,60.187678,24.830128,12.941236,19.207949,-1.0,-1.0,101.634308,-0.428055,-0.009361,0.015984,-0.72937
207155.971289,-0.09400923,-0.16974243,-9.81464013,0.00409,0.000162,0.004946,-38.087723,155.388184,-201.941681,60.187678,24.830128,12.941236,19.207949,-1.0,-1.0,101.634308,-0.428055,-0.009358,0.015979,-0.729377
207155.991271,-0.09595161,-0.16361118,-9.82796211,0.002464,-0.000704,0.004333,-37.978821,155.40419,-201.972702,60.187678,24.830128,12.941236,19.207949,-1.0,-1.0,101.634308,-0.428055,-0.009358,0.015975,-0.729372
207156.011253,-0.08322804,-0.16211025,-9.81538569,0.002978,0.000278,0.003296,-37.893951,155.197128,-201.724564,60.187678,24.830128,12.941236,19.207949,-1.0,-1.0,101.634308,-0.428055,-0.009359,0.015963,-0.729364
207156.031234,-0.09116433,-0.16720164,-9.81868185,0.00152,-0.00033,0.003592,-37.981888,155.421646,-202.253616,60.187678,24.830128,12.941236,19.207949,-1.0,-1.0,101.634308,-0.428055,-0.009358,0.015956,-0.729366
207156.051216,-0.09968922,-0.14639463000000003,-9.80865603,0.00351,0.000362,0.003141,-38.090179,155.242584,-201.952835,60.187678,24.830128,12.941236,19.207949,-1.0,-1.0,101.634308,-0.428055,-0.009369,0.015936,-0.729376
207156.09118,-0.09445068,-0.16270866,-9.82990449,0.002035,-0.001513,0.004506,-38.106979,155.084091,-201.896652,60.187678,24.830128,12.941236,19.207949,-1.0,-1.0,101.634308,-0.428055,-0.009347,0.015955,-0.729376
207156.09118,-0.09445068,-0.16270866,-9.82990449,0.002035,-0.001513,0.004506,-38.106979,155.084091,-201.896652,60.187678,24.830128,12.941236,19.207949,-1.0,-1.0,101.634308,-0.428055,-0.009347,0.015955,-0.729376
207156.131143,-0.0865242,-0.16121754000000002,-9.82751085,0.001795,-0.000286,0.005879,-38.108521,155.434494,-202.004074,60.187678,24.830128,12.941236,19.207949,-1.0,-1.0,101.634308,-0.428055,-0.009334,0.015969,-0.729382
207156.131143,-0.0865242,-0.16121754000000002,-9.82751085,0.001795,-0.000286,0.005879,-38.108521,155.434494,-202.004074,60.187678,24.830128,12.941236,19.207949,-1.0,-1.0,101.634308,-0.428055,-0.009334,0.015969,-0.729382
207156.171107,-0.10568313,-0.14983794,-9.832602240000002,0.004955,0.000816,0.002603,-38.230591,155.179657,-201.896652,60.187678,24.830128,12.941236,19.207949,-1.0,-1.0,101.634308,-0.428055,-0.009331,0.01593,-0.72938
207156.171107,-0.10568313,-0.14983794,-9.832602240000002,0.004955,0.000816,0.002603,-38.230591,155.179657,-201.896652,60.187678,24.830128,12.941236,19.207949,-1.0,-1.0,101.634308,-0.428055,-0.009331,0.01593,-0.72938
207156.21107,-0.09071307,-0.16420959000000002,-9.830502899999999,0.002748,-0.000412,0.004178,-38.126404,155.475433,-202.025665,60.187678,24.830128,12.941236,19.207949,-1.0,-1.0,101.634308,-0.428055,-0.009321,0.015935,-0.72938
207156.21107,-0.09071307,-0.16420959000000002,-9.830502899999999,0.002748,-0.000412,0.004178,-38.126404,155.475433,-202.025665,60.187678,24.830128,12.941236,19.207949,-1.0,-1.0,101.634308,-0.428055,-0.009321,0.015935,-0.72938
207156.251034,-0.08876088000000001,-0.16750575,-9.82406754,0.003657,-0.000271,0.003786,-38.029449,155.446716,-202.312973,60.187678,24.830128,12.941236,19.207949,-1.0,-1.0,101.634308,-0.428055,-0.009329,0.015931,-0.729372
207156.251034,-0.08876088000000001,-0.16750575,-9.82406754,0.003657,-0.000271,0.003786,-38.029449,155.446716,-202.312973,60.187678,24.830128,12.941236,19.207949,-1.0,-1.0,101.634308,-0.428055,-0.009329,0.015931,-0.729372
207156.290997,-0.09026181000000001,-0.16046217000000002,-9.80416305,0.004124,0.00015,0.004967,-38.110168,155.475677,-202.049423,60.187678,24.830128,12.941236,19.207949,-1.0,-1.0,101.634308,-0.428055,-0.009319,0.015932,-0.729368
207156.290997,-0.09026181000000001,-0.16046217000000002,-9.80416305,0.004124,0.00015,0.004967,-38.110168,155.475677,-202.049423,60.187678,24.830128,12.941236,19.207949,-1.0,-1.0,101.634308,-0.428055,-0.009319,0.015932,-0.729368
207156.330961,-0.08696565,-0.15492933000000003,-9.81733788,0.003124,-0.001801,0.004416,-38.236343,155.268265,-202.115677,60.187678,24.830128,12.941236,19.207949,-1.0,-1.0,101.634308,-0.428055,-0.009327,0.015932,-0.72937
207156.330961,-0.08696565,-0.15492933000000003,-9.81733788,0.003124,-0.001801,0.004416,-38.236343,155.268265,-202.115677,60.187678,24.830128,12.941236,19.207949,-1.0,-1.0,101.634308,-0.428055,-0.009327,0.015932,-0.72937
207156.370924,-0.0928026,-0.16750575,-9.818829,0.003486,-0.001548,0.004496,-38.099594,155.414261,-201.720734,60.187678,24.830128,12.941236,19.207949,-1.0,-1.0,101.634308,-0.428055,-0.009333,0.015918,-0.729382
207156.370924,-0.0928026,-0.16750575,-9.818829,0.003486,-0.001548,0.004496,-38.099594,155.414261,-201.720734,60.187678,24.830128,12.941236,19.207949,-1.0,-1.0,101.634308,-0.428055,-0.009333,0.015918,-0.729382
207156.410888,-0.08712261,-0.16091343000000002,-9.81299205,0.00488,-0.000531,0.00477,-37.966476,155.661545,-201.64386,60.187678,24.830128,12.941236,19.207949,-1.0,-1.0,101.634308,-0.428055,-0.009343,0.015912,-0.729397
207156.410888,-0.08712261,-0.16091343000000002,-9.81299205,0.00488,-0.000531,0.00477,-37.966476,155.661545,-201.64386,60.187678,24.830128,12.941236,19.207949,-1.0,-1.0,101.634308,-0.428055,-0.009343,0.015912,-0.729397
207156.450851,-0.08772102000000001,-0.15478218000000002,-9.830807010000001,0.002486,0.00022,0.004851,-38.095062,155.408112,-202.052902,60.187678,24.830128,12.941236,19.207949,-1.0,-1.0,101.634308,-0.428055,-0.009343,0.015936,-0.729387
207156.450851,-0.08772102000000001,-0.15478218000000002,-9.830807010000001,0.002486,0.00022,0.004851,-38.095062,155.408112,-202.052902,60.187678,24.830128,12.941236,19.207949,-1.0,-1.0,101.634308,-0.428055,-0.009343,0.015936,-0.729387
207156.490815,-0.09805095000000001,-0.16810416,-9.82197801,0.003606,0.001148,0.00574,-37.994568,155.298996,-201.990479,60.187678,24.830128,12.941236,19.207949,-1.0,-1.0,101.63456,-0.449194,-0.009322,0.015956,-0.729384
207156.490815,-0.09805095000000001,-0.16810416,-9.82197801,0.003606,0.001148,0.00574,-37.994568,155.298996,-201.990479,60.187678,24.830128,12.941236,19.207949,-1.0,-1.0,101.63456,-0.449194,-0.009322,0.015956,-0.729384
207156.530778,-0.09968922,-0.16944813,-9.82542132,0.004347,0.000184,0.005907,-37.813553,155.362885,-201.742447,60.187678,24.830128,12.941236,19.207949,-1.0,-1.0,101.63456,-0.449194,-0.009304,0.015964,-0.729378
207156.530778,-0.09968922,-0.16944813,-9.82542132,0.004347,0.000184,0.005907,-37.813553,155.362885,-201.742447,60.187678,24.830128,12.941236,19.207949,-1.0,-1.0,101.63456,-0.449194,-0.009304,0.015964,-0.729378
207156.570742,-0.0981981,-0.14804271000000002,-9.81987867,0.003744,0.00045,0.005721,-37.739166,155.421982,-201.877914,60.187678,24.830128,12.941236,19.207949,-1.0,-1.0,101.63456,-0.449194,-0.009293,0.015982,-0.729359
207156.570742,-0.0981981,-0.14804271000000002,-9.81987867,0.003744,0.00045,0.005721,-37.739166,155.421982,-201.877914,60.187678,24.830128,12.941236,19.207949,-1.0,-1.0,101.63456,-0.449194,-0.009293,0.015982,-0.729359
207156.610705,-0.09490194,-0.16630893,-9.81464013,0.003355,0.000542,0.003904,-37.853424,155.441422,-202.100845,60.187678,24.830128,12.941236,19.207949,-1.0,-1.0,101.63456,-0.449194,-0.00928,0.015993,-0.72935
207156.610705,-0.09490194,-0.16630893,-9.81464013,0.003355,0.000542,0.003904,-37.853424,155.441422,-202.100845,60.187678,24.830128,12.941236,19.207949,-1.0,-1.0,101.63456,-0.449194,-0.00928,0.015993,-0.72935
207156.650669,-0.0981981,-0.14923953,-9.82272357,0.003704,-0.001439,0.004341,-38.018173,155.373871,-201.795212,60.187678,24.830128,12.941236,19.207949,-1.0,-1.0,101.63456,-0.449194,-0.00927,0.016012,-0.729352
207156.670651,-0.1013373,-0.16241436,-9.81733788,0.003866,-0.000467,0.003582,-38.147781,155.322617,-202.116592,60.187678,24.830128,12.941236,19.207949,-1.0,-1.0,101.63456,-0.449194,-0.009269,0.016024,-0.729342
207156.690632,-0.10073889000000001,-0.16959528000000001,-9.81538569,0.002653,0.000607,0.003803,-37.83226,155.458771,-201.839722,60.187678,24.830128,12.941236,19.207949,-1.0,-1.0,101.63456,-0.449194,-0.009256,0.016033,-0.72935
207156.710614,-0.10044459,-0.14459940000000002,-9.823174830000001,0.002723,-0.000648,0.0055,-38.011368,155.436188,-202.168243,60.187678,24.830128,12.941236,19.207949,-1.0,-1.0,101.63456,-0.449194,-0.009253,0.016041,-0.729346
207156.730596,-0.09550035000000001,-0.15478218000000002,-9.82122264,0.002963,-0.00046,0.003957,-37.957275,155.349075,-202.068176,60.187678,24.830128,12.941236,19.207949,-1.0,-1.0,101.63456,-0.449194,-0.009253,0.016045,-0.729343
207156.750578,-0.09774684000000002,-0.15792138000000003,-9.80865603,0.002075,-0.000915,0.00279,-38.007812,155.211853,-202.144592,60.187678,24.830128,12.941236,19.207949,-1.0,-1.0,101.63456,-0.449194,-0.009254,0.016038,-0.729344
207156.770559,-0.09924777,-0.16061913,-9.81434583,0.003367,0.000302,0.004479,-37.832214,155.475739,-201.943008,60.187678,24.830128,12.941236,19.207949,-1.0,-1.0,101.63456,-0.449194,-0.009252,0.016044,-0.729351
207156.790541,-0.09116433,-0.14519781,-9.80490861,0.003024,0.000559,0.003898,-37.90419,155.551483,-202.310257,60.187678,24.830128,12.941236,19.207949,-1.0,-1.0,101.63456,-0.449194,-0.009249,0.016042,-0.72935
207156.810522,-0.08981055,-0.16016787000000002,-9.818534699999999,0.002214,-0.000975,0.004629,-37.869186,155.53627,-201.832428,60.187678,24.830128,12.941236,19.207949,-1.0,-1.0,101.63456,-0.449194,-0.009239,0.016041,-0.72936
207156.830504,-0.09520605,-0.16061913,-9.82721655,0.00336,-9.3e-05,0.002551,-37.805847,155.500305,-202.131805,60.187678,24.830128,12.941236,19.207949,-1.0,-1.0,101.63456,-0.449194,-0.009239,0.016044,-0.729365
207156.850485,-0.08876088000000001,-0.15552774,-9.817033770000002,0.00359,-0.000988,0.004779,-37.816437,155.485092,-202.017059,60.187678,24.830128,12.941236,19.207949,-1.0,-1.0,101.63456,-0.449194,-0.00924,0.016052,-0.72938
207156.890449,-0.09236115,-0.1619631,-9.823174830000001,0.002793,-0.001485,0.003357,-37.850693,155.612122,-201.904816,60.187678,24.830128,12.941236,19.207949,-1.0,-1.0,101.63456,-0.449194,-0.009236,0.016058,-0.729391
207156.890449,-0.09236115,-0.1619631,-9.823174830000001,0.002793,-0.001485,0.003357,-37.850693,155.612122,-201.904816,60.187678,24.830128,12.941236,19.207949,-1.0,-1.0,101.63456,-0.449194,-0.009236,0.016058,-0.729391
207156.930413,-0.08712261,-0.15387966,-9.829610190000002,0.0015,-0.001849,0.00571,-38.067703,155.492462,-201.770035,60.187678,24.830128,12.941236,19.207949,-1.0,-1.0,101.63456,-0.449194,-0.009251,0.016068,-0.729399
207156.930413,-0.08712261,-0.15387966,-9.829610190000002,0.0015,-0.001849,0.00571,-38.067703,155.492462,-201.770035,60.187678,24.830128,12.941236,19.207949,-1.0,-1.0,101.63456,-0.449194,-0.009251,0.016068,-0.729399
207156.930413,-0.08712261,-0.15387966,-9.829610190000002,0.0015,-0.001849,0.00571,-38.067703,155.492462,-201.770035,60.187678,24.830128,12.941236,19.207949,-1.0,-1.0,101.63456,-0.449194,-0.009251,0.016068,-0.729399
207156.970376,-0.1041822,-0.16884972000000004,-9.831552570000001,0.002182,0.00094,0.004328,-37.940872,155.522659,-202.069077,60.187678,24.830128,12.941236,19.207949,-1.0,-1.0,101.63456,-0.449194,-0.009248,0.01607,-0.729376
207157.01034,-0.09310671,-0.16226721000000002,-9.82526436,0.003495,9.9e-05,0.004274,-38.044846,155.544815,-202.024231,60.187678,24.830128,12.941236,19.207949,-1.0,-1.0,101.63456,-0.449194,-0.009244,0.016083,-0.729374
207157.01034,-0.09310671,-0.16226721000000002,-9.82526436,0.003495,9.9e-05,0.004274,-38.044846,155.544815,-202.024231,60.187678,24.830128,12.941236,19.207949,-1.0,-1.0,101.63456,-0.449194,-0.009244,0.016083,-0.729374
207157.050303,-0.0953532,-0.15402681000000001,-9.82241946,0.004108,-0.000676,0.005365,-37.958374,155.293747,-201.791489,60.187678,24.830128,12.941236,19.207949,-1.0,-1.0,101.63456,-0.449194,-0.009253,0.016094,-0.729385
207157.050303,-0.0953532,-0.15402681000000001,-9.82241946,0.004108,-0.000676,0.005365,-37.958374,155.293747,-201.791489,60.187678,24.830128,12.941236,19.207949,-1.0,-1.0,101.63456,-0.449194,-0.009253,0.016094,-0.729385
207157.090267,-0.08935929000000001,-0.14789556,-9.832602240000002,0.002476,-4.5e-05,0.004185,-38.065384,155.574432,-201.892471,60.187678,24.830128,12.941236,19.207949,-1.0,-1.0,101.63456,-0.449194,-0.009253,0.016084,-0.729359
207157.090267,-0.08935929000000001,-0.14789556,-9.832602240000002,0.002476,-4.5e-05,0.004185,-38.065384,155.574432,-201.892471,60.187678,24.830128,12.941236,19.207949,-1.0,-1.0,101.63456,-0.449194,-0.009253,0.016084,-0.729359
207157.13023,-0.09759969,-0.15672456,-9.823469130000001,0.000848,-0.001023,0.004423,-38.113663,155.643845,-201.51976,60.187678,24.830128,12.941236,19.207949,-1.0,-1.0,101.63456,-0.449194,-0.009254,0.016083,-0.729364
207157.13023,-0.09759969,-0.15672456,-9.823469130000001,0.000848,-0.001023,0.004423,-38.113663,155.643845,-201.51976,60.187678,24.830128,12.941236,19.207949,-1.0,-1.0,101.63456,-0.449194,-0.009254,0.016083,-0.729364
207157.170194,-0.09236115,-0.15253569,-9.82078119,0.003679,0.00014,0.003643,-38.180344,155.543869,-201.839172,60.187678,24.830128,12.941236,19.207949,-1.0,-1.0,101.63456,-0.449194,-0.009256,0.016059,-0.729338
207157.170194,-0.09236115,-0.15253569,-9.82078119,0.003679,0.00014,0.003643,-38.180344,155.543869,-201.839172,60.187678,24.830128,12.941236,19.207949,-1.0,-1.0,101.63456,-0.449194,-0.009256,0.016059,-0.729338
207157.210157,-0.09609875999999999,-0.16016787000000002,-9.820477080000002,0.003106,0.000215,0.003281,-38.023453,155.17308,-201.918732,60.187678,24.830128,12.941236,19.207949,-1.0,-1.0,101.63456,-0.449194,-0.009249,0.016059,-0.729344
207157.210157,-0.09609875999999999,-0.16016787000000002,-9.820477080000002,0.003106,0.000215,0.003281,-38.023453,155.17308,-201.918732,60.187678,24.830128,12.941236,19.207949,-1.0,-1.0,101.63456,-0.449194,-0.009249,0.016059,-0.729344
207157.250121,-0.08876088000000001,-0.164808,-9.80191656,0.003802,0.000548,0.005953,-38.092407,155.207153,-201.665573,60.187678,24.830128,12.941236,19.207949,-1.0,-1.0,101.63456,-0.449194,-0.009246,0.016067,-0.729362
207157.250121,-0.08876088000000001,-0.164808,-9.80191656,0.003802,0.000548,0.005953,-38.092407,155.207153,-201.665573,60.187678,24.830128,12.941236,19.207949,-1.0,-1.0,101.63456,-0.449194,-0.009246,0.016067,-0.729362
207157.290084,-0.09520605,-0.15567489,-9.81344331,0.002112,-0.000689,0.00415,-38.022781,155.228668,-201.760696,60.187678,24.830128,12.941236,19.207949,-1.0,-1.0,101.63456,-0.449194,-0.00926,0.016075,-0.729336
207157.290084,-0.09520605,-0.15567489,-9.81344331,0.002112,-0.000689,0.00415,-38.022781,155.228668,-201.760696,60.187678,24.830128,12.941236,19.207949,-1.0,-1.0,101.63456,-0.449194,-0.00926,0.016075,-0.729336
207157.330048,-0.09609875999999999,-0.15956946,-9.833053500000002,0.003784,-0.001163,0.00378,-38.030472,155.42543,-201.750839,60.187678,24.830128,12.941236,19.207949,-1.0,-1.0,101.63456,-0.449194,-0.009257,0.016075,-0.729347
207157.35003,-0.08532738,-0.15538058999999999,-9.815238540000001,0.001879,-0.001416,0.003901,-38.157104,155.373306,-201.831619,60.187678,24.830128,12.941236,19.207949,-1.0,-1.0,101.63456,-0.449194,-0.009261,0.016072,-0.72935
207157.370011,-0.08726976,-0.16690734000000002,-9.82497006,0.001645,-5.3e-05,0.00358,-38.092285,155.335098,-202.056686,60.187678,24.830128,12.941236,19.207949,-1.0,-1.0,101.63456,-0.449194,-0.009268,0.016076,-0.729339
207157.389993,-0.0836793,-0.15282999000000003,-9.812246490000001,0.005267,-0.000188,0.00438,-37.99855,155.323853,-201.673019,60.187678,24.830128,12.941236,19.207949,-1.0,-1.0,101.63456,-0.449194,-0.009268,0.016068,-0.72934
207157.409975,-0.0925083,-0.16091343000000002,-9.822272309999999,0.003866,-0.001476,0.004144,-37.978699,155.442398,-201.888123,60.187678,24.830128,12.941236,19.207949,-1.0,-1.0,101.63456,-0.449194,-0.009259,0.016082,-0.729337
207157.429957,-0.08397360000000001,-0.15253569,-9.813590460000002,0.003278,-0.000417,0.004429,-38.018875,155.436234,-201.938293,60.187678,24.830128,12.941236,19.207949,-1.0,-1.0,101.63456,-0.449194,-0.009266,0.016093,-0.729328
207157.449939,-0.07993188000000001,-0.15956946,-9.8128449,0.003408,-8e-05,0.004337,-37.884277,155.329514,-202.05838,60.187678,24.830128,12.941236,19.207949,-1.0,-1.0,101.63456,-0.449194,-0.009263,0.016091,-0.729319
207157.46992,-0.08487612,-0.16734879000000003,-9.83065986,0.004057,-0.000981,0.005707,-38.128677,155.204559,-201.858215,60.187678,24.830128,12.941236,19.207949,-1.0,-1.0,101.63456,-0.449194,-0.009261,0.016099,-0.729319
207157.489902,-0.09205704,-0.15014205,-9.80969589,0.001433,-0.000363,0.002768,-38.007385,155.236923,-201.806824,60.187678,24.830128,12.941236,19.207949,-1.0,-1.0,101.63456,-0.449194,-0.009271,0.016087,-0.729313
207157.509884,-0.10073889000000001,-0.16375833,-9.81793629,0.002828,0.000534,0.005632,-38.03064,155.226486,-201.881195,60.187678,24.830128,12.941236,19.207949,-1.0,-1.0,101.63456,-0.449194,-0.009277,0.01608,-0.729322
207157.529866,-0.09056592000000001,-0.17184177000000003,-9.827069400000001,0.002952,-0.000416,0.005443,-38.158569,155.29628,-201.965302,60.187678,24.830128,12.941236,19.207949,-1.0,-1.0,101.63456,-0.449194,-0.009265,0.016082,-0.72931
207157.549847,-0.09684432000000001,-0.16002072,-9.817485030000002,0.003071,-0.000269,0.00364,-37.949387,155.407272,-201.871323,60.187678,24.830128,12.941236,19.207949,-1.0,-1.0,101.63456,-0.449194,-0.00927,0.016081,-0.729306
207157.569829,-0.08352234000000001,-0.16780005,-9.83454462,0.001372,-0.00093,0.003599,-37.95755,155.352707,-201.939713,60.187678,24.830128,12.941236,19.207949,-1.0,-1.0,101.634583,-0.449194,-0.009257,0.01608,-0.729305
207157.589811,-0.09744273000000002,-0.14385384,-9.818377739999999,0.005226,0.000325,0.005959,-38.102341,155.233429,-201.884918,60.187678,24.830128,12.941236,19.207949,-1.0,-1.0,101.634583,-0.449194,-0.009262,0.016063,-0.729298
207157.609793,-0.09325386000000001,-0.15642045000000002,-9.820025820000001,0.002866,0.000267,0.005168,-38.153137,155.472824,-201.770782,60.187678,24.830128,12.941236,19.207949,-1.0,-1.0,101.634583,-0.449194,-0.00927,0.016078,-0.729288
207157.629774,-0.09490194,-0.16106057999999998,-9.82332198,0.003919,0.00056,0.004826,-38.169968,155.172562,-201.887512,60.187678,24.830128,12.941236,19.207949,-1.0,-1.0,101.634583,-0.449194,-0.009262,0.016078,-0.729283
207157.649756,-0.08891784,-0.15433092,-9.81928026,0.003095,-0.001285,0.004797,-38.169968,155.172562,-201.887512,60.187678,24.830128,12.941236,19.207949,-1.0,-1.0,101.634583,-0.449194,-0.009264,0.016078,-0.729286
207157.669738,-0.0925083,-0.16061913,-9.81494424,0.002574,-0.00082,0.005262,-38.365707,155.25,-201.725403,60.187678,24.830128,12.941236,19.207949,-1.0,-1.0,101.634583,-0.449194,-0.009269,0.01607,-0.729277
207157.709702,-0.09325386000000001,-0.16361118,-9.822870720000001,0.003593,-0.000891,0.005112,-38.159302,155.258942,-201.851212,60.187678,24.830128,12.941236,19.207949,-1.0,-1.0,101.634583,-0.449194,-0.009245,0.016065,-0.729277
207157.729683,-0.09684432000000001,-0.16585766999999998,-9.80490861,0.004487,-0.001006,0.004938,-38.274216,155.176437,-201.789352,60.187678,24.830128,12.941236,19.207949,-1.0,-1.0,101.634583,-0.449194,-0.009249,0.016076,-0.729278
207157.749665,-0.08172711,-0.15942231,-9.8245188,0.004111,-0.000121,0.004808,-38.28624,155.371841,-201.481445,60.187678,24.830128,12.941236,19.207949,-1.0,-1.0,101.634583,-0.449194,-0.009261,0.016092,-0.729275
207157.769647,-0.08248248000000001,-0.16555356,-9.823920390000001,0.003326,-0.000226,0.005131,-38.1203,155.432053,-201.829865,60.187678,24.830128,12.941236,19.207949,-1.0,-1.0,101.634583,-0.449194,-0.009259,0.016094,-0.729273
207157.769647,-0.08248248000000001,-0.16555356,-9.823920390000001,0.003326,-0.000226,0.005131,-38.1203,155.432053,-201.829865,60.187678,24.830128,12.941236,19.207949,-1.0,-1.0,101.634583,-0.449194,-0.009259,0.016094,-0.729273
207157.809611,-0.08098155,-0.16690734000000002,-9.82646118,0.004336,-0.000702,0.004322,-38.167862,155.286667,-201.898376,60.187678,24.830128,12.941236,19.207949,-1.0,-1.0,101.634583,-0.449194,-0.009256,0.016115,-0.729252
207157.829593,-0.10088604,-0.16495515000000002,-9.820928340000002,0.003503,0.000418,0.004861,-38.156662,155.451218,-201.892578,60.187678,24.830128,12.941236,19.207949,-1.0,-1.0,101.634583,-0.449194,-0.009257,0.016131,-0.729253
207157.849575,-0.07648857,-0.15822549000000002,-9.80985285,0.002714,-0.000363,0.004839,-38.137131,155.34201,-201.642807,60.187678,24.830128,12.941236,19.207949,-1.0,-1.0,101.634583,-0.449194,-0.00925,0.016136,-0.729243
207157.869557,-0.09295956000000001,-0.16435674000000003,-9.816141060000001,0.002498,-0.001423,0.004107,-37.987579,155.425583,-201.514771,60.187678,24.830128,12.941236,19.207949,-1.0,-1.0,101.634583,-0.449194,-0.009251,0.01613,-0.729241
207157.889539,-0.10478061,-0.15717582000000002,-9.831552570000001,0.00361,-0.001181,0.005024,-38.1409,155.091309,-201.705292,60.187678,24.830128,12.941236,19.207949,-1.0,-1.0,101.634583,-0.449194,-0.009259,0.016138,-0.729244
207157.90952,-0.08292393,-0.16466085000000003,-9.8242245,0.004408,-0.001251,0.005493,-38.278702,155.010071,-202.132324,60.187678,24.830128,12.941236,19.207949,-1.0,-1.0,101.634583,-0.449194,-0.009241,0.016157,-0.729238
207157.929502,-0.08487612,-0.14818986,-9.82107549,0.003975,0.000535,0.003918,-38.124954,155.352341,-201.846451,60.187678,24.830128,12.941236,19.207949,-1.0,-1.0,101.634583,-0.449194,-0.009237,0.016168,-0.729234
207157.949484,-0.09490194,-0.16106057999999998,-9.8245188,0.002164,0.000506,0.004296,-38.060776,155.192764,-202.258972,60.187678,24.830128,12.941236,19.207949,-1.0,-1.0,101.634583,-0.449194,-0.00923,0.016171,-0.729236
207157.969466,-0.09445068,-0.16151184,-9.81464013,0.003047,-0.00068,0.003477,-38.076385,155.381714,-202.133682,60.187678,24.830128,12.941236,19.207949,-1.0,-1.0,101.634583,-0.449194,-0.009237,0.016168,-0.729241
207157.989447,-0.09265545000000001,-0.1591182,-9.813139200000002,0.0033,-0.000744,0.003817,-38.114044,155.268692,-202.039124,60.187678,24.830128,12.941236,19.207949,-1.0,-1.0,101.634583,-0.449194,-0.009239,0.016155,-0.729251
207158.029411,-0.08801532000000001,-0.15418377,-9.81538569,0.003881,-0.001263,0.005376,-38.172073,155.025009,-202.030548,60.187678,24.830128,12.941236,19.207949,-1.0,-1.0,101.634583,-0.449194,-0.009245,0.01617,-0.729231
207158.049393,-0.09325386000000001,-0.16226721000000002,-9.818377739999999,0.003692,-0.001642,0.003847,-37.947815,155.421677,-201.744492,60.187678,24.830128,12.941236,19.207949,-1.0,-1.0,101.634583,-0.449194,-0.009256,0.016157,-0.729224
207158.069375,-0.08906499000000001,-0.16645608,-9.81718092,0.00312,0.001126,0.00415,-38.186508,155.288452,-201.94722,60.187678,24.830128,12.941236,19.207949,-1.0,-1.0,101.634583,-0.449194,-0.009271,0.016171,-0.729235
207158.089356,-0.08996751000000001,-0.16106057999999998,-9.81718092,0.003207,-3e-05,0.002597,-37.875961,155.294846,-201.777039,60.187678,24.830128,12.941236,19.207949,-1.0,-1.0,101.634583,-0.449194,-0.009269,0.01617,-0.729235
207158.109338,-0.09909081000000002,-0.16256151,-9.82152675,0.004021,-0.000758,0.003896,-37.877319,155.341019,-201.856003,60.187678,24.830128,12.941236,19.207949,-1.0,-1.0,101.634583,-0.449194,-0.00927,0.016178,-0.729242
207158.12932,-0.09265545000000001,-0.14804271000000002,-9.81643536,0.003096,-0.001335,0.005852,-37.947479,155.241028,-201.718048,60.187678,24.830128,12.941236,19.207949,-1.0,-1.0,101.634583,-0.449194,-0.009275,0.016193,-0.729247
207158.149302,-0.10014048,-0.17169462000000002,-9.82122264,0.003165,0.000163,0.003058,-38.091919,155.28717,-201.762924,60.187678,24.830128,12.941236,19.207949,-1.0,-1.0,101.634583,-0.449194,-0.009275,0.016191,-0.729255
207158.169283,-0.09609875999999999,-0.16466085000000003,-9.820182780000001,0.003419,0.000319,0.003995,-37.844879,155.316925,-201.762848,60.187678,24.830128,12.941236,19.207949,-1.0,-1.0,101.634583,-0.449194,-0.009259,0.016195,-0.729266
207158.189265,-0.09744273000000002,-0.16106057999999998,-9.813139200000002,0.003006,4.4e-05,0.005327,-38.113663,155.289902,-202.097382,60.187678,24.830128,12.941236,19.207949,-1.0,-1.0,101.634583,-0.449194,-0.009252,0.016189,-0.729279
207158.209247,-0.0865242,-0.16121754000000002,-9.81164808,0.003344,-0.000761,0.005686,-37.772827,155.641083,-201.93425,60.187678,24.830128,12.941236,19.207949,-1.0,-1.0,101.634583,-0.449194,-0.009245,0.016189,-0.729282
207158.229229,-0.09220419,-0.16600482,-9.80895033,0.004149,-0.000868,0.004429,-38.237183,155.300476,-202.108597,60.187678,24.830128,12.941236,19.207949,-1.0,-1.0,101.634583,-0.449194,-0.00925,0.016206,-0.729283
207158.249211,-0.09939492000000001,-0.15313410000000002,-9.832602240000002,0.001982,-0.000505,0.003415,-38.097092,155.225922,-201.957092,60.187678,24.830128,12.941236,19.207949,-1.0,-1.0,101.634583,-0.449194,-0.00927,0.01622,-0.729286
207158.269192,-0.09100737,-0.15522363,-9.81928026,0.003813,0.000219,0.003842,-37.940277,155.565491,-201.989365,60.187678,24.830128,12.941236,19.207949,-1.0,-1.0,101.634583,-0.449194,-0.009275,0.01621,-0.729289
207158.289174,-0.08951625,-0.15282999000000003,-9.83350476,0.002231,-0.000357,0.003993,-38.092758,155.26123,-201.837936,60.187678,24.830128,12.941236,19.207949,-1.0,-1.0,101.634583,-0.449194,-0.009277,0.01621,-0.729294
207158.309156,-0.09295956000000001,-0.15866694,-9.81449298,0.002464,0.000342,0.004731,-38.138245,155.452164,-201.818848,60.187678,24.830128,12.941236,19.207949,-1.0,-1.0,101.634583,-0.449194,-0.009284,0.0162,-0.729296
207158.329138,-0.08352234000000001,-0.16495515000000002,-9.815238540000001,0.002372,-0.001179,0.005879,-38.138245,155.452164,-201.818848,60.187678,24.830128,12.941236,19.207949,-1.0,-1.0,101.634583,-0.449194,-0.009282,0.016195,-0.7293
207158.349119,-0.10403505,-0.14684589,-9.819133110000001,0.001817,-0.000361,0.003854,-38.234222,155.208771,-201.869476,60.187678,24.830128,12.941236,19.207949,-1.0,-1.0,101.634583,-0.449194,-0.009292,0.016186,-0.729281
207158.369101,-0.09640287000000002,-0.15897105,-9.83709522,0.002852,3e-05,0.004848,-37.957779,155.471176,-201.835632,60.187678,24.830128,12.941236,19.207949,-1.0,-1.0,101.634583,-0.449194,-0.009289,0.016182,-0.729285
207158.389083,-0.09580446000000001,-0.16570071,-9.823469130000001,0.002997,-0.000444,0.005734,-38.133621,155.345215,-201.887207,60.187678,24.830128,12.941236,19.207949,-1.0,-1.0,101.634583,-0.449194,-0.009278,0.016186,-0.729273
207158.409065,-0.08248248000000001,-0.16555356,-9.81808344,0.003436,-0.001024,0.00395,-38.040024,155.369446,-201.819183,60.187678,24.830128,12.941236,19.207949,-1.0,-1.0,101.634583,-0.449194,-0.009283,0.01618,-0.729264
207158.429047,-0.09744273000000002,-0.15717582000000002,-9.822272309999999,0.003748,0.000968,0.004929,-37.961517,155.397034,-201.973389,60.187678,24.830128,12.941236,19.207949,-1.0,-1.0,101.634583,-0.449194,-0.009284,0.016172,-0.729278
207158.449028,-0.09220419,-0.16076628,-9.818377739999999,0.003912,-0.000823,0.003997,-38.138214,155.314392,-202.016174,60.187678,24.830128,12.941236,19.207949,-1.0,-1.0,101.634583,-0.449194,-0.00928,0.016175,-0.729266
207158.46901,-0.0868185,-0.16406244,-9.80790066,0.004402,0.000778,0.005318,-38.040985,155.286942,-201.86319,60.187678,24.830128,12.941236,19.207949,-1.0,-1.0,101.634583,-0.449194,-0.009291,0.016177,-0.729272
207158.488992,-0.10223982000000001,-0.16435674000000003,-9.815689800000001,0.001034,-0.000195,0.00367,-38.044373,155.287842,-201.731079,60.187678,24.830128,12.941236,19.207949,-1.0,-1.0,101.634583,-0.449194,-0.009286,0.016196,-0.729256
207158.528955,-0.09430353000000001,-0.16406244,-9.81014715,0.003217,-0.000588,0.00427,-37.917023,155.29184,-201.55275,60.187678,24.830128,12.941236,19.207949,-1.0,-1.0,101.634583,-0.449194,-0.00929,0.016197,-0.72926
207158.548937,-0.09475478999999999,-0.15956946,-9.815689800000001,0.00287,0.000358,0.005043,-38.078949,155.250198,-201.462555,60.187678,24.830128,12.941236,19.207949,-1.0,-1.0,101.634583,-0.449194,-0.0093,0.016197,-0.72926
207158.568919,-0.0782838,-0.15358536,-9.82646118,0.00302,-0.000742,0.004288,-37.996216,155.406311,-201.738785,60.187678,24.830128,12.941236,19.207949,-1.0,-1.0,101.634583,-0.449194,-0.009295,0.016195,-0.729258
207158.568919,-0.0782838,-0.15358536,-9.82646118,0.00302,-0.000742,0.004288,-37.996216,155.406311,-201.738785,60.187678,24.830128,12.941236,19.207949,-1.0,-1.0,101.634583,-0.449194,-0.009295,0.016195,-0.729258
207158.608883,-0.10432935000000002,-0.16121754000000002,-9.82526436,0.003487,0.00037,0.002892,-37.825851,155.419327,-201.756699,60.187678,24.830128,12.941236,19.207949,-1.0,-1.0,101.634583,-0.449194,-0.009284,0.0162,-0.729283
207158.628864,-0.08502327,-0.16361118,-9.813590460000002,0.003694,0.000502,0.005498,-38.039154,155.233749,-201.621796,60.187678,24.830128,12.941236,19.207949,-1.0,-1.0,101.63456,-0.449194,-0.009283,0.016196,-0.7293
207158.648846,-0.09504909,-0.15672456,-9.83006145,0.002495,-0.000839,0.004424,-37.983765,155.335281,-202.03714,60.187678,24.830128,12.941236,19.207949,-1.0,-1.0,101.63456,-0.449194,-0.009282,0.016202,-0.729299
207158.668828,-0.09789399,-0.15806852999999998,-9.82497006,0.002891,-0.001795,0.005626,-38.030365,155.282608,-202.126648,60.187678,24.830128,12.941236,19.207949,-1.0,-1.0,101.63456,-0.449194,-0.009287,0.016191,-0.729311
207158.68881,-0.09071307,-0.15986376000000002,-9.80909748,0.002028,0.00066,0.004755,-37.961456,155.446869,-202.111938,60.187678,24.830128,12.941236,19.207949,-1.0,-1.0,101.63456,-0.449194,-0.009297,0.016193,-0.729322
207158.708792,-0.08607294000000001,-0.16330707,-9.807155100000001,0.003157,-0.000559,0.003485,-37.987747,155.240005,-202.136658,60.187678,24.830128,12.941236,19.207949,-1.0,-1.0,101.63456,-0.449194,-0.009296,0.016183,-0.729325
207158.728773,-0.09400923,-0.16165899,-9.81987867,0.00452,-0.001027,0.003152,-38.147079,155.251038,-201.979218,60.187678,24.830128,12.941236,19.207949,-1.0,-1.0,101.63456,-0.449194,-0.009288,0.016188,-0.729336
207158.748755,-0.09789399,-0.15866694,-9.8242245,0.004395,-0.001587,0.005672,-38.115326,155.204239,-201.523941,60.187678,24.830128,12.941236,19.207949,-1.0,-1.0,101.63456,-0.449194,-0.009281,0.016209,-0.729345
207158.768737,-0.10028763,-0.16330707,-9.813590460000002,0.00507,0.000515,0.00389,-38.02507,155.272293,-201.848862,60.187678,24.830128,12.941236,19.207949,-1.0,-1.0,101.63456,-0.449194,-0.009281,0.016209,-0.729339
207158.788719,-0.08935929000000001,-0.15897105,-9.82032993,0.003286,-0.001048,0.004337,-38.128342,155.438019,-202.166183,60.187678,24.830128,12.941236,19.207949,-1.0,-1.0,101.63456,-0.449194,-0.009283,0.016214,-0.729344
207158.8087,-0.09040896000000001,-0.16106057999999998,-9.832602240000002,0.003433,-0.000217,0.004413,-38.004257,155.333313,-202.102478,60.187678,24.830128,12.941236,19.207949,-1.0,-1.0,101.63456,-0.449194,-0.009277,0.016219,-0.729358
207158.828682,-0.09849240000000001,-0.16181595000000001,-9.81418887,0.003024,-0.000374,0.003433,-37.900757,155.31012,-201.701401,60.187678,24.830128,12.941236,19.207949,-1.0,-1.0,101.63456,-0.449194,-0.009286,0.016225,-0.729367
207158.848664,-0.10882233000000001,-0.16555356,-9.820182780000001,0.003949,-0.00017,0.005302,-38.146194,155.148392,-201.635422,60.187678,24.830128,12.941236,19.207949,-1.0,-1.0,101.63456,-0.449194,-0.009287,0.016222,-0.729376
207158.868646,-0.09864936,-0.15208443,-9.82241946,0.001825,0.000221,0.003441,-38.090408,155.195496,-202.084579,60.187678,24.830128,12.941236,19.207949,-1.0,-1.0,101.63456,-0.449194,-0.009284,0.016226,-0.729376
207158.908609,-0.08457201,-0.16406244,-9.82511721,0.004359,-0.000722,0.004106,-38.237411,155.053009,-201.797714,60.187678,24.830128,12.941236,19.207949,-1.0,-1.0,101.63456,-0.449194,-0.009277,0.016213,-0.729372
207158.928591,-0.08786817,-0.15282999000000003,-9.815689800000001,0.003103,-0.001135,0.004826,-38.211746,155.253281,-201.460846,60.187678,24.830128,12.941236,19.207949,-1.0,-1.0,101.63456,-0.449194,-0.009278,0.016224,-0.729358
207158.948573,-0.0751446,-0.16211025,-9.81494424,0.004881,-0.001232,0.003849,-38.148376,155.301895,-202.121078,60.187678,24.830128,12.941236,19.207949,-1.0,-1.0,101.63456,-0.449194,-0.00929,0.016236,-0.729361
207158.968555,-0.09205704,-0.15701886,-9.81299205,0.003414,0.00044,0.003121,-38.120178,155.408966,-201.879608,60.187678,24.830128,12.941236,19.207949,-1.0,-1.0,101.63456,-0.449194,-0.00929,0.016248,-0.729363
207158.988537,-0.08786817,-0.15088761,-9.81329616,0.005443,-0.001,0.005065,-38.07756,155.48999,-201.58432,60.187678,24.830128,12.941236,19.207949,-1.0,-1.0,101.63456,-0.449194,-0.009286,0.016244,-0.729369
207159.008518,-0.08786817,-0.15956946,-9.81628821,0.00253,0.001157,0.004842,-38.07756,155.48999,-201.58432,60.187678,24.830128,12.941236,19.207949,-1.0,-1.0,101.63456,-0.449194,-0.009297,0.016252,-0.729354
207159.0285,-0.09355797,-0.16930098,-9.8216739,0.003535,0.001691,0.004276,-38.036591,155.328079,-201.557022,60.187678,24.830128,12.941236,19.207949,-1.0,-1.0,101.63456,-0.449194,-0.009283,0.016235,-0.729347
207159.048482,-0.09475478999999999,-0.16330707,-9.819731520000001,0.003523,-0.000539,0.003774,-38.093216,155.448959,-201.805252,60.187678,24.830128,12.941236,19.207949,-1.0,-1.0,101.63456,-0.449194,-0.009273,0.016232,-0.729345
207159.068464,-0.10896948000000001,-0.164808,-9.818377739999999,0.002249,-0.000257,0.00512,-37.970886,155.436508,-202.006561,60.187678,24.830128,12.941236,19.207949,-1.0,-1.0,101.63456,-0.449194,-0.009287,0.016232,-0.729351
207159.088446,-0.09160578000000001,-0.15567489,-9.82032993,0.003431,0.000123,0.005923,-38.120651,155.342957,-201.772659,60.187678,24.830128,12.941236,19.207949,-1.0,-1.0,101.63456,-0.449194,-0.009292,0.016222,-0.729341
207159.108427,-0.09609875999999999,-0.15492933000000003,-9.81509139,0.003782,7.4e-05,0.003285,-38.147873,155.378876,-201.87558,60.187678,24.830128,12.941236,19.207949,-1.0,-1.0,101.63456,-0.449194,-0.009292,0.016212,-0.729339
207159.128409,-0.10628154000000001,-0.16720164,-9.81554265,0.00368,0.000732,0.003867,-37.900284,155.497879,-202.010559,60.187678,24.830128,12.941236,19.207949,-1.0,-1.0,101.63456,-0.449194,-0.009292,0.01622,-0.729343
207159.148391,-0.0928026,-0.16854560999999998,-9.837840779999999,0.002659,-0.000107,0.004672,-38.053497,155.435944,-201.977493,60.187678,24.830128,12.941236,19.207949,-1.0,-1.0,101.63456,-0.449194,-0.009277,0.016232,-0.729329
207159.168373,-0.09295956000000001,-0.16136469,-9.82212516,0.002185,-8.5e-05,0.003336,-38.171783,155.552841,-201.562393,60.187678,24.830128,12.941236,19.207949,-1.0,-1.0,101.63456,-0.449194,-0.009279,0.016225,-0.729325
207159.188355,-0.09295956000000001,-0.17019369,-9.826912440000001,0.004058,-0.000503,0.005595,-38.161026,155.46994,-201.726303,60.187678,24.830128,12.941236,19.207949,-1.0,-1.0,101.63456,-0.449194,-0.009273,0.016211,-0.72932
207159.208336,-0.09864936,-0.15268284000000001,-9.813590460000002,0.004607,-0.000817,0.00445,-38.048279,155.246506,-201.759186,60.187678,24.830128,12.941236,19.207949,-1.0,-1.0,101.63456,-0.449194,-0.009273,0.016218,-0.729311
207159.228318,-0.09236115,-0.16270866,-9.823027680000001,0.002816,-0.001259,0.00262,-38.225464,155.416595,-201.481506,60.187678,24.830128,12.941236,19.207949,-1.0,-1.0,101.63456,-0.449194,-0.009273,0.01623,-0.729324
207159.2483,-0.09145863,-0.1591182,-9.81777933,0.003115,-0.00168,0.005641,-38.094986,155.300705,-201.483383,60.187678,24.830128,12.941236,19.207949,-1.0,-1.0,101.63456,-0.449194,-0.009277,0.01623,-0.729345
