timestamp,accel_x,accel_y,accel_z,gyro_x,gyro_y,gyro_z,mag_x,mag_y,mag_z,gps_lat,gps_lon,gps_alt,gps_accuracy,gps_speed,gps_course,pressure,altitude,roll,pitch,yaw
276230.537968,-9.286087140000001,-2.84857875,2.64814083,-0.016383,-0.045112,0.129277,-87.838074,83.48793,-125.450897,60.187931,24.83037,25.87536,6.280345,0.2097,125.636064,102.066948,-1.109772,None,None,1.89497
276230.597921,-9.17860878,-2.5554853800000004,2.67313671,0.002903,-0.092979,0.071868,-88.080551,83.715286,-125.377365,60.187931,24.83037,25.87536,6.280345,0.2097,125.636064,102.06501,-0.951233,-1.845637,0.278289,1.890343
276230.637889,-9.32949639,-2.69619021,2.7442395900000003,0.002374,-0.053279,0.034319,-88.292969,83.627365,-124.922607,60.187931,24.83037,25.87536,6.280345,0.2097,125.636064,102.06501,-0.951233,-1.848959,0.275729,1.889482
276230.637889,-9.32949639,-2.69619021,2.7442395900000003,0.002374,-0.053279,0.034319,-88.292969,83.627365,-124.922607,60.187931,24.83037,25.87536,6.280345,0.2097,125.636064,102.06501,-0.951233,-1.848959,0.275729,1.889482
276230.677858,-9.25031007,-2.6161111800000003,2.71520199,0.008939,0.02439,0.005785,-87.995697,83.735153,-125.110962,60.187931,24.83037,25.87536,6.280345,0.2097,125.636064,102.06501,-0.951233,-1.850978,0.27452,1.889134
276230.697842,-9.29746674,-2.6906573700000003,2.66715261,0.001744,0.059168,-0.01635,-87.991806,83.954422,-125.46167,60.187931,24.83037,25.87536,6.280345,0.2097,125.636064,102.06501,-0.951233,-1.850902,0.27427,1.8891
276230.697842,-9.29746674,-2.6906573700000003,2.66715261,0.001744,0.059168,-0.01635,-87.991806,83.954422,-125.46167,60.187931,24.83037,25.87536,6.280345,0.2097,125.636064,102.06501,-0.951233,-1.850902,0.27427,1.8891
276230.73781,-9.11335266,-2.65727394,2.6725383000000003,-0.012568,0.119616,-0.024498,-88.525497,83.634079,-124.85144,60.187931,24.83037,25.87536,6.280345,0.2097,125.636064,102.06501,-0.951233,-1.848506,0.274876,1.889197
276230.757795,-9.12936258,-2.7155061000000003,2.5785388800000004,-0.006438,0.139818,-0.037036,-87.811829,83.822403,-125.462708,60.187931,24.83037,25.87536,6.280345,0.2097,125.636064,102.06501,-0.951233,-1.846324,0.275431,1.889095
276230.777779,-9.163050120000001,-2.7158004,2.5346783700000004,0.00239,0.141601,-0.041751,-88.258545,83.546021,-125.4617,60.187931,24.83037,25.87536,6.280345,0.2097,125.636064,102.06501,-0.951233,-1.843718,0.276179,1.889047
276230.777779,-9.163050120000001,-2.7158004,2.5346783700000004,0.00239,0.141601,-0.041751,-88.258545,83.546021,-125.4617,60.187931,24.83037,25.87536,6.280345,0.2097,125.636064,102.06501,-0.951233,-1.843718,0.276179,1.889047
276230.777779,-9.163050120000001,-2.7158004,2.5346783700000004,0.00239,0.141601,-0.041751,-88.258545,83.546021,-125.4617,60.187931,24.83037,25.87536,6.280345,0.2097,125.636064,102.06501,-0.951233,-1.843718,0.276179,1.889047
276230.837732,-9.020844360000002,-2.7274743000000004,2.46462516,0.022364,0.088129,-0.034102,-88.427948,83.680664,-125.421738,60.187931,24.83037,25.87536,6.280345,0.2097,125.636064,102.06501,-0.951233,-1.835952,0.278749,1.889974
276230.857716,-9.10137465,-2.7470844899999998,2.41837101,0.027195,0.065717,-0.029938,-88.280411,83.856812,-126.004791,60.187931,24.83037,25.87536,6.280345,0.2097,125.636064,102.06501,-0.951233,-1.83408,0.27944,1.890486
276230.8777,-9.13670046,-2.6882637300000005,2.41253406,0.021986,0.043299,-0.015264,-88.636047,83.664902,-125.231735,60.187931,24.83037,25.87536,6.280345,0.2097,125.636064,102.06501,-0.951233,-1.832706,0.280041,1.891131
276230.897684,-9.01979469,-2.67927777,2.39606307,0.017087,0.03015,-0.016201,-88.448288,83.623993,-125.240768,60.187931,24.83037,25.87536,6.280345,0.2097,125.636064,102.06501,-0.951233,-1.831721,0.280457,1.891708
276230.917669,-8.95362624,-2.6776296900000003,2.37601143,0.020094,0.004251,-0.025382,-88.641663,83.701462,-125.603439,60.187931,24.83037,25.87536,6.280345,0.2097,125.636064,102.06501,-0.951233,-1.831081,0.28074,1.892139
276230.937653,-9.0263772,-2.6444032200000005,2.40774678,0.02839,-0.015732,-0.027154,-88.364944,83.653687,-125.626251,60.187931,24.83037,25.87536,6.280345,0.2097,125.636064,102.06501,-0.951233,-1.830839,0.28112,1.892572
276230.957637,-9.06454791,-2.6376637499999998,2.42451207,0.035389,-0.024731,-0.019825,-88.179245,83.694901,-125.791367,60.187931,24.83037,25.87536,6.280345,0.2097,125.636064,102.06501,-0.951233,-1.831146,0.281615,1.89319
276230.977621,-8.952135120000001,-2.54800035,2.45714013,0.055191,-0.042761,-0.011341,-88.444565,83.55632,-125.195206,60.187931,24.83037,25.87536,6.280345,0.2097,125.636064,102.06501,-0.951233,-1.831775,0.28199,1.893913
276230.997606,-8.98686252,-2.5836302700000005,2.44531908,0.080838,-0.060363,-0.015999,-88.576309,83.622269,-125.352676,60.187931,24.83037,25.87536,6.280345,0.2097,125.636064,102.06501,-0.951233,-1.832731,0.282128,1.894829
276231.01759,-9.15960681,-2.66325804,2.45159748,0.078978,-0.064727,-0.012793,-88.576309,83.622269,-125.352676,60.187931,24.83037,25.87536,6.280345,0.2097,125.636064,102.06501,-0.951233,-1.834162,0.282143,1.896231
276231.037574,-9.114843780000001,-2.70936504,2.51327295,0.066055,-0.049783,0.000589,-88.30603,83.617844,-125.49147,60.187931,24.83037,25.87536,6.280345,0.2097,125.636064,102.06501,-0.951233,-1.835894,0.282125,1.897905
276231.057558,-9.14867847,-2.80277586,2.5237500300000004,0.047068,-0.020364,0.009981,-88.187759,83.847595,-125.60614,60.187931,24.83037,25.87536,6.280345,0.2097,125.636064,102.06501,-0.951233,-1.837456,0.281949,1.899375
276231.077543,-9.182356200000001,-2.78735454,2.5631175600000002,0.030189,0.014139,0.018788,-88.215393,83.652802,-125.353088,60.187931,24.83037,25.87536,6.280345,0.2097,125.636064,102.06501,-0.951233,-1.838461,0.281631,1.900441
276231.077543,-9.182356200000001,-2.78735454,2.5631175600000002,0.030189,0.014139,0.018788,-88.215393,83.652802,-125.353088,60.187931,24.83037,25.87536,6.280345,0.2097,125.636064,102.06501,-0.951233,-1.838461,0.281631,1.900441
276231.117511,-8.89465833,-2.6002386000000004,2.5721035199999998,0.034731,0.046381,0.029348,-88.153671,83.742996,-125.459702,60.187931,24.83037,25.87536,6.280345,0.2097,125.636064,102.06501,-0.951233,-1.838356,0.280681,1.901475
276231.137496,-8.84600073,-2.6289819000000003,2.54185929,0.044048,0.046342,0.012572,-88.69191,83.462509,-125.342087,60.187931,24.83037,25.87536,6.280345,0.2097,125.636064,102.06501,-0.951233,-1.837637,0.279989,1.901855
276231.15748,-8.944051680000001,-2.57045544,2.5444098900000003,0.039768,0.041156,0.012963,-88.297073,83.717697,-125.334915,60.187931,24.83037,25.87536,6.280345,0.2097,125.636064,102.06501,-0.951233,-1.836862,0.279464,1.902479
276231.177464,-8.96007141,-2.50713189,2.51985546,0.020803,0.027934,0.031047,-88.608215,83.648727,-125.14241,60.187931,24.83037,25.87536,6.280345,0.2097,125.636064,102.06501,-0.951233,-1.836194,0.279099,1.903228
276231.197448,-8.832678750000001,-2.54665638,2.5186586400000004,-0.008903,-0.005227,0.032945,-88.247009,83.797241,-125.640915,60.187931,24.83037,25.87536,6.280345,0.2097,125.636064,102.06501,-0.951233,-1.835594,0.278653,1.90369
276231.237417,-8.85932271,-2.43348822,2.5765965,-0.02334,-0.097838,0.070748,-88.116394,83.831192,-125.617447,60.187931,24.83037,25.87536,6.280345,0.2097,125.636064,102.06501,-0.951233,-1.835841,0.278083,1.903298
276231.237417,-8.85932271,-2.43348822,2.5765965,-0.02334,-0.097838,0.070748,-88.116394,83.831192,-125.617447,60.187931,24.83037,25.87536,6.280345,0.2097,125.636064,102.06501,-0.951233,-1.835841,0.278083,1.903298
276231.277385,-8.404276050000002,-2.0688505200000002,2.47914396,0.030573,-0.232112,0.07291,-88.929825,83.555542,-125.162018,60.18789,24.830358,25.899748,15.51057,0.089455,125.636064,102.06501,-0.951233,-1.839245,0.276377,1.901878
276231.29737,-8.482559850000001,-2.1459375,2.3466697200000004,0.062773,-0.324686,0.06859,-88.350021,83.886444,-125.16983,60.18789,24.830358,25.899748,15.51057,0.089455,125.636064,102.06501,-0.951233,-1.843098,0.274976,1.901713
276231.317354,-8.58509397,-2.1592594800000002,2.33020854,0.086066,-0.41856,0.067893,-88.330582,83.829437,-124.77475,60.18789,24.830358,25.899748,15.51057,0.089455,125.636064,102.06501,-0.951233,-1.848778,0.273471,1.902198
276231.337338,-8.58494682,-2.25071811,2.42929935,0.097945,-0.501276,0.061532,-87.969772,84.10791,-124.748672,60.18789,24.830358,25.899748,15.51057,0.089455,125.636064,102.06501,-0.951233,-1.856462,0.271868,1.903236
276231.357322,-8.65934586,-2.5042968,2.52809586,0.090712,-0.556524,0.04476,-88.317261,83.943787,-123.968811,60.18789,24.830358,25.899748,15.51057,0.089455,125.636064,102.06501,-0.951233,-1.866032,0.270185,1.904637
276231.357322,-8.65934586,-2.5042968,2.52809586,0.090712,-0.556524,0.04476,-88.317261,83.943787,-123.968811,60.18789,24.830358,25.899748,15.51057,0.089455,125.636064,102.06501,-0.951233,-1.866032,0.270185,1.904637
276231.377307,-8.694818820000002,-2.60503569,2.70142875,0.068225,-0.59441,0.035783,-87.818604,83.909607,-124.093964,60.18789,24.830358,25.899748,15.51057,0.089455,125.636064,102.06501,-0.951233,-1.877036,0.268719,1.906172
276231.377307,-8.694818820000002,-2.60503569,2.70142875,0.068225,-0.59441,0.035783,-87.818604,83.909607,-124.093964,60.18789,24.830358,25.899748,15.51057,0.089455,125.636064,102.06501,-0.951233,-1.877036,0.268719,1.906172
276231.437259,-8.845402320000002,-2.5569863100000005,2.96383644,0.034395,-0.614132,0.05378,-90.905106,81.783844,-119.262711,60.18789,24.830358,25.899748,15.51057,0.089455,125.636064,102.06501,-0.951233,-1.913827,0.265577,1.908709
276231.437259,-8.845402320000002,-2.5569863100000005,2.96383644,0.034395,-0.614132,0.05378,-90.905106,81.783844,-119.262711,60.18789,24.830358,25.899748,15.51057,0.089455,125.636064,102.06501,-0.951233,-1.913827,0.265577,1.908709
276231.477228,-8.31849741,-2.5152153299999997,3.10709187,0.003392,-0.619259,0.078366,-90.150604,82.146378,-116.898422,60.18789,24.830358,25.899748,15.51057,0.089455,125.636064,102.06501,-0.951233,-1.939018,0.263348,1.902387
276231.497212,-8.24485374,-2.20761297,3.1380718499999998,0.071772,-0.610172,0.123592,-87.699249,83.789856,-119.326233,60.18789,24.830358,25.899748,15.51057,0.089455,125.636064,102.06501,-0.951233,-1.950659,0.262128,1.90176
276231.517196,-8.11941327,-2.32182099,3.31111044,0.138447,-0.593028,0.1225,-86.737671,84.482986,-119.829636,60.18789,24.830358,25.899748,15.51057,0.089455,125.636064,102.06501,-0.951233,-1.961728,0.260218,1.901808
276231.537181,-7.890840270000001,-2.2617936,3.33162315,0.188424,-0.580924,0.131936,-86.511093,84.468887,-119.843704,60.18789,24.830358,25.899748,15.51057,0.089455,125.636064,102.06501,-0.951233,-1.972766,0.25732,1.902868
276231.557166,-7.812703620000001,-2.0549301300000002,3.66408405,0.226432,-0.532057,0.178143,-86.005478,84.794815,-119.656311,60.18789,24.830358,25.899748,15.51057,0.089455,125.636064,102.06501,-0.951233,-1.983976,0.253955,1.904978
276231.57715,-7.75417716,-2.06990019,3.7500000300000003,0.261375,-0.536489,0.250907,-85.64151,84.804398,-118.958389,60.18789,24.830358,25.899748,15.51057,0.089455,125.636064,102.06501,-0.951233,-1.99511,0.249695,1.895484
276231.597134,-7.8203358000000005,-2.11225977,3.89340261,0.291158,-0.563536,0.318352,-85.540115,85.09346,-118.704086,60.18789,24.830358,25.899748,15.51057,0.089455,125.636064,102.06501,-0.951233,-2.006062,0.243912,1.898163
276231.617118,-7.763006160000001,-2.08890216,3.92903253,0.298525,-0.592089,0.395351,-86.00238,85.414505,-117.687195,60.18789,24.830358,25.899748,15.51057,0.089455,125.636064,102.06501,-0.951233,-2.017415,0.236545,1.900789
276231.637103,-7.603289550000001,-1.99804194,4.06120266,0.285281,-0.6068,0.466972,-85.525772,85.988373,-117.767792,60.18789,24.830358,25.899748,15.51057,0.089455,125.636064,102.06501,-0.951233,-2.029307,0.227678,1.90301
276231.657087,-7.81988454,-2.0910015,4.27420719,0.257823,-0.578423,0.502021,-85.334473,86.248947,-117.217239,60.18789,24.830358,25.899748,15.51057,0.089455,125.636064,102.06501,-0.951233,-2.0415,0.217438,1.904368
276231.677071,-7.7607596700000006,-1.8194705100000002,4.56385725,0.232605,-0.549066,0.517793,-85.22525,86.756317,-116.600464,60.18789,24.830358,25.899748,15.51057,0.089455,125.636064,102.06295,-0.782127,-2.053416,0.20644,1.90472
276231.677071,-7.7607596700000006,-1.8194705100000002,4.56385725,0.232605,-0.549066,0.517793,-85.22525,86.756317,-116.600464,60.18789,24.830358,25.899748,15.51057,0.089455,125.636064,102.06295,-0.782127,-2.053416,0.20644,1.90472
276231.677071,-7.7607596700000006,-1.8194705100000002,4.56385725,0.232605,-0.549066,0.517793,-85.22525,86.756317,-116.600464,60.18789,24.830358,25.899748,15.51057,0.089455,125.636064,102.06295,-0.782127,-2.053416,0.20644,1.90472
276231.737024,-7.80956442,-1.7691746400000001,5.006043,0.15188,-0.551825,0.443176,-85.311798,87.244751,-115.535599,60.18789,24.830358,25.899748,15.51057,0.089455,125.636064,102.06295,-0.782127,-2.085301,0.173686,1.902162
276231.757008,-7.543713420000001,-1.66124502,5.26125996,0.101297,-0.592477,0.439603,-84.977432,87.978043,-115.263672,60.18789,24.830358,25.899748,15.51057,0.089455,125.636064,102.06295,-0.782127,-2.095863,0.16416,1.900736
276231.776993,-7.15152924,-1.60975233,5.34972654,0.051762,-0.640825,0.437071,-84.776505,88.136017,-114.307434,60.18789,24.830358,25.899748,15.51057,0.089455,125.636064,102.06295,-0.782127,-2.106951,0.155393,1.898448
276231.796977,-7.16439996,-1.82739699,5.326221780000001,-0.009209,-0.676427,0.397065,-84.299149,88.552139,-114.336212,60.18789,24.830358,25.899748,15.51057,0.089455,125.636064,102.06295,-0.782127,-2.118791,0.147154,1.895167
276231.816961,-7.07803272,-1.8955078200000002,5.417533260000001,-0.097409,-0.753872,0.401102,-85.805145,88.10408,-112.548065,60.18789,24.830358,25.899748,15.51057,0.089455,125.636064,102.06295,-0.782127,-2.13138,0.139904,1.891058
276231.836945,-6.946608150000001,-1.67202621,5.15033829,-0.111614,-0.95848,0.386836,-92.335709,84.48793,-105.100754,60.18789,24.830358,25.899748,15.51057,0.089455,125.636064,102.06295,-0.782127,-2.144565,0.13396,1.881817
276231.85693,-6.37134975,-1.21876497,5.2259341500000005,-0.147799,-1.169956,0.409517,-92.092087,84.468658,-104.259857,60.18789,24.830358,25.899748,15.51057,0.089455,125.636064,102.06295,-0.782127,-2.159438,0.128896,1.87506
276231.876914,-6.6862998,-1.33941816,5.4248711400000005,-0.16122,-1.203471,0.381162,-91.664917,84.62677,-103.671936,60.18789,24.830358,25.899748,15.51057,0.089455,125.636064,102.06295,-0.782127,-2.180018,0.123949,1.867834
276231.916882,-6.7472199,-0.9860031,5.52426606,-0.024313,-1.443701,0.395913,-87.066986,87.391602,-105.140182,60.18789,24.830358,25.899748,15.51057,0.089455,125.636064,102.06295,-0.782127,-2.227984,0.115165,1.853844
276231.936867,-6.653063520000001,-0.95276682,5.79041136,0.054154,-1.413785,0.386854,-85.807892,87.833298,-104.788055,60.18789,24.830358,25.899748,15.51057,0.089455,125.636064,102.06295,-0.782127,-2.256106,0.109911,1.847904
276231.936867,-6.653063520000001,-0.95276682,5.79041136,0.054154,-1.413785,0.386854,-85.807892,87.833298,-104.788055,60.18789,24.830358,25.899748,15.51057,0.089455,125.636064,102.06295,-0.782127,-2.256106,0.109911,1.847904
276231.956851,-6.17616018,-0.86340753,5.983060140000001,0.097172,-1.48342,0.327336,-80.557938,90.053513,-108.848389,60.18789,24.830358,25.899748,15.51057,0.089455,125.636064,102.06295,-0.782127,-2.284116,0.103714,1.84324
276231.976835,-6.052514940000001,-0.76281579,6.05969586,0.142618,-1.545979,0.208186,-80.097733,89.838943,-107.728424,60.18789,24.830358,25.899748,15.51057,0.089455,125.636064,102.06295,-0.782127,-2.312586,0.09739,1.839486
276231.976835,-6.052514940000001,-0.76281579,6.05969586,0.142618,-1.545979,0.208186,-80.097733,89.838943,-107.728424,60.18789,24.830358,25.899748,15.51057,0.089455,125.636064,102.06295,-0.782127,-2.312586,0.09739,1.839486
276231.976835,-6.052514940000001,-0.76281579,6.05969586,0.142618,-1.545979,0.208186,-80.097733,89.838943,-107.728424,60.18789,24.830358,25.899748,15.51057,0.089455,125.636064,102.06295,-0.782127,-2.312586,0.09739,1.839486
276231.976835,-6.052514940000001,-0.76281579,6.05969586,0.142618,-1.545979,0.208186,-80.097733,89.838943,-107.728424,60.18789,24.830358,25.899748,15.51057,0.089455,125.636064,102.06295,-0.782127,-2.312586,0.09739,1.839486
276232.056772,-5.385346650000001,-0.47046798,6.88478553,0.287709,-1.787408,0.177238,-75.084534,90.687576,-104.607437,60.18789,24.830358,25.899748,15.51057,0.089455,125.636064,102.06295,-0.782127,-2.444055,0.075462,1.838081
276232.096741,-4.6689419700000006,-0.18531090000000003,7.387136010000001,0.366357,-1.79198,0.113846,-72.145096,91.20076,-103.324249,60.18789,24.830358,25.899748,15.51057,0.089455,125.636064,102.06295,-0.782127,-2.515747,0.062254,1.839629
276232.116725,-5.0624701199999995,-0.41418801000000005,7.819286130000001,0.394724,-1.759627,0.053617,-70.47879,91.673416,-102.584396,60.18789,24.830358,25.899748,15.51057,0.089455,125.636064,102.06295,-0.782127,-2.551915,0.055067,1.841306
276232.136709,-4.74707862,-0.20507805,8.08753077,0.413245,-1.719389,0.008404,-68.900513,92.063507,-102.170578,60.18789,24.830358,25.899748,15.51057,0.089455,125.636064,102.06295,-0.782127,-2.587592,0.047835,1.844067
276232.156694,-4.24621926,-0.16495515000000002,8.05923873,0.434935,-1.695892,-0.040946,-68.04805,91.809097,-101.134521,60.18789,24.830358,25.899748,15.51057,0.089455,125.636064,102.06295,-0.782127,-2.622582,0.040653,1.847736
276232.176678,-3.75793632,-0.38259981000000004,7.9315517700000004,0.459187,-1.734467,-0.092928,-66.068741,92.519043,-101.134125,60.18789,24.830358,25.899748,15.51057,0.089455,125.636064,102.06295,-0.782127,-2.65682,0.033459,1.852124
276232.196662,-3.51977895,-0.40894947000000004,8.03603808,0.471013,-1.804304,-0.159307,-64.555283,92.76207,-100.722778,60.18789,24.830358,25.899748,15.51057,0.089455,125.636064,102.06295,-0.782127,-2.691167,0.026142,1.857428
276232.216646,-3.70554111,-0.39428352,8.443045170000001,0.47145,-1.822089,-0.238179,-62.945374,92.986847,-100.127304,60.18789,24.830358,25.899748,15.51057,0.089455,125.636064,102.06295,-0.782127,-2.726667,0.018805,1.863663
276232.236631,-3.7748487600000002,-0.58858038,8.83568061,0.438317,-1.787176,-0.304698,-61.520264,93.23941,-99.337662,60.18789,24.830358,25.899748,15.51057,0.089455,125.636064,102.06295,-0.782127,-2.763099,0.011656,1.871042
276232.256615,-3.7187159400000005,-0.6742020599999999,9.170976600000001,0.377563,-1.742853,-0.366127,-59.469009,93.823441,-99.651398,60.187887,24.830361,26.317808,15.313106,0.096908,125.636067,102.06295,-0.782127,-2.799281,0.005102,1.879466
276232.276599,-3.46918878,-0.44262720000000005,9.3676671,0.312211,-1.691554,-0.434112,-57.590836,93.998459,-99.355621,60.187887,24.830361,26.317808,15.313106,0.096908,125.636067,102.06295,-0.782127,-2.83455,-0.000417,1.888493
276232.276599,-3.46918878,-0.44262720000000005,9.3676671,0.312211,-1.691554,-0.434112,-57.590836,93.998459,-99.355621,60.187887,24.830361,26.317808,15.313106,0.096908,125.636067,102.06295,-0.782127,-2.83455,-0.000417,1.888493
276232.296583,-3.15782919,-0.50834439,9.417815820000001,0.253279,-1.647395,-0.51514,-55.907547,94.364349,-99.35582,60.187887,24.830361,26.317808,15.313106,0.096908,125.636067,102.06295,-0.782127,-2.868823,-0.004637,1.898188
276232.336552,-2.25775188,-0.99887382,9.93005478,0.112972,-1.571328,-0.638122,-53.453781,94.36821,-99.027222,60.187887,24.830361,26.317808,15.313106,0.096908,125.636067,102.06295,-0.782127,-2.934539,-0.009481,1.920678
276232.356536,-2.3373894600000003,-0.82942569,10.25951382,0.013347,-1.416958,-0.687962,-51.460815,94.664978,-99.678772,60.187887,24.830361,26.317808,15.313106,0.096908,125.636067,102.06295,-0.782127,-2.966362,-0.010174,1.933298
276232.37652,-2.31089265,-0.6976970100000001,10.715168700000001,-0.084071,-1.207234,-0.70604,-50.051193,94.674698,-99.75296,60.187887,24.830361,26.317808,15.313106,0.096908,125.636067,102.06295,-0.782127,-2.996267,-0.009266,1.946678
276232.396505,-1.7937192600000003,-0.7782273000000001,11.08564335,-0.169712,-1.044704,-0.689156,-50.051193,94.674698,-99.75296,60.187887,24.830361,26.317808,15.313106,0.096908,125.636067,102.06295,-0.782127,-3.022334,-0.006656,1.96054
276232.416489,-1.8024011100000001,-0.68018616,11.274407370000002,-0.227582,-0.871058,-0.649025,-49.160141,94.411713,-100.059677,60.187887,24.830361,26.317808,15.313106,0.096908,125.636067,102.06295,-0.782127,-3.044683,-0.002517,1.974221
276232.436474,-1.8024011100000001,-0.42870681,11.231596530000001,-0.24878,-0.662846,-0.628515,-48.124207,94.383957,-100.254379,60.187887,24.830361,26.317808,15.313106,0.096908,125.636067,102.06295,-0.782127,-3.063892,0.002743,1.987315
276232.456457,-1.6233784199999999,-0.26121087000000004,11.55462021,-0.243507,-0.436382,-0.59315,-47.627426,94.34198,-100.516327,60.187887,24.830361,26.317808,15.313106,0.096908,125.636067,102.06295,-0.782127,-3.079297,0.008508,1.999757
276232.476442,-1.0473744600000001,-0.22034241,11.82690657,-0.224045,-0.265421,-0.534971,-47.360855,94.139648,-100.545456,60.187887,24.830361,26.317808,15.313106,0.096908,125.636067,102.06295,-0.782127,-3.090364,0.014241,2.011758
276232.496426,-0.45206442,-0.50265459,11.592938070000002,-0.205025,-0.152738,-0.487203,-46.966095,94.002319,-100.97876,60.187887,24.830361,26.317808,15.313106,0.096908,125.636067,102.06295,-0.782127,-3.097415,0.019485,2.022903
276232.516411,-0.27288477000000005,-0.56357469,11.2818924,-0.177235,-0.111072,-0.46226,-46.886719,93.911636,-99.892853,60.187887,24.830361,26.317808,15.313106,0.096908,125.636067,102.06295,-0.782127,-3.101685,0.024248,2.032956
276232.536394,-0.26030835,-0.49831857,11.31078285,-0.143739,-0.089214,-0.419629,-46.319824,93.960571,-100.669113,60.187887,24.830361,26.317808,15.313106,0.096908,125.636067,102.06295,-0.782127,-3.104467,0.028514,2.042384
276232.556378,-0.07499745000000001,-0.57899601,11.323055160000001,-0.11995,-0.079666,-0.348827,-46.149704,93.993301,-100.627914,60.187887,24.830361,26.317808,15.313106,0.096908,125.636067,102.06295,-0.782127,-3.10668,0.032108,2.051236
276232.576362,-0.058232160000000005,-0.44068482,11.066033160000002,-0.084874,-0.077073,-0.289521,-45.847519,93.976074,-100.76532,60.187887,24.830361,26.317808,15.313106,0.096908,125.636067,102.06295,-0.782127,-3.10857,0.035069,2.058917
276232.576362,-0.058232160000000005,-0.44068482,11.066033160000002,-0.084874,-0.077073,-0.289521,-45.847519,93.976074,-100.76532,60.187887,24.830361,26.317808,15.313106,0.096908,125.636067,102.06295,-0.782127,-3.10857,0.035069,2.058917
276232.616331,-0.16839846000000003,-0.10972485000000001,10.52237277,0.00993,-0.063331,-0.197654,-46.135361,93.637299,-100.679077,60.187887,24.830361,26.317808,15.313106,0.096908,125.636067,102.06295,-0.782127,-3.111955,0.038842,2.070626
276232.636315,0.20956122,-0.33485454,10.468035180000001,0.036142,-0.120225,-0.13786,-45.877289,94.006561,-100.687439,60.187887,24.830361,26.317808,15.313106,0.096908,125.636067,102.06295,-0.782127,-3.113322,0.039256,2.07515
276232.676284,0.21015963000000001,-0.18097488,10.635678270000001,0.076558,-0.194335,-0.074018,-45.340363,94.133072,-100.727463,60.187887,24.830361,26.317808,15.313106,0.096908,125.636067,102.06295,-0.782127,-3.118276,0.038125,2.08094
276232.676284,0.21015963000000001,-0.18097488,10.635678270000001,0.076558,-0.194335,-0.074018,-45.340363,94.133072,-100.727463,60.187887,24.830361,26.317808,15.313106,0.096908,125.636067,102.06295,-0.782127,-3.118276,0.038125,2.08094
276232.716252,-0.24892875000000003,-0.10463346000000001,11.09776851,0.111665,-0.085664,-0.078262,-45.019058,94.286026,-101.193115,60.187887,24.830361,26.317808,15.313106,0.096908,125.636067,102.06295,-0.782127,-3.12569,0.035237,2.084193
276232.716252,-0.24892875000000003,-0.10463346000000001,11.09776851,0.111665,-0.085664,-0.078262,-45.019058,94.286026,-101.193115,60.187887,24.830361,26.317808,15.313106,0.096908,125.636067,102.06295,-0.782127,-3.12569,0.035237,2.084193
276232.736237,-0.21735036,-0.12768696000000002,11.45058516,0.117458,-0.024345,-0.110307,-45.057495,94.344833,-100.701202,60.187887,24.830361,26.317808,15.313106,0.096908,125.636067,102.06295,-0.782127,-3.128149,0.03318,2.085764
276232.756221,0.12288987000000001,0.01826622,11.543691870000002,0.122658,-0.033283,-0.139169,-44.82724,94.546234,-100.590927,60.187887,24.830361,26.317808,15.313106,0.096908,125.636067,102.060951,-0.618301,-3.129206,0.030986,2.087757
276232.796189,0.14878827,-0.14235291,11.402535780000001,0.093715,-0.109031,-0.15508,-44.790314,94.631226,-100.945175,60.187887,24.830361,26.317808,15.313106,0.096908,125.636067,102.060951,-0.618301,-3.130884,0.026373,2.093439
276232.816174,-0.35776089000000005,-0.24055101,11.600275950000002,0.044403,-0.083324,-0.145565,-44.306824,94.841324,-100.925568,60.187887,24.830361,26.317808,15.313106,0.096908,125.636067,102.060951,-0.618301,-3.132862,0.024296,2.09665
276232.836158,-0.5724135,-0.13157172,11.38427937,-0.008906,-0.02893,-0.120101,-44.327744,94.819183,-100.570511,60.187887,24.830361,26.317808,15.313106,0.096908,125.636067,102.060951,-0.618301,-3.134956,0.022998,2.099765
276232.856142,-0.34503732000000004,-0.03876912,11.02651848,-0.058394,-0.017703,-0.065788,-44.349274,94.771469,-100.757324,60.187887,24.830361,26.317808,15.313106,0.096908,125.636067,102.060951,-0.618301,-3.136124,0.022725,2.102551
276232.876126,0.04266369,-0.0811287,10.798848000000001,-0.10159,-0.081712,0.000741,-44.781097,94.623184,-100.65332,60.187887,24.830361,26.317808,15.313106,0.096908,125.636067,102.060951,-0.618301,-3.136468,0.023488,2.104538
276232.876126,0.04266369,-0.0811287,10.798848000000001,-0.10159,-0.081712,0.000741,-44.781097,94.623184,-100.65332,60.187887,24.830361,26.317808,15.313106,0.096908,125.636067,102.060951,-0.618301,-3.136468,0.023488,2.104538
276232.876126,0.04266369,-0.0811287,10.798848000000001,-0.10159,-0.081712,0.000741,-44.781097,94.623184,-100.65332,60.187887,24.830361,26.317808,15.313106,0.096908,125.636067,102.060951,-0.618301,-3.136468,0.023488,2.104538
276232.936079,-0.24444558,-0.37496763,9.90340101,-0.218275,-0.133209,0.157423,-44.329636,94.213348,-100.988724,60.187887,24.830361,26.317808,15.313106,0.096908,125.636067,102.060951,-0.618301,3.141134,0.03117,2.103041
276232.956064,-0.22962267000000003,-0.23995260000000002,9.83185668,-0.220958,-0.12992,0.161578,-44.390747,93.83876,-100.764053,60.187887,24.830361,26.317808,15.313106,0.096908,125.636067,102.060951,-0.618301,3.138444,0.035354,2.100313
276232.976048,0.07380063,-0.17408826000000002,9.75431844,-0.198539,-0.175281,0.148436,-44.159622,93.941696,-101.02478,60.187887,24.830361,26.317808,15.313106,0.096908,125.636067,102.060951,-0.618301,3.136032,0.039825,2.097202
276232.996032,0.09879651,-0.10762551000000001,9.731559240000001,-0.168347,-0.222402,0.118555,-43.879532,93.920212,-101.204376,60.187887,24.830361,26.317808,15.313106,0.096908,125.636067,102.060951,-0.618301,3.1332,0.044103,2.094191
276233.016016,0.02110131,-0.12888378,9.708809850000002,-0.136996,-0.237315,0.092204,-43.978531,93.618011,-101.204132,60.187887,24.830361,26.317808,15.313106,0.096908,125.636067,102.060951,-0.618301,3.129301,0.047842,2.091601
276233.036001,-0.10777265999999999,-0.21764466000000002,9.64983213,-0.110307,-0.220407,0.067517,-43.957932,93.350204,-101.345139,60.187887,24.830361,26.317808,15.313106,0.096908,125.636067,102.060951,-0.618301,3.124762,0.050959,2.089651
276233.055985,-0.20312586,-0.28441152000000003,9.73904427,-0.089431,-0.174699,0.040383,-43.361053,93.580032,-101.57843,60.187887,24.830361,26.317808,15.313106,0.096908,125.636067,102.060951,-0.618301,3.120237,0.05351,2.088227
276233.075969,-0.13876245,-0.29847906,9.800121330000001,-0.067203,-0.116815,0.01524,-43.361053,93.580032,-101.57843,60.187887,24.830361,26.317808,15.313106,0.096908,125.636067,102.060951,-0.618301,3.116334,0.055589,2.087279
276233.095954,-0.08532738,-0.33679692000000006,9.76913154,-0.017928,-0.074113,-0.006428,-43.382782,93.294113,-101.490524,60.187887,24.830361,26.317808,15.313106,0.096908,125.636067,102.060951,-0.618301,3.11345,0.057221,2.086846
276233.115938,0.09729558,-0.09265545000000001,9.79248915,0.077295,-0.06541,0.007077,-43.518768,93.40686,-101.516632,60.187887,24.830361,26.317808,15.313106,0.096908,125.636067,102.060951,-0.618301,3.111634,0.058339,2.086859
276233.135922,0.46778004,-0.46418958,9.82856052,0.101469,-0.108869,3.6e-05,-43.909744,93.071747,-101.387299,60.187887,24.830361,26.317808,15.313106,0.096908,125.636067,102.060951,-0.618301,3.110182,0.05702,2.086931
276233.155906,0.20118348,0.06047865000000001,10.174490550000002,0.194867,-0.127655,0.028921,-43.714691,93.256531,-101.477753,60.187887,24.830361,26.317808,15.313106,0.096908,125.636067,102.060951,-0.618301,3.108304,0.055433,2.086812
276233.175891,0.2371077,0.24294465,10.277328780000001,0.337357,-0.020432,0.017714,-43.419678,93.728958,-101.707687,60.187887,24.830361,26.317808,15.313106,0.096908,125.636067,102.060951,-0.618301,3.105645,0.052195,2.086794
276233.175891,0.2371077,0.24294465,10.277328780000001,0.337357,-0.020432,0.017714,-43.419678,93.728958,-101.707687,60.187887,24.830361,26.317808,15.313106,0.096908,125.636067,102.060951,-0.618301,3.105645,0.052195,2.086794
276233.195875,0.22632651000000004,-0.46522944000000005,9.39057345,0.271197,0.00734,0.021901,-43.069962,94.153671,-101.621979,60.187887,24.830361,26.317808,15.313106,0.096908,125.636067,102.060951,-0.618301,3.104237,0.045958,2.085993
276233.255828,0.09370512,-1.84042467,10.32628068,-0.004633,-0.347773,0.009597,-44.206619,94.165604,-101.478989,60.187888,24.830356,25.503246,15.557069,0.209148,125.636062,102.060951,-0.618301,3.107003,0.028942,2.083585
276233.255828,0.09370512,-1.84042467,10.32628068,-0.004633,-0.347773,0.009597,-44.206619,94.165604,-101.478989,60.187888,24.830356,25.503246,15.557069,0.209148,125.636062,102.060951,-0.618301,3.107003,0.028942,2.083585
276233.275812,-0.47226321000000004,0.36883638,9.405837810000001,0.117723,0.01433,-0.005655,-44.08403,94.077332,-101.490372,60.187888,24.830356,25.503246,15.557069,0.209148,125.636062,102.060951,-0.618301,3.102153,0.02747,2.082334
276233.315781,-0.03517866,0.46747593000000004,9.346114530000001,0.075058,-0.087341,0.007983,-43.406662,94.091614,-101.236481,60.187888,24.830356,25.503246,15.557069,0.209148,125.636062,102.060951,-0.618301,3.098842,0.025182,2.08274
276233.335765,0.55849311,-0.31314501,9.85939335,0.049509,-0.089466,0.00887,-43.338272,94.219757,-101.551132,60.187888,24.830356,25.503246,15.557069,0.209148,125.636062,102.060951,-0.618301,3.096589,0.024534,2.0829
276233.355749,-0.31763799,-0.5522049,10.417739310000002,-0.007355,0.013867,0.019423,-42.723785,94.583847,-101.734482,60.187888,24.830356,25.503246,15.557069,0.209148,125.636062,102.060951,-0.618301,3.094797,0.023119,2.082721
276233.355749,-0.31763799,-0.5522049,10.417739310000002,-0.007355,0.013867,0.019423,-42.723785,94.583847,-101.734482,60.187888,24.830356,25.503246,15.557069,0.209148,125.636062,102.060951,-0.618301,3.094797,0.023119,2.082721
276233.395718,0.17229302999999999,-0.42092748,9.78545538,-0.000653,0.007606,0.009887,-41.635345,94.702881,-101.979599,60.187888,24.830356,25.503246,15.557069,0.209148,125.636062,102.060951,-0.618301,3.094479,0.022786,2.082366
276233.415702,0.47900268000000007,0.0015009300000000001,9.77392863,0.014959,-0.005957,-0.003002,-41.14418,94.395767,-101.889053,60.187888,24.830356,25.503246,15.557069,0.209148,125.636062,102.060951,-0.618301,3.094277,0.022559,2.082194
276233.435686,0.23785326,-0.19863287999999998,9.772133400000001,-0.003458,-0.005871,-0.010893,-40.500397,93.975769,-102.801437,60.187888,24.830356,25.503246,15.557069,0.209148,125.636062,102.060951,-0.618301,3.094384,0.022482,2.08222
276233.455671,0.52525683,0.05478885,9.7986204,0.006279,-0.009331,-0.024252,-40.280853,93.342392,-103.201218,60.187888,24.830356,25.503246,15.557069,0.209148,125.636062,102.060951,-0.618301,3.094096,0.022441,2.08239
276233.475655,0.42301701,-0.0432621,9.76434426,-4.2e-05,-0.00467,-0.027172,-40.69577,92.892456,-103.47345,60.187888,24.830356,25.503246,15.557069,0.209148,125.636062,102.060951,-0.618301,3.094035,0.022396,2.08285
276233.475655,0.42301701,-0.0432621,9.76434426,-4.2e-05,-0.00467,-0.027172,-40.69577,92.892456,-103.47345,60.187888,24.830356,25.503246,15.557069,0.209148,125.636062,102.060951,-0.618301,3.094035,0.022396,2.08285
276233.475655,0.42301701,-0.0432621,9.76434426,-4.2e-05,-0.00467,-0.027172,-40.69577,92.892456,-103.47345,60.187888,24.830356,25.503246,15.557069,0.209148,125.636062,102.060951,-0.618301,3.094035,0.022396,2.08285
276233.535608,0.47751156,-0.18636057,9.73844586,-0.001957,-0.004355,-0.031104,-41.313461,92.143356,-103.685562,60.187888,24.830356,25.503246,15.557069,0.209148,125.636062,102.060951,-0.618301,3.093582,0.022557,2.084821
276233.555592,0.44637462000000006,-0.19414971,9.72856719,0.017007,-0.022054,-0.021565,-41.521591,91.926971,-104.052124,60.187888,24.830356,25.503246,15.557069,0.209148,125.636062,102.060951,-0.618301,3.093527,0.022578,2.085487
276233.575576,0.32901759,-0.28560834,9.59864355,0.018891,-0.018323,0.006034,-42.452438,91.593292,-103.327896,60.187888,24.830356,25.503246,15.557069,0.209148,125.636062,102.060951,-0.618301,3.093357,0.022518,2.086096
276233.59556,0.57540555,-0.50190903,9.91358379,-0.002928,-0.005877,0.02545,-41.740891,91.669113,-104.295166,60.187888,24.830356,25.503246,15.557069,0.209148,125.636062,102.060951,-0.618301,3.093213,0.022045,2.08636
276233.615545,0.42047622,-0.41718006,9.890677440000001,0.00528,-0.00462,0.021434,-42.370941,91.465347,-104.132935,60.187888,24.830356,25.503246,15.557069,0.209148,125.636062,102.060951,-0.618301,3.093132,0.022086,2.086087
276233.635529,0.55519695,-0.21031659,9.81119682,0.010034,-0.011622,0.004603,-42.552704,91.276489,-104.235336,60.187888,24.830356,25.503246,15.557069,0.209148,125.636062,102.060951,-0.618301,3.092995,0.022083,2.085695
276233.655513,0.4047606,-0.03023442,9.76539393,0.005267,-0.000992,-0.008387,-43.311966,91.407135,-104.09137,60.187888,24.830356,25.503246,15.557069,0.209148,125.636062,102.060951,-0.618301,3.092841,0.022035,2.085513
276233.675498,0.41358960000000006,0.11616021000000001,9.7695828,0.005212,-0.00152,-0.006474,-44.047836,91.125519,-103.549469,60.187888,24.830356,25.503246,15.557069,0.209148,125.636062,102.060951,-0.618301,3.092767,0.021979,2.085646
276233.695482,0.38005902,0.05433759,9.748922940000002,0.001979,0.000259,0.003094,-43.534515,91.648285,-104.094101,60.187888,24.830356,25.503246,15.557069,0.209148,125.636062,102.060951,-0.618301,3.092726,0.021903,2.085888
276233.715466,0.53154504,0.0606258,9.69054363,0.002152,-0.002735,0.023187,-43.712448,91.438461,-103.822495,60.187888,24.830356,25.503246,15.557069,0.209148,125.636062,102.060951,-0.618301,3.092733,0.021895,2.086004
276233.73545,0.39742272,0.04086846000000001,9.71390124,0.002018,0.006182,0.047204,-43.06575,91.375763,-104.15274,60.187888,24.830356,25.503246,15.557069,0.209148,125.636062,102.060951,-0.618301,3.092707,0.021919,2.085819
276233.755435,0.37736127,-0.07813665,9.79203789,-0.004154,-0.000113,0.065766,-42.876617,91.252182,-103.847885,60.187888,24.830356,25.503246,15.557069,0.209148,125.636062,102.060951,-0.618301,3.092824,0.022066,2.085166
276233.775419,0.48349566000000005,-0.17992521,9.908198100000002,-0.001826,0.002122,0.068025,-42.876617,91.252182,-103.847885,60.187888,24.830356,25.503246,15.557069,0.209148,125.636062,102.060951,-0.618301,3.092833,0.022196,2.084077
276233.775419,0.48349566000000005,-0.17992521,9.908198100000002,-0.001826,0.002122,0.068025,-42.876617,91.252182,-103.847885,60.187888,24.830356,25.503246,15.557069,0.209148,125.636062,102.060951,-0.618301,3.092833,0.022196,2.084077
276233.815388,0.51223896,-0.30641535000000003,9.88574301,0.003186,-0.003876,0.071943,-41.278656,91.765686,-103.884491,60.187888,24.830356,25.503246,15.557069,0.209148,125.636062,102.060951,-0.618301,3.092858,0.022413,2.081533
276233.835372,0.41598324,-0.35281665,9.78829047,0.002767,-0.000769,0.07217,-40.54158,92.03186,-103.913879,60.187888,24.830356,25.503246,15.557069,0.209148,125.636062,102.060509,-0.58131,3.092885,0.02251,2.080182
276233.855356,0.5092371,-0.31075136999999997,9.73021527,0.004393,-0.001085,0.072356,-40.677216,92.292175,-103.413635,60.187888,24.830356,25.503246,15.557069,0.209148,125.636062,102.060509,-0.58131,3.092888,0.022626,2.078847
276233.87534,0.50834439,-0.31045707000000006,9.73979964,0.00392,-0.002576,0.055473,-40.272385,92.827774,-103.320892,60.187888,24.830356,25.503246,15.557069,0.209148,125.636062,102.060509,-0.58131,3.092888,0.022647,2.077448
276233.915309,0.5020561800000001,-0.27707364,9.772280550000001,0.0026,0.00019,0.018564,-40.195099,92.929901,-103.224777,60.187888,24.830356,25.503246,15.557069,0.209148,125.636062,102.060509,-0.58131,3.09291,0.022747,2.075436
276233.915309,0.5020561800000001,-0.27707364,9.772280550000001,0.0026,0.00019,0.018564,-40.195099,92.929901,-103.224777,60.187888,24.830356,25.503246,15.557069,0.209148,125.636062,102.060509,-0.58131,3.09291,0.022747,2.075436
276233.935293,0.5375291400000001,-0.30730806,9.7897914,0.002228,0.000285,0.004236,-40.518661,92.695251,-103.34227,60.187888,24.830356,25.503246,15.557069,0.209148,125.636062,102.060509,-0.58131,3.092927,0.022772,2.075025
276233.975262,0.45235872000000005,-0.23665644,9.76809168,0.004023,0.00075,0.003307,-40.11821,92.993118,-103.292694,60.187888,24.830356,25.503246,15.557069,0.209148,125.636062,102.060509,-0.58131,3.092924,0.022771,2.074962
276233.975262,0.45235872000000005,-0.23665644,9.76809168,0.004023,0.00075,0.003307,-40.11821,92.993118,-103.292694,60.187888,24.830356,25.503246,15.557069,0.209148,125.636062,102.060509,-0.58131,3.092924,0.022771,2.074962
276233.995246,0.46957527000000004,-0.21450546,9.76180347,0.002419,0.002155,0.004123,-39.929626,92.960754,-103.422958,60.187888,24.830356,25.503246,15.557069,0.209148,125.636062,102.060509,-0.58131,3.092911,0.022782,2.075013
276234.035215,0.46149183000000005,-0.16705449,9.77886306,0.00261,0.001031,0.002804,-40.414703,92.49733,-103.14682,60.187888,24.830356,25.503246,15.557069,0.209148,125.636062,102.060509,-0.58131,3.092925,0.022798,2.075015
276234.055199,0.47287143000000004,-0.16765290000000002,9.759409830000001,0.002139,-0.001755,0.004889,-40.039444,92.457047,-103.309418,60.187888,24.830356,25.503246,15.557069,0.209148,125.636062,102.060509,-0.58131,3.092939,0.022795,2.075068
276234.055199,0.47287143000000004,-0.16765290000000002,9.759409830000001,0.002139,-0.001755,0.004889,-40.039444,92.457047,-103.309418,60.187888,24.830356,25.503246,15.557069,0.209148,125.636062,102.060509,-0.58131,3.092939,0.022795,2.075068
276234.075183,0.47182176000000003,-0.17753157,9.76883724,0.002502,-0.000481,0.004677,-40.07135,92.599274,-103.936172,60.187888,24.830356,25.503246,15.557069,0.209148,125.636062,102.060509,-0.58131,3.092944,0.02279,2.075075
276234.075183,0.47182176000000003,-0.17753157,9.76883724,0.002502,-0.000481,0.004677,-40.07135,92.599274,-103.936172,60.187888,24.830356,25.503246,15.557069,0.209148,125.636062,102.060509,-0.58131,3.092944,0.02279,2.075075
276234.135136,0.4564004400000001,-0.2342628,9.780511140000002,0.003312,0.000123,0.002817,-39.939209,92.833282,-103.681198,60.187888,24.830356,25.503246,15.557069,0.209148,125.636062,102.060509,-0.58131,3.092961,0.022807,2.075056
276234.15512,0.47900268000000007,-0.25342173,9.791439480000001,0.003423,0.000614,0.004619,-39.862076,92.837906,-103.494904,60.187888,24.830356,25.503246,15.557069,0.209148,125.636062,102.060509,-0.58131,3.092955,0.022803,2.075041
276234.175104,0.46418958,-0.25193061,9.78335604,0.002228,-0.001061,0.002524,-39.965683,92.931839,-103.628342,60.187888,24.830356,25.503246,15.557069,0.209148,125.636062,102.060509,-0.58131,3.092955,0.022784,2.075032
276234.195089,0.46058931000000003,-0.24519114,9.760155390000001,0.003117,-0.000841,0.004017,-39.943115,92.725571,-103.62085,60.187888,24.830356,25.503246,15.557069,0.209148,125.636062,102.060509,-0.58131,3.09295,0.022779,2.075043
276234.195089,0.46058931000000003,-0.24519114,9.760155390000001,0.003117,-0.000841,0.004017,-39.943115,92.725571,-103.62085,60.187888,24.830356,25.503246,15.557069,0.209148,125.636062,102.060509,-0.58131,3.09295,0.022779,2.075043
276234.195089,0.46058931000000003,-0.24519114,9.760155390000001,0.003117,-0.000841,0.004017,-39.943115,92.725571,-103.62085,60.187888,24.830356,25.503246,15.557069,0.209148,125.636062,102.060509,-0.58131,3.09295,0.022779,2.075043
276234.255042,0.47526507,-0.21106215,9.768690090000002,0.002708,-0.000587,0.002382,-39.985947,92.660965,-103.466965,60.187887,24.830341,25.258526,15.398204,0.048093,125.63605,102.060509,-0.58131,3.092972,0.022793,2.075087
276234.275026,0.47691315,-0.19534653000000002,9.78290478,0.003758,0.000314,0.004519,-39.986481,92.669891,-103.715195,60.187887,24.830341,25.258526,15.398204,0.048093,125.63605,102.060509,-0.58131,3.092991,0.022813,2.075101
276234.29501,0.46298295,-0.2023803,9.763294590000001,0.004074,0.000524,0.003915,-40.570755,92.363617,-103.023041,60.187887,24.830341,25.258526,15.398204,0.048093,125.63605,102.060509,-0.58131,3.092986,0.022828,2.075115
276234.314994,0.46298295,-0.19324719,9.775566900000001,0.003785,0.001029,0.004428,-39.978333,92.701706,-103.602142,60.187887,24.830341,25.258526,15.398204,0.048093,125.63605,102.060509,-0.58131,3.092976,0.022833,2.075123
276234.334979,0.46897686000000005,-0.21211182,9.76988691,0.002535,0.00076,0.005953,-40.178543,92.628296,-103.743774,60.187887,24.830341,25.258526,15.398204,0.048093,125.63605,102.060509,-0.58131,3.09299,0.022818,2.075101
276234.354963,0.47151765,-0.22408002000000002,9.775871010000001,0.002773,-0.000491,0.005401,-40.033218,92.749329,-103.597717,60.187887,24.830341,25.258526,15.398204,0.048093,125.63605,102.060509,-0.58131,3.092981,0.022816,2.075095
276234.374947,0.48438837,-0.23696055000000002,9.77991273,0.004054,-0.001576,0.004901,-40.203979,92.626022,-103.463577,60.187887,24.830341,25.258526,15.398204,0.048093,125.63605,102.060509,-0.58131,3.092988,0.022813,2.075092
276234.374947,0.48438837,-0.23696055000000002,9.77991273,0.004054,-0.001576,0.004901,-40.203979,92.626022,-103.463577,60.187887,24.830341,25.258526,15.398204,0.048093,125.63605,102.060509,-0.58131,3.092988,0.022813,2.075092
276234.374947,0.48438837,-0.23696055000000002,9.77991273,0.004054,-0.001576,0.004901,-40.203979,92.626022,-103.463577,60.187887,24.830341,25.258526,15.398204,0.048093,125.63605,102.060509,-0.58131,3.092988,0.022813,2.075092
276234.4349,0.46687752000000005,-0.2228832,9.763294590000001,0.002608,0.001264,0.00412,-40.703781,92.463776,-102.832657,60.187887,24.830341,25.258526,15.398204,0.048093,125.63605,102.060509,-0.58131,3.09303,0.022781,2.075071
276234.454884,0.47211606000000006,-0.21555513,9.7784118,0.002657,-0.000378,0.005168,-40.625931,92.333847,-103.212723,60.187887,24.830341,25.258526,15.398204,0.048093,125.63605,102.060509,-0.58131,3.093023,0.022797,2.075063
276234.474869,0.48065076,-0.21225897000000002,9.77946147,0.002948,0.000327,0.003836,-40.625931,92.333847,-103.212723,60.187887,24.830341,25.258526,15.398204,0.048093,125.63605,102.060509,-0.58131,3.09303,0.022804,2.075058
276234.494853,0.47301858,-0.20312586,9.759704130000001,0.0031,-0.00018,0.003654,-40.309952,92.570572,-103.181335,60.187887,24.830341,25.258526,15.398204,0.048093,125.63605,102.060509,-0.58131,3.093027,0.022817,2.075046
276234.514837,0.47256732,-0.20567646,9.77422293,0.003021,-0.000782,0.004796,-40.359131,92.322403,-103.237152,60.187887,24.830341,25.258526,15.398204,0.048093,125.63605,102.060509,-0.58131,3.093032,0.022833,2.075053
276234.534822,0.4742154,-0.21764466000000002,9.760155390000001,0.003192,-0.002638,0.003388,-39.912277,92.797043,-103.895264,60.187887,24.830341,25.258526,15.398204,0.048093,125.63605,102.060509,-0.58131,3.093037,0.02283,2.075074
276234.57479,0.47032083,-0.21914559000000003,9.77003406,0.003338,0.000925,0.003374,-40.386688,92.41951,-103.4254,60.187887,24.830341,25.258526,15.398204,0.048093,125.63605,102.060509,-0.58131,3.093025,0.022811,2.075078
276234.57479,0.47032083,-0.21914559000000003,9.77003406,0.003338,0.000925,0.003374,-40.386688,92.41951,-103.4254,60.187887,24.830341,25.258526,15.398204,0.048093,125.63605,102.060509,-0.58131,3.093025,0.022811,2.075078
276234.614759,0.47077209,-0.23591088000000002,9.77048532,0.003285,-0.001469,0.003041,-40.210648,92.683594,-103.287811,60.187887,24.830341,25.258526,15.398204,0.048093,125.63605,102.060509,-0.58131,3.093061,0.022785,2.075088
276234.634744,0.47062494000000005,-0.22273605000000002,9.77302611,0.001947,2.9e-05,0.002487,-40.110947,92.896484,-103.386887,60.187887,24.830341,25.258526,15.398204,0.048093,125.63605,102.060509,-0.58131,3.093067,0.022774,2.075094
276234.654727,0.47287143000000004,-0.21525102000000002,9.77003406,0.003499,-0.000643,0.003539,-40.572556,92.583282,-103.405304,60.187887,24.830341,25.258526,15.398204,0.048093,125.63605,102.060509,-0.58131,3.093065,0.022763,2.075095
276234.674712,0.47182176000000003,-0.22393287,9.77601816,0.003647,0.000421,0.003264,-40.306976,92.663742,-103.403229,60.187887,24.830341,25.258526,15.398204,0.048093,125.63605,102.060509,-0.58131,3.093063,0.022751,2.075096
276234.674712,0.47182176000000003,-0.22393287,9.77601816,0.003647,0.000421,0.003264,-40.306976,92.663742,-103.403229,60.187887,24.830341,25.258526,15.398204,0.048093,125.63605,102.060509,-0.58131,3.093063,0.022751,2.075096
276234.674712,0.47182176000000003,-0.22393287,9.77601816,0.003647,0.000421,0.003264,-40.306976,92.663742,-103.403229,60.187887,24.830341,25.258526,15.398204,0.048093,125.63605,102.060509,-0.58131,3.093063,0.022751,2.075096
276234.734664,0.47226321000000004,-0.20283156000000002,9.755064,0.002158,-0.000535,0.003924,-40.283966,92.591248,-103.225876,60.187887,24.830341,25.258526,15.398204,0.048093,125.63605,102.060509,-0.58131,3.093093,0.02274,2.075125
276234.734664,0.47226321000000004,-0.20283156000000002,9.755064,0.002158,-0.000535,0.003924,-40.283966,92.591248,-103.225876,60.187887,24.830341,25.258526,15.398204,0.048093,125.63605,102.060509,-0.58131,3.093093,0.02274,2.075125
276234.774634,0.45699885,-0.21479976,9.764942670000002,0.003468,-0.001496,0.003319,-40.023682,92.892334,-103.341553,60.187887,24.830341,25.258526,15.398204,0.048093,125.63605,102.060509,-0.58131,3.093091,0.022745,2.075127
276234.794618,0.47182176000000003,-0.21510387,9.7695828,0.003275,0.000782,0.003704,-40.136383,92.988205,-103.27063,60.187887,24.830341,25.258526,15.398204,0.048093,125.63605,102.060509,-0.58131,3.093086,0.022734,2.075129
276234.814601,0.47002653,-0.2282787,9.76943565,0.003935,0.000937,0.003476,-39.970612,93.002548,-103.649887,60.187887,24.830341,25.258526,15.398204,0.048093,125.63605,102.060509,-0.58131,3.093078,0.022736,2.075123
276234.814601,0.47002653,-0.2282787,9.76943565,0.003935,0.000937,0.003476,-39.970612,93.002548,-103.649887,60.187887,24.830341,25.258526,15.398204,0.048093,125.63605,102.060509,-0.58131,3.093078,0.022736,2.075123
276234.834586,0.46687752000000005,-0.22572810000000001,9.76539393,0.003922,-0.000708,0.004178,-40.393814,92.725037,-102.930176,60.187887,24.830341,25.258526,15.398204,0.048093,125.63605,102.060509,-0.58131,3.093087,0.022736,2.075118
276234.874555,0.46418958,-0.22378572,9.759252870000001,0.00284,-0.001404,0.003501,-40.327377,92.797821,-103.288406,60.187887,24.830341,25.258526,15.398204,0.048093,125.63605,102.060509,-0.58131,3.093108,0.022694,2.075125
276234.894538,0.46194309,-0.20627487000000003,9.7664436,0.002229,6.4e-05,0.005761,-40.085144,92.598709,-103.481308,60.187887,24.830341,25.258526,15.398204,0.048093,125.63605,102.060509,-0.58131,3.093108,0.022683,2.075143
276234.894538,0.46194309,-0.20627487000000003,9.7664436,0.002229,6.4e-05,0.005761,-40.085144,92.598709,-103.481308,60.187887,24.830341,25.258526,15.398204,0.048093,125.63605,102.060509,-0.58131,3.093108,0.022683,2.075143
276234.934508,0.46089342000000005,-0.21046374,9.76733631,0.00296,-0.001678,0.003178,-40.484131,92.495972,-103.150391,60.187887,24.830341,25.258526,15.398204,0.048093,125.63605,102.060509,-0.58131,3.093124,0.022695,2.075132
276234.954492,0.4601478600000001,-0.21884148000000003,9.77392863,0.003288,-0.000209,0.003925,-39.868774,92.691788,-103.543167,60.187887,24.830341,25.258526,15.398204,0.048093,125.63605,102.060509,-0.58131,3.093116,0.022694,2.075151
276234.974475,0.47510811000000003,-0.2026746,9.78829047,0.002135,0.001145,0.004333,-40.385376,92.592606,-103.210175,60.187887,24.830341,25.258526,15.398204,0.048093,125.63605,102.060509,-0.58131,3.093107,0.022676,2.075156
276234.974475,0.47510811000000003,-0.2026746,9.78829047,0.002135,0.001145,0.004333,-40.385376,92.592606,-103.210175,60.187887,24.830341,25.258526,15.398204,0.048093,125.63605,102.060509,-0.58131,3.093107,0.022676,2.075156
276234.974475,0.47510811000000003,-0.2026746,9.78829047,0.002135,0.001145,0.004333,-40.385376,92.592606,-103.210175,60.187887,24.830341,25.258526,15.398204,0.048093,125.63605,102.060509,-0.58131,3.093107,0.022676,2.075156
276235.034428,0.46792719,-0.22108797000000002,9.77048532,0.003256,-0.000825,0.005424,-40.193695,92.670959,-103.570312,60.187887,24.830341,25.258526,15.398204,0.048093,125.63605,102.060509,-0.58131,3.093137,0.022663,2.075175
276235.054413,0.48259314000000003,-0.22558095000000003,9.76704201,0.002855,0.000321,0.004196,-39.986252,92.74913,-103.397934,60.187887,24.830341,25.258526,15.398204,0.048093,125.63605,102.060509,-0.58131,3.09314,0.022643,2.075161
276235.074398,0.45625329000000003,-0.21735036,9.77991273,0.004473,-0.000709,0.004264,-40.161804,92.632431,-103.11792,60.187887,24.830341,25.258526,15.398204,0.048093,125.63605,102.060509,-0.58131,3.093155,0.022626,2.075165
276235.074398,0.45625329000000003,-0.21735036,9.77991273,0.004473,-0.000709,0.004264,-40.161804,92.632431,-103.11792,60.187887,24.830341,25.258526,15.398204,0.048093,125.63605,102.060509,-0.58131,3.093155,0.022626,2.075165
276235.114365,0.47091924,-0.22648347000000002,9.78005988,0.002205,-0.000477,0.004471,-40.082306,92.727905,-103.448517,60.187887,24.830341,25.258526,15.398204,0.048093,125.63605,102.060509,-0.58131,3.093143,0.022615,2.07516
276235.134351,0.47406825,-0.2137599,9.77032836,0.003789,0.000201,0.003944,-40.192505,92.74939,-103.409973,60.187887,24.830341,25.258526,15.398204,0.048093,125.63605,102.060509,-0.58131,3.093147,0.022618,2.075178
276235.154335,0.47751156,-0.21735036,9.763598700000001,0.003298,-0.000663,0.003519,-40.192505,92.74939,-103.409973,60.187887,24.830341,25.258526,15.398204,0.048093,125.63605,102.060509,-0.58131,3.093133,0.022609,2.075175
276235.174319,0.45924534000000006,-0.22123512,9.77092677,0.001742,-0.00035,0.005302,-39.812134,92.981979,-103.434204,60.187887,24.830341,25.258526,15.398204,0.048093,125.63605,102.060509,-0.58131,3.093147,0.022609,2.07517
276235.194302,0.46508229,-0.21749751,9.775419750000001,0.001742,-0.00035,0.005302,-40.256577,92.635574,-103.163223,60.187887,24.830341,25.258526,15.398204,0.048093,125.63605,102.060509,-0.58131,3.093151,0.022606,2.075172
276235.214288,0.46553355,-0.20896281000000003,9.76913154,0.003289,-1.5e-05,0.005147,-39.933411,92.930191,-103.217987,60.187887,24.830341,25.258526,15.398204,0.048093,125.63605,102.060509,-0.58131,3.093155,0.022619,2.075153
276235.234272,0.4716648,-0.21854718,9.76164651,0.003217,0.000302,0.002423,-39.837677,92.794876,-103.299881,60.187887,24.830341,25.258526,15.398204,0.048093,125.63605,102.060509,-0.58131,3.093163,0.022616,2.075172
276235.254256,0.47541222,-0.21943989,9.76404996,0.00322,0.000544,0.004137,-40.059555,92.930222,-103.409714,60.187883,24.830346,25.211977,15.13411,0.0,125.636054,102.060509,-0.58131,3.09315,0.02262,2.075184
276235.254256,0.47541222,-0.21943989,9.76404996,0.00322,0.000544,0.004137,-40.059555,92.930222,-103.409714,60.187883,24.830346,25.211977,15.13411,0.0,125.636054,102.060509,-0.58131,3.09315,0.02262,2.075184
276235.254256,0.47541222,-0.21943989,9.76404996,0.00322,0.000544,0.004137,-40.059555,92.930222,-103.409714,60.187883,24.830346,25.211977,15.13411,0.0,125.636054,102.060509,-0.58131,3.09315,0.02262,2.075184
276235.274239,0.4767561900000001,-0.2140542,9.78275763,0.003642,0.002142,0.003486,-39.982162,92.880341,-103.247162,60.187883,24.830346,25.211977,15.13411,0.0,125.636054,102.060509,-0.58131,3.093152,0.022619,2.075192
276235.334193,0.47510811000000003,-0.21794877000000001,9.77601816,0.002107,-0.001349,0.003458,-40.172241,92.505157,-103.053345,60.187883,24.830346,25.211977,15.13411,0.0,125.636054,102.060509,-0.58131,3.093158,0.022618,2.075189
276235.374162,0.47570652,-0.20656917,9.77737194,0.003495,7.2e-05,0.005506,-40.578842,92.371262,-102.968491,60.187883,24.830346,25.211977,15.13411,0.0,125.636054,102.060509,-0.58131,3.09315,0.022629,2.075195
276235.394146,0.47196891,-0.21840003000000002,9.768238830000001,0.003117,-0.000464,0.005137,-40.028778,92.77095,-103.175873,60.187883,24.830346,25.211977,15.13411,0.0,125.636054,102.060509,-0.58131,3.09316,0.022622,2.075193
276235.41413,0.47211606000000006,-0.23172201,9.76898439,0.001878,0.001159,0.003915,-39.92778,92.807266,-102.914169,60.187883,24.830346,25.211977,15.13411,0.0,125.636054,102.060509,-0.58131,3.09317,0.022611,2.075183
276235.434115,0.46493514,-0.21285737999999998,9.77287896,0.003944,0.001125,0.003359,-40.058456,92.786926,-103.115784,60.187883,24.830346,25.211977,15.13411,0.0,125.636054,102.060509,-0.58131,3.093168,0.022619,2.075193
276235.454099,0.4564004400000001,-0.21599658,9.775272600000001,0.004204,0.001613,0.003921,-40.121216,92.632339,-103.013031,60.187883,24.830346,25.211977,15.13411,0.0,125.636054,102.060509,-0.58131,3.093166,0.02263,2.075198
276235.474083,0.46972242000000003,-0.22108797000000002,9.768690090000002,0.002062,-0.00014,0.005226,-40.143478,92.557281,-103.049713,60.187883,24.830346,25.211977,15.13411,0.0,125.636054,102.060509,-0.58131,3.093171,0.022622,2.075198
276235.494067,0.47930679000000004,-0.22768029,9.771378030000001,0.001904,-0.000218,0.003532,-39.735474,92.901337,-103.577835,60.187883,24.830346,25.211977,15.13411,0.0,125.636054,102.060509,-0.58131,3.093176,0.022631,2.075187
276235.514052,0.45759726,-0.21211182,9.78021684,0.003539,-0.00139,0.003021,-40.149445,92.797058,-103.435287,60.187883,24.830346,25.211977,15.13411,0.0,125.636054,102.060509,-0.58131,3.093187,0.022646,2.075181
276235.534035,0.46104057,-0.22079367,9.77452704,0.003763,-0.000247,0.005481,-40.001602,92.598022,-103.143982,60.187883,24.830346,25.211977,15.13411,0.0,125.636054,102.060509,-0.58131,3.093197,0.022638,2.07518
276235.554019,0.46388547,-0.20986533,9.77766624,0.003355,-0.001456,0.004377,-39.966888,92.667465,-103.5466,60.187883,24.830346,25.211977,15.13411,0.0,125.636054,102.060509,-0.58131,3.093214,0.022623,2.075174
276235.574004,0.4716648,-0.21914559000000003,9.77108373,0.004795,-0.000689,0.004412,-40.15567,92.631973,-103.386566,60.187883,24.830346,25.211977,15.13411,0.0,125.636054,102.060509,-0.58131,3.093227,0.02261,2.075172
276235.574004,0.4716648,-0.21914559000000003,9.77108373,0.004795,-0.000689,0.004412,-40.15567,92.631973,-103.386566,60.187883,24.830346,25.211977,15.13411,0.0,125.636054,102.060509,-0.58131,3.093227,0.02261,2.075172
276235.574004,0.4716648,-0.21914559000000003,9.77108373,0.004795,-0.000689,0.004412,-40.15567,92.631973,-103.386566,60.187883,24.830346,25.211977,15.13411,0.0,125.636054,102.060509,-0.58131,3.093227,0.02261,2.075172
276235.633956,0.46508229,-0.21495672000000002,9.76733631,0.003175,-0.001144,0.0037,-40.692978,92.454376,-102.871613,60.187883,24.830346,25.211977,15.13411,0.0,125.636054,102.060509,-0.58131,3.093234,0.022591,2.075159
276235.653941,0.46538640000000003,-0.22648347000000002,9.78215922,0.003337,-0.000954,0.004566,-40.253448,92.801315,-103.313736,60.187883,24.830346,25.211977,15.13411,0.0,125.636054,102.060509,-0.58131,3.093237,0.022595,2.075158
276235.673925,0.47242017000000003,-0.21300453,9.77617512,0.001856,-0.000895,0.004343,-39.957932,93.117142,-103.257172,60.187883,24.830346,25.211977,15.13411,0.0,125.636054,102.060509,-0.58131,3.09323,0.022599,2.075154
276235.693909,0.46732878,-0.21225897000000002,9.78305193,0.00093,-0.001439,0.003514,-39.87027,92.953354,-103.629303,60.187883,24.830346,25.211977,15.13411,0.0,125.636054,102.060509,-0.58131,3.093227,0.022616,2.075158
276235.713894,0.47077209,-0.21644784,9.79473564,0.003288,-0.00107,0.005348,-40.388504,92.684662,-103.143005,60.187883,24.830346,25.211977,15.13411,0.0,125.636054,102.060509,-0.58131,3.09324,0.022611,2.075156
276235.733878,0.47510811000000003,-0.22153923,9.77797035,0.002597,-0.00102,0.003541,-40.152878,92.641495,-103.372879,60.187883,24.830346,25.211977,15.13411,0.0,125.636054,102.060509,-0.58131,3.093234,0.022614,2.075174
276235.753862,0.47331288,-0.21255327,9.775723860000001,0.004153,0.00043,0.003467,-40.194382,92.649078,-103.322159,60.187883,24.830346,25.211977,15.13411,0.0,125.636054,102.060509,-0.58131,3.09322,0.022624,2.075182
276235.773846,0.46942812,-0.21704625,9.77257485,0.003182,-0.000515,0.003291,-39.857635,92.720856,-103.396713,60.187883,24.830346,25.211977,15.13411,0.0,125.636054,102.060509,-0.58131,3.093217,0.022624,2.075197
276235.793831,0.47032083,-0.21225897000000002,9.775871010000001,0.003182,-0.000515,0.003291,-40.046051,92.581696,-103.139648,60.187883,24.830346,25.211977,15.13411,0.0,125.636054,102.060509,-0.58131,3.093225,0.022622,2.075199
276235.813815,0.47691315,-0.21510387,9.76224492,0.003549,-0.000321,0.005283,-40.173355,92.792465,-102.766663,60.187883,24.830346,25.211977,15.13411,0.0,125.636054,102.060509,-0.58131,3.093224,0.022624,2.075191
276235.833799,0.46986957000000007,-0.22438413000000001,9.78141366,0.002211,-0.001251,0.003563,-40.103577,92.884033,-103.41713,60.187883,24.830346,25.211977,15.13411,0.0,125.636054,102.060509,-0.58131,3.09323,0.022638,2.075198
276235.853784,0.46658322,-0.2168991,9.784405710000001,0.002936,-0.000288,0.003499,-40.103577,92.884033,-103.41713,60.187883,24.830346,25.211977,15.13411,0.0,125.636054,102.060509,-0.58131,3.093234,0.022639,2.07521
276235.873768,0.46388547,-0.21840003000000002,9.7664436,0.003863,0.000299,0.003337,-40.283691,92.514511,-103.157684,60.187883,24.830346,25.211977,15.13411,0.0,125.636054,102.060509,-0.58131,3.093233,0.022647,2.075207
276235.873768,0.46388547,-0.21840003000000002,9.7664436,0.003863,0.000299,0.003337,-40.283691,92.514511,-103.157684,60.187883,24.830346,25.211977,15.13411,0.0,125.636054,102.060509,-0.58131,3.093233,0.022647,2.075207
276235.893752,0.47436255000000005,-0.21884148000000003,9.768238830000001,0.003467,0.000215,0.004126,-40.044968,92.872559,-103.520706,60.187883,24.830346,25.211977,15.13411,0.0,125.636054,102.060509,-0.58131,3.093239,0.022652,2.075202
276235.933721,0.46613196000000007,-0.20881566000000001,9.759851280000001,0.003545,-2.2e-05,0.003339,-40.491943,92.493256,-103.016876,60.187883,24.830346,25.211977,15.13411,0.0,125.636054,102.060509,-0.58131,3.093229,0.022651,2.075211
276235.953705,0.47287143000000004,-0.22333446,9.77437008,0.001508,-0.001472,0.003939,-40.334122,92.51326,-103.606094,60.187883,24.830346,25.211977,15.13411,0.0,125.636054,102.060509,-0.58131,3.093229,0.022637,2.075209
276235.973689,0.47242017000000003,-0.21884148000000003,9.76539393,0.002333,-8.2e-05,0.004428,-40.026947,92.671814,-103.921875,60.187883,24.830346,25.211977,15.13411,0.0,125.636054,102.060509,-0.58131,3.093233,0.022644,2.075204
276235.993674,0.47361699000000007,-0.22768029,9.77092677,0.003335,-0.000586,0.003748,-40.203903,92.62291,-103.821976,60.187883,24.830346,25.211977,15.13411,0.0,125.636054,102.062149,-0.713425,3.09324,0.022642,2.075194
276236.033642,0.46627911,-0.21615354000000003,9.779167170000001,0.003299,-0.001189,0.005631,-39.905777,92.804306,-103.922363,60.187883,24.830346,25.211977,15.13411,0.0,125.636054,102.062149,-0.713425,3.093244,0.022635,2.07521
276236.053626,0.45594918,-0.22498254,9.76404996,0.003816,0.000424,0.004362,-40.294022,92.553741,-103.561829,60.187883,24.830346,25.211977,15.13411,0.0,125.636054,102.062149,-0.713425,3.093224,0.022648,2.075197
276236.073611,0.47331288,-0.21225897000000002,9.772280550000001,0.002483,0.001034,0.004124,-40.284317,92.658905,-103.309525,60.187883,24.830346,25.211977,15.13411,0.0,125.636054,102.062149,-0.713425,3.09323,0.022631,2.075196
276236.093595,0.4628358,-0.21450546,9.76883724,0.002932,0.001133,0.001757,-40.332748,92.593323,-103.415497,60.187883,24.830346,25.211977,15.13411,0.0,125.636054,102.062149,-0.713425,3.093234,0.022646,2.075192
276236.113579,0.46957527000000004,-0.22588506000000003,9.77257485,0.002292,-0.000596,0.00288,-40.403458,92.589569,-103.402435,60.187883,24.830346,25.211977,15.13411,0.0,125.636054,102.062149,-0.713425,3.093235,0.022656,2.075192
276236.133564,0.48065076,-0.21764466000000002,9.77108373,0.004416,-0.001508,0.004961,-39.83194,92.994293,-103.854645,60.187883,24.830346,25.211977,15.13411,0.0,125.636054,102.062149,-0.713425,3.093242,0.02266,2.075188
276236.153548,0.4716648,-0.21780162,9.76149936,0.003157,-5.3e-05,0.002456,-40.238235,92.632492,-103.307327,60.187883,24.830346,25.211977,15.13411,0.0,125.636054,102.062149,-0.713425,3.093239,0.022681,2.075178
276236.173532,0.47331288,-0.21420135,9.77871591,0.004091,-0.001475,0.004336,-40.562653,92.580811,-103.156799,60.187883,24.830346,25.211977,15.13411,0.0,125.636054,102.062149,-0.713425,3.09324,0.022682,2.075178
276236.173532,0.47331288,-0.21420135,9.77871591,0.004091,-0.001475,0.004336,-40.562653,92.580811,-103.156799,60.187883,24.830346,25.211977,15.13411,0.0,125.636054,102.062149,-0.713425,3.09324,0.022682,2.075178
276236.173532,0.47331288,-0.21420135,9.77871591,0.004091,-0.001475,0.004336,-40.562653,92.580811,-103.156799,60.187883,24.830346,25.211977,15.13411,0.0,125.636054,102.062149,-0.713425,3.09324,0.022682,2.075178
276236.233485,0.46089342000000005,-0.21106215,9.78245352,0.001423,2.7e-05,0.003315,-40.373108,92.629074,-103.561707,60.187883,24.830346,25.211977,15.13411,0.0,125.636054,102.062149,-0.713425,3.093231,0.022681,2.075175
276236.253469,0.4685256,-0.21390705000000002,9.76568823,0.003189,0.001075,0.004507,-40.490982,92.678604,-103.462296,60.187883,24.830346,25.211977,15.287485,0.0,125.636054,102.062149,-0.713425,3.093232,0.022681,2.075179
276236.273454,0.48634056000000003,-0.23052519,9.78141366,0.002957,0.000498,0.003072,-39.973572,92.769058,-103.79808,60.187883,24.830346,25.211977,15.287485,0.0,125.636054,102.062149,-0.713425,3.093234,0.022676,2.075169
276236.293438,0.47002653,-0.20551950000000002,9.76180347,0.002124,-0.000961,0.004083,-39.979996,92.908554,-103.888855,60.187883,24.830346,25.211977,15.287485,0.0,125.636054,102.062149,-0.713425,3.09325,0.022679,2.075167
276236.313422,0.47436255000000005,-0.22048956,9.76284333,0.002607,-0.000496,0.004441,-40.081512,92.908737,-103.707809,60.187883,24.830346,25.211977,15.287485,0.0,125.636054,102.062149,-0.713425,3.09326,0.022673,2.075163
276236.333406,0.47211606000000006,-0.22992678000000003,9.77003406,0.001316,-0.001141,0.004356,-40.33255,92.769653,-103.704025,60.187883,24.830346,25.211977,15.287485,0.0,125.636054,102.062149,-0.713425,3.093279,0.022678,2.075145
276236.353391,0.46807434000000003,-0.20866851000000003,9.77617512,0.00281,0.000506,0.006311,-40.353973,92.693497,-103.334763,60.187883,24.830346,25.211977,15.287485,0.0,125.636054,102.062149,-0.713425,3.093287,0.02267,2.07512
276236.373375,0.4656807,-0.2225889,9.76883724,0.004792,5.3e-05,0.00514,-39.935638,92.8405,-103.750656,60.187883,24.830346,25.211977,15.287485,0.0,125.636054,102.062149,-0.713425,3.093312,0.022675,2.075117
276236.393359,0.46074627,-0.21749751,9.771682140000001,0.003656,-5e-06,0.004788,-40.241974,92.733795,-103.498932,60.187883,24.830346,25.211977,15.287485,0.0,125.636054,102.062149,-0.713425,3.093311,0.022665,2.075103
276236.413344,0.46104057,-0.21330864,9.755515260000001,0.003301,-0.000324,0.002356,-39.953552,92.745804,-103.76384,60.187883,24.830346,25.211977,15.287485,0.0,125.636054,102.062149,-0.713425,3.093308,0.022659,2.075093
276236.433328,0.47032083,-0.2282787,9.76913154,0.004043,-0.000187,0.003055,-40.458801,92.443298,-103.350372,60.187883,24.830346,25.211977,15.287485,0.0,125.636054,102.062149,-0.713425,3.093307,0.022659,2.075085
276236.453312,0.47630493,-0.22213764000000003,9.77077962,0.002553,-0.001569,0.004627,-40.220886,92.641479,-103.34079,60.187883,24.830346,25.211977,15.287485,0.0,125.636054,102.062149,-0.713425,3.093299,0.022653,2.075091
276236.473297,0.45894123000000003,-0.22244175000000002,9.76120506,0.001276,0.000199,0.003494,-40.229187,92.717438,-103.874176,60.187883,24.830346,25.211977,15.287485,0.0,125.636054,102.062149,-0.713425,3.093303,0.022649,2.075092
276236.473297,0.45894123000000003,-0.22244175000000002,9.76120506,0.001276,0.000199,0.003494,-40.229187,92.717438,-103.874176,60.187883,24.830346,25.211977,15.287485,0.0,125.636054,102.062149,-0.713425,3.093303,0.022649,2.075092
276236.473297,0.45894123000000003,-0.22244175000000002,9.76120506,0.001276,0.000199,0.003494,-40.229187,92.717438,-103.874176,60.187883,24.830346,25.211977,15.287485,0.0,125.636054,102.062149,-0.713425,3.093303,0.022649,2.075092
276236.533249,0.47106639,-0.21240612000000003,9.7695828,0.00286,0.001395,0.004192,-40.157639,92.612488,-103.220383,60.187883,24.830346,25.211977,15.287485,0.0,125.636054,102.062149,-0.713425,3.093308,0.022661,2.075088
276236.553234,0.46448388,-0.22108797000000002,9.79323471,0.0036,0.001639,0.004482,-40.157639,92.612488,-103.220383,60.187883,24.830346,25.211977,15.287485,0.0,125.636054,102.062149,-0.713425,3.093303,0.022665,2.075084
276236.573218,0.47406825,-0.21764466000000002,9.76030254,0.003435,0.000888,0.004529,-40.127045,92.776489,-103.880539,60.187883,24.830346,25.211977,15.287485,0.0,125.636054,102.062149,-0.713425,3.093301,0.022666,2.07508
276236.593202,0.46194309,-0.20192904000000003,9.77092677,0.002928,-0.000849,0.002104,-40.329178,92.712814,-103.862411,60.187883,24.830346,25.211977,15.287485,0.0,125.636054,102.062149,-0.713425,3.09331,0.022652,2.075062
276236.613187,0.48079791,-0.21854718,9.763598700000001,0.002928,-0.000849,0.002104,-40.442764,92.516708,-103.30336,60.187883,24.830346,25.211977,15.287485,0.0,125.636054,102.062149,-0.713425,3.093318,0.022647,2.075055
276236.633171,0.46104057,-0.22199049,9.77377167,0.000853,0.000285,0.004777,-40.380829,92.531815,-103.642273,60.187883,24.830346,25.211977,15.287485,0.0,125.636054,102.062149,-0.713425,3.09331,0.02265,2.075065
276236.653155,0.47256732,-0.20582361000000002,9.775723860000001,0.00456,-0.002651,0.004648,-40.18364,92.775604,-103.635529,60.187883,24.830346,25.211977,15.287485,0.0,125.636054,102.062149,-0.713425,3.093315,0.022648,2.075054
276236.673139,0.47106639,-0.22632651000000004,9.78036399,0.001914,0.000218,0.004778,-40.191605,92.662201,-103.474915,60.187883,24.830346,25.211977,15.287485,0.0,125.636054,102.062149,-0.713425,3.093315,0.022637,2.07505
276236.713108,0.46538640000000003,-0.22438413000000001,9.77422293,0.003755,0.002091,0.002215,-40.513733,92.481277,-103.39534,60.187883,24.830346,25.211977,15.287485,0.0,125.636054,102.062149,-0.713425,3.093343,0.022612,2.075041
276236.713108,0.46538640000000003,-0.22438413000000001,9.77422293,0.003755,0.002091,0.002215,-40.513733,92.481277,-103.39534,60.187883,24.830346,25.211977,15.287485,0.0,125.636054,102.062149,-0.713425,3.093343,0.022612,2.075041
276236.753077,0.47795301,-0.21943989,9.77437008,0.003508,-0.000581,0.003521,-40.401855,92.52919,-103.699265,60.187883,24.830346,25.211977,15.287485,0.0,125.636054,102.062149,-0.713425,3.093355,0.022588,2.075036
276236.773061,0.46882971,-0.21780162,9.76688505,0.005446,-0.001753,0.002916,-40.192307,92.670944,-103.68663,60.187883,24.830346,25.211977,15.287485,0.0,125.636054,102.062149,-0.713425,3.093354,0.022578,2.075024
276236.773061,0.46882971,-0.21780162,9.76688505,0.005446,-0.001753,0.002916,-40.192307,92.670944,-103.68663,60.187883,24.830346,25.211977,15.287485,0.0,125.636054,102.062149,-0.713425,3.093354,0.022578,2.075024
276236.773061,0.46882971,-0.21780162,9.76688505,0.005446,-0.001753,0.002916,-40.192307,92.670944,-103.68663,60.187883,24.830346,25.211977,15.287485,0.0,125.636054,102.062149,-0.713425,3.093354,0.022578,2.075024
276236.833014,0.47406825,-0.21659499000000002,9.76120506,0.002215,-0.001448,0.004841,-40.344666,92.639771,-103.621384,60.187883,24.830346,25.211977,15.287485,0.0,125.636054,102.062149,-0.713425,3.093364,0.022572,2.075021
276236.852998,0.47017368,-0.22034241,9.76195062,0.002916,0.000545,0.00468,-40.005966,92.717133,-103.630463,60.187883,24.830346,25.211977,15.287485,0.0,125.636054,102.062149,-0.713425,3.093372,0.02258,2.07502
276236.872983,0.47541222,-0.20866851000000003,9.75776175,0.003564,0.001368,0.004974,-40.23909,92.502045,-103.456207,60.187883,24.830346,25.211977,15.287485,0.0,125.636054,102.062149,-0.713425,3.093379,0.022575,2.075022
276236.892967,0.47601063,-0.21285737999999998,9.771976440000001,0.00409,-0.001077,0.004007,-40.152588,92.865265,-103.31044,60.187883,24.830346,25.211977,15.287485,0.0,125.636054,102.062149,-0.713425,3.093378,0.022571,2.07502
276236.912951,0.46178613,-0.2225889,9.77991273,0.003948,-0.000516,0.00337,-40.286865,92.622528,-103.56665,60.187883,24.830346,25.211977,15.287485,0.0,125.636054,102.062149,-0.713425,3.093371,0.022565,2.075012
276236.932935,0.46882971,-0.21914559000000003,9.760155390000001,0.002868,0.000599,0.003681,-40.11171,92.792313,-103.653244,60.187883,24.830346,25.211977,15.287485,0.0,125.636054,102.062149,-0.713425,3.093365,0.022565,2.075006
276236.95292,0.45819567,-0.21465261000000002,9.765246780000002,0.003292,-0.00066,0.004235,-39.947433,92.646515,-103.806976,60.187883,24.830346,25.211977,15.287485,0.0,125.636054,102.062149,-0.713425,3.093357,0.022559,2.074998
276236.972904,0.47211606000000006,-0.21735036,9.76704201,0.002186,-0.001193,0.00553,-40.635635,92.408096,-103.223618,60.187883,24.830346,25.211977,15.287485,0.0,125.636054,102.062149,-0.713425,3.093358,0.022548,2.074986
276236.992888,0.46837845000000006,-0.21943989,9.76195062,0.005345,0.001278,0.004708,-40.19043,92.618362,-103.705048,60.187883,24.830346,25.211977,15.287485,0.0,125.636054,102.062149,-0.713425,3.093357,0.022551,2.074974
276237.012873,0.46149183000000005,-0.25207776000000004,9.76628664,-0.000308,-0.000107,0.003316,-39.993774,92.609909,-103.823349,60.187883,24.830346,25.211977,15.287485,0.0,125.636054,102.062149,-0.713425,3.093362,0.022567,2.074979
276237.032857,0.49172625000000003,-0.1907064,9.78859458,0.004464,-0.000305,0.001742,-40.386765,92.692963,-103.502686,60.187883,24.830346,25.211977,15.287485,0.0,125.636054,102.062149,-0.713425,3.093362,0.022567,2.074949
276237.052841,0.46822149,-0.23964849,9.771976440000001,0.002893,0.00174,0.004915,-40.507324,92.566711,-103.156982,60.187883,24.830346,25.211977,15.287485,0.0,125.636054,102.063828,-0.85611,3.093361,0.022559,2.074955
276237.072826,0.47062494000000005,-0.22663062000000003,9.76434426,0.001337,-0.00056,0.003396,-40.474335,92.396103,-103.584045,60.187883,24.830346,25.211977,15.287485,0.0,125.636054,102.063828,-0.85611,3.093366,0.022567,2.074954
276237.072826,0.47062494000000005,-0.22663062000000003,9.76434426,0.001337,-0.00056,0.003396,-40.474335,92.396103,-103.584045,60.187883,24.830346,25.211977,15.287485,0.0,125.636054,102.063828,-0.85611,3.093366,0.022567,2.074954
276237.072826,0.47062494000000005,-0.22663062000000003,9.76434426,0.001337,-0.00056,0.003396,-40.474335,92.396103,-103.584045,60.187883,24.830346,25.211977,15.287485,0.0,125.636054,102.063828,-0.85611,3.093366,0.022567,2.074954
276237.072826,0.47062494000000005,-0.22663062000000003,9.76434426,0.001337,-0.00056,0.003396,-40.474335,92.396103,-103.584045,60.187883,24.830346,25.211977,15.287485,0.0,125.636054,102.063828,-0.85611,3.093366,0.022567,2.074954
276237.112794,0.47765871,-0.22199049,9.77617512,0.00397,-0.0015,0.004097,-40.49176,92.516068,-103.387924,60.187883,24.830346,25.211977,15.287485,0.0,125.636054,102.063828,-0.85611,3.093383,0.022569,2.074933
276237.172747,0.47930679000000004,-0.22812174000000002,9.76688505,0.003621,0.001813,0.004119,-40.464584,92.624954,-103.308517,60.187883,24.830346,25.211977,15.287485,0.0,125.636054,102.063828,-0.85611,3.093395,0.022565,2.074927
276237.192731,0.47242017000000003,-0.23201631,9.77422293,0.002389,0.000925,0.00501,-40.162811,92.700806,-103.471283,60.187883,24.830346,25.211977,15.287485,0.0,125.636054,102.063828,-0.85611,3.093391,0.022567,2.07492
276237.212716,0.44726733,-0.20776599,9.76628664,0.005502,0.001611,0.003114,-40.011002,92.801437,-103.482574,60.187883,24.830346,25.211977,15.287485,0.0,125.636054,102.063828,-0.85611,3.093395,0.022567,2.07492
276237.2327,0.47046798,-0.22378572,9.767787570000001,0.002711,0.000417,0.004398,-40.011002,92.801437,-103.482574,60.187883,24.830346,25.211977,15.287485,0.0,125.636054,102.063828,-0.85611,3.093399,0.022572,2.074915
276237.252684,0.46343421,-0.2168991,9.756113670000001,0.002809,-0.002609,0.003642,-40.662643,92.441864,-103.004883,60.187883,24.830346,25.211977,15.276961,0.0,125.636054,102.063828,-0.85611,3.093414,0.022572,2.074907
276237.272669,0.46807434000000003,-0.21075804,9.780658290000002,0.003574,0.001322,0.003582,-40.05896,92.939011,-103.708939,60.187883,24.830346,25.211977,15.276961,0.0,125.636054,102.063828,-0.85611,3.093402,0.022571,2.074914
276237.292653,0.47570652,-0.22483539,9.79203789,0.002565,-0.00025,0.005166,-40.188675,92.718903,-103.447266,60.187883,24.830346,25.211977,15.276961,0.0,125.636054,102.063828,-0.85611,3.093411,0.022565,2.074912
276237.332621,0.48529089000000003,-0.2200383,9.77871591,0.00249,0.00038,0.004639,-40.650681,92.481781,-103.21994,60.187883,24.830346,25.211977,15.276961,0.0,125.636054,102.063828,-0.85611,3.093438,0.022553,2.0749
276237.332621,0.48529089000000003,-0.2200383,9.77871591,0.00249,0.00038,0.004639,-40.650681,92.481781,-103.21994,60.187883,24.830346,25.211977,15.276961,0.0,125.636054,102.063828,-0.85611,3.093438,0.022553,2.0749
276237.37259,0.46822149,-0.21584943000000004,9.75671208,0.00352,0.001915,0.000748,-40.317429,92.768387,-103.208954,60.187883,24.830346,25.211977,15.276961,0.0,125.636054,102.063828,-0.85611,3.093455,0.022562,2.074897
276237.37259,0.46822149,-0.21584943000000004,9.75671208,0.00352,0.001915,0.000748,-40.317429,92.768387,-103.208954,60.187883,24.830346,25.211977,15.276961,0.0,125.636054,102.063828,-0.85611,3.093455,0.022562,2.074897
276237.37259,0.46822149,-0.21584943000000004,9.75671208,0.00352,0.001915,0.000748,-40.317429,92.768387,-103.208954,60.187883,24.830346,25.211977,15.276961,0.0,125.636054,102.063828,-0.85611,3.093455,0.022562,2.074897
276237.412559,0.4596966,-0.21390705000000002,9.77512545,0.002289,0.000535,0.003137,-40.185577,92.595047,-103.589554,60.187883,24.830346,25.211977,15.276961,0.0,125.636054,102.063828,-0.85611,3.093476,0.022563,2.074916
276237.452527,0.47226321000000004,-0.21570228000000002,9.76300029,0.002892,-0.001529,0.005165,-40.111938,92.659897,-103.415741,60.187883,24.830346,25.211977,15.276961,0.0,125.636054,102.063828,-0.85611,3.093488,0.022581,2.074923
276237.472512,0.46418958,-0.2137599,9.76224492,0.002522,-0.000153,0.003364,-40.095657,92.711395,-103.409698,60.187883,24.830346,25.211977,15.276961,0.0,125.636054,102.063828,-0.85611,3.093488,0.022572,2.074901
276237.492496,0.47406825,-0.21570228000000002,9.77287896,0.003445,0.000966,0.003912,-40.002945,92.872589,-103.708618,60.187883,24.830346,25.211977,15.276961,0.0,125.636054,102.063828,-0.85611,3.093473,0.022583,2.0749
276237.51248,0.4543011,-0.21884148000000003,9.76599234,0.003839,8e-06,0.003907,-40.304398,92.598114,-102.927658,60.187883,24.830346,25.211977,15.276961,0.0,125.636054,102.063828,-0.85611,3.093468,0.022583,2.074914
276237.532465,0.46792719,-0.21495672000000002,9.76224492,0.004246,-0.000322,0.002402,-39.85051,92.903152,-103.543915,60.187883,24.830346,25.211977,15.276961,0.0,125.636054,102.063828,-0.85611,3.093465,0.022564,2.074904
276237.552449,0.47660904000000004,-0.21794877000000001,9.76149936,0.002728,8.5e-05,0.004024,-39.880264,92.920151,-103.716949,60.187883,24.830346,25.211977,15.276961,0.0,125.636054,102.063828,-0.85611,3.093473,0.022548,2.074914
276237.552449,0.47660904000000004,-0.21794877000000001,9.76149936,0.002728,8.5e-05,0.004024,-39.880264,92.920151,-103.716949,60.187883,24.830346,25.211977,15.276961,0.0,125.636054,102.063828,-0.85611,3.093473,0.022548,2.074914
276237.552449,0.47660904000000004,-0.21794877000000001,9.76149936,0.002728,8.5e-05,0.004024,-39.880264,92.920151,-103.716949,60.187883,24.830346,25.211977,15.276961,0.0,125.636054,102.063828,-0.85611,3.093473,0.022548,2.074914
276237.612402,0.46373832000000004,-0.21854718,9.775272600000001,0.002613,-0.001947,0.004647,-39.878555,92.77034,-103.315842,60.187883,24.830346,25.211977,15.276961,0.0,125.636054,102.063828,-0.85611,3.09348,0.022529,2.074889
276237.632386,0.47825712,-0.21824307,9.78036399,0.001935,0.000223,0.003803,-40.143906,92.938263,-103.191452,60.187883,24.830346,25.211977,15.276961,0.0,125.636054,102.063828,-0.85611,3.093472,0.022533,2.074897
276237.65237,0.46882971,-0.21854718,9.78485697,0.003277,0.000288,0.004549,-39.974213,93.089111,-103.318237,60.187883,24.830346,25.211977,15.276961,0.0,125.636054,102.063828,-0.85611,3.093465,0.022534,2.074882
276237.672355,0.46433673000000003,-0.21525102000000002,9.77003406,0.004033,-0.000179,0.004748,-40.212952,92.696991,-103.10495,60.187883,24.830346,25.211977,15.276961,0.0,125.636054,102.063828,-0.85611,3.093474,0.022522,2.07489
276237.672355,0.46433673000000003,-0.21525102000000002,9.77003406,0.004033,-0.000179,0.004748,-40.212952,92.696991,-103.10495,60.187883,24.830346,25.211977,15.276961,0.0,125.636054,102.063828,-0.85611,3.093474,0.022522,2.07489
276237.672355,0.46433673000000003,-0.21525102000000002,9.77003406,0.004033,-0.000179,0.004748,-40.212952,92.696991,-103.10495,60.187883,24.830346,25.211977,15.276961,0.0,125.636054,102.063828,-0.85611,3.093474,0.022522,2.07489
276237.732308,0.46194309,-0.22199049,9.77077962,0.003556,-0.001814,0.004113,-40.028809,92.766937,-103.546616,60.187883,24.830346,25.211977,15.276961,0.0,125.636054,102.063828,-0.85611,3.093453,0.022509,2.074866
276237.752292,0.44891541000000007,-0.23186916000000002,9.74877579,0.002596,-0.003831,0.003263,-40.120163,92.758499,-103.257751,60.187883,24.830346,25.211977,15.276961,0.0,125.636054,102.063828,-0.85611,3.093454,0.022512,2.074864
276237.772276,0.46149183000000005,-0.22962267000000003,9.768385980000001,0.003952,-0.001644,0.004442,-40.553223,92.69133,-103.169754,60.187883,24.830346,25.211977,15.276961,0.0,125.636054,102.063828,-0.85611,3.093465,0.02251,2.074884
276237.792261,0.47062494000000005,-0.19264878,9.76988691,0.004361,-0.001498,0.005002,-39.926697,92.781479,-103.762085,60.187883,24.830346,25.211977,15.276961,0.0,125.636054,102.063828,-0.85611,3.093467,0.022495,2.074868
276237.812245,0.4596966,-0.22034241,9.76883724,0.001949,0.001736,0.005449,-39.887146,92.96167,-103.610672,60.187883,24.830346,25.211977,15.276961,0.0,125.636054,102.063828,-0.85611,3.093473,0.022472,2.074862
276237.832229,0.47541222,-0.22168638000000002,9.78141366,0.002316,-7.8e-05,0.003412,-40.057693,92.904053,-103.542236,60.187883,24.830346,25.211977,15.276961,0.0,125.636054,102.063828,-0.85611,3.093483,0.022484,2.07487
276237.872198,0.47301858,-0.21659499000000002,9.77048532,0.003105,-0.000656,0.005684,-39.915207,92.581192,-103.650787,60.187883,24.830346,25.211977,15.276961,0.0,125.636054,102.063828,-0.85611,3.0935,0.022503,2.074861
276237.892182,0.45670455000000004,-0.22318731000000003,9.764795520000002,0.003215,-0.001282,0.003842,-39.908249,92.80307,-103.660477,60.187883,24.830346,25.211977,15.276961,0.0,125.636054,102.063828,-0.85611,3.093508,0.022485,2.07486
276237.912166,0.45849978,-0.21615354000000003,9.765246780000002,0.003824,-0.000647,0.004887,-39.833054,92.952026,-103.637894,60.187883,24.830346,25.211977,15.276961,0.0,125.636054,102.063828,-0.85611,3.093505,0.02249,2.074843
276237.912166,0.45849978,-0.21615354000000003,9.765246780000002,0.003824,-0.000647,0.004887,-39.833054,92.952026,-103.637894,60.187883,24.830346,25.211977,15.276961,0.0,125.636054,102.063828,-0.85611,3.093505,0.02249,2.074843
276237.952135,0.47032083,-0.22722903,9.77766624,0.002339,-0.001312,0.004148,-39.899948,92.847076,-103.930344,60.187883,24.830346,25.211977,15.276961,0.0,125.636054,102.063828,-0.85611,3.093491,0.022473,2.074837
276237.972119,0.4716648,-0.21151341,9.772280550000001,0.002731,0.000195,0.003787,-40.257126,92.690063,-103.287659,60.187883,24.830346,25.211977,15.276961,0.0,125.636054,102.063828,-0.85611,3.093482,0.022474,2.074847
276237.972119,0.4716648,-0.21151341,9.772280550000001,0.002731,0.000195,0.003787,-40.257126,92.690063,-103.287659,60.187883,24.830346,25.211977,15.276961,0.0,125.636054,102.063828,-0.85611,3.093482,0.022474,2.074847
276237.972119,0.4716648,-0.21151341,9.772280550000001,0.002731,0.000195,0.003787,-40.257126,92.690063,-103.287659,60.187883,24.830346,25.211977,15.276961,0.0,125.636054,102.063828,-0.85611,3.093482,0.022474,2.074847
276238.012088,0.47974824000000005,-0.21914559000000003,9.767934720000001,0.002703,0.000224,0.004008,-40.158554,92.708527,-103.814346,60.187883,24.830346,25.211977,15.276961,0.0,125.636054,102.063828,-0.85611,3.093483,0.022485,2.07485
276238.052057,0.47062494000000005,-0.22228479,9.77661657,0.002792,-0.000664,0.005957,-40.506912,92.672165,-103.024323,60.187883,24.830346,25.211977,15.276961,0.0,125.636054,102.063828,-0.85611,3.093499,0.022505,2.07488
276238.072041,0.45939249000000004,-0.22378572,9.76943565,0.002952,0.000388,0.004858,-40.117447,92.546143,-103.654663,60.187883,24.830346,25.211977,15.276961,0.0,125.636054,102.063828,-0.85611,3.093504,0.022519,2.074873
276238.092025,0.45670455000000004,-0.2140542,9.77721498,0.001998,-0.001124,0.005746,-40.129639,92.736923,-103.757065,60.187883,24.830346,25.211977,15.276961,0.0,125.636054,102.063828,-0.85611,3.093516,0.022517,2.07486
276238.11201,0.47601063,-0.22048956,9.75341592,0.003541,0.000162,0.004187,-40.156464,92.722824,-103.643478,60.187883,24.830346,25.211977,15.276961,0.0,125.636054,102.063828,-0.85611,3.093512,0.022516,2.074854
276238.11201,0.47601063,-0.22048956,9.75341592,0.003541,0.000162,0.004187,-40.156464,92.722824,-103.643478,60.187883,24.830346,25.211977,15.276961,0.0,125.636054,102.063828,-0.85611,3.093512,0.022516,2.074854
276238.151978,0.46163898000000003,-0.21015963000000001,9.775272600000001,0.003851,-0.000356,0.0024,-40.212219,92.514908,-103.531113,60.187883,24.830346,25.211977,15.276961,0.0,125.636054,102.065536,-0.993511,3.093522,0.022503,2.074855
276238.171962,0.45909819,-0.21465261000000002,9.78185511,0.003631,0.000913,0.004081,-39.859985,92.639374,-103.360138,60.187883,24.830346,25.211977,15.276961,0.0,125.636054,102.065536,-0.993511,3.093525,0.022502,2.074855
276238.191947,0.46313991000000004,-0.23560677000000002,9.77422293,0.002429,-0.00075,0.003,-39.915115,92.786987,-103.775116,60.187883,24.830346,25.211977,15.276961,0.0,125.636054,102.065536,-0.993511,3.093515,0.022495,2.074867
276238.211931,0.46089342000000005,-0.22244175000000002,9.77032836,0.002489,-0.001041,0.003742,-40.130829,92.721939,-103.469971,60.187883,24.830346,25.211977,15.276961,0.0,125.636054,102.065536,-0.993511,3.09353,0.022505,2.074865
276238.231915,0.47331288,-0.20507805,9.77512545,0.001784,-0.000192,0.004017,-40.107697,92.677383,-103.522995,60.187883,24.830346,25.211977,15.276961,0.0,125.636054,102.065536,-0.993511,3.093523,0.0225,2.074868
276238.231915,0.47331288,-0.20507805,9.77512545,0.001784,-0.000192,0.004017,-40.107697,92.677383,-103.522995,60.187883,24.830346,25.211977,15.276961,0.0,125.636054,102.065536,-0.993511,3.093523,0.0225,2.074868
276238.271884,0.46942812,-0.22199049,9.77032836,0.004445,-0.001072,0.003063,-40.186478,92.663757,-103.807083,60.187883,24.830346,25.211977,15.334558,0.0,125.636054,102.065536,-0.993511,3.09354,0.022496,2.074869
276238.271884,0.46942812,-0.22199049,9.77032836,0.004445,-0.001072,0.003063,-40.186478,92.663757,-103.807083,60.187883,24.830346,25.211977,15.334558,0.0,125.636054,102.065536,-0.993511,3.09354,0.022496,2.074869
276238.271884,0.46942812,-0.22199049,9.77032836,0.004445,-0.001072,0.003063,-40.186478,92.663757,-103.807083,60.187883,24.830346,25.211977,15.334558,0.0,125.636054,102.065536,-0.993511,3.09354,0.022496,2.074869
276238.331837,0.46807434000000003,-0.23022108,9.780962400000002,0.002046,-0.001058,0.00418,-40.278885,92.403503,-103.388382,60.187883,24.830346,25.211977,15.334558,0.0,125.636054,102.065536,-0.993511,3.093551,0.02249,2.074868
276238.351821,0.45774441000000005,-0.20372427,9.77960862,0.003494,0.001604,0.002863,-40.352646,92.421234,-103.365997,60.187883,24.830346,25.211977,15.334558,0.0,125.636054,102.065536,-0.993511,3.093546,0.022496,2.074863
276238.371806,0.46373832000000004,-0.20611791,9.77302611,0.002649,-0.000262,0.00473,-40.049194,92.617828,-103.636276,60.187883,24.830346,25.211977,15.334558,0.0,125.636054,102.065536,-0.993511,3.093543,0.022484,2.074858
276238.371806,0.46373832000000004,-0.20611791,9.77302611,0.002649,-0.000262,0.00473,-40.049194,92.617828,-103.636276,60.187883,24.830346,25.211977,15.334558,0.0,125.636054,102.065536,-0.993511,3.093543,0.022484,2.074858
276238.411774,0.48559500000000005,-0.20881566000000001,9.767934720000001,0.001985,-0.000705,0.00513,-40.107056,92.59697,-103.414703,60.187883,24.830346,25.211977,15.334558,0.0,125.636054,102.065536,-0.993511,3.093548,0.022498,2.074834
276238.431759,0.47287143000000004,-0.22423698,9.77646942,0.003623,-0.000619,0.00479,-40.014343,92.591629,-103.554749,60.187883,24.830346,25.211977,15.334558,0.0,125.636054,102.065536,-0.993511,3.093563,0.022504,2.074836
276238.451743,0.46718163,-0.21644784,9.77362452,0.003916,0.000189,0.005188,-39.985123,92.702194,-103.616196,60.187883,24.830346,25.211977,15.334558,0.0,125.636054,102.065536,-0.993511,3.093558,0.022499,2.07484
276238.471727,0.47660904000000004,-0.21914559000000003,9.77706783,0.004127,-0.000721,0.003367,-40.229675,92.472366,-103.635864,60.187883,24.830346,25.211977,15.334558,0.0,125.636054,102.065536,-0.993511,3.093558,0.022493,2.074838
276238.491712,0.46598481,-0.20522520000000002,9.77706783,0.00344,-0.000345,0.002286,-40.396286,92.391983,-103.102234,60.187883,24.830346,25.211977,15.334558,0.0,125.636054,102.065536,-0.993511,3.093557,0.022489,2.074851
276238.511696,0.4713705,-0.22063671,9.77003406,0.004635,0.00039,0.002975,-40.11647,92.937515,-103.682709,60.187883,24.830346,25.211977,15.334558,0.0,125.636054,102.065536,-0.993511,3.093557,0.022484,2.074842
276238.53168,0.47361699000000007,-0.2228832,9.76090095,0.003525,-0.000892,0.003553,-40.190964,92.782684,-103.66185,60.187883,24.830346,25.211977,15.334558,0.0,125.636054,102.065536,-0.993511,3.093556,0.022478,2.074834
276238.551664,0.45894123000000003,-0.21780162,9.77871591,0.003323,-0.002291,0.005831,-40.005112,92.964203,-103.51857,60.187883,24.830346,25.211977,15.334558,0.0,125.636054,102.065536,-0.993511,3.09357,0.022464,2.074829
276238.591633,0.47840427,-0.21345579,9.7692885,0.002307,-0.000262,0.004938,-40.15654,92.611649,-103.306213,60.187883,24.830346,25.211977,15.334558,0.0,125.636054,102.065536,-0.993511,3.09356,0.022442,2.074812
276238.591633,0.47840427,-0.21345579,9.7692885,0.002307,-0.000262,0.004938,-40.15654,92.611649,-103.306213,60.187883,24.830346,25.211977,15.334558,0.0,125.636054,102.065536,-0.993511,3.09356,0.022442,2.074812
276238.611617,0.46238454000000007,-0.23576373,9.77826465,0.001112,-0.000321,0.00299,-40.047775,92.736679,-103.551682,60.187883,24.830346,25.211977,15.334558,0.0,125.636054,102.065536,-0.993511,3.093562,0.02244,2.074817
276238.631602,0.45415395000000003,-0.21615354000000003,9.759409830000001,0.003257,-0.000253,0.003387,-40.047775,92.736679,-103.551682,60.187883,24.830346,25.211977,15.334558,0.0,125.636054,102.065536,-0.993511,3.093554,0.022448,2.074808
276238.67157,0.46822149,-0.23366439,9.7547697,0.003154,-0.000146,0.004378,-40.335037,92.578125,-103.182053,60.187883,24.830346,25.211977,15.334558,0.0,125.636054,102.065536,-0.993511,3.09354,0.02245,2.074818
276238.691555,0.46029501,-0.21599658,9.75805605,0.002947,-0.000864,0.005008,-40.093201,92.80072,-103.143478,60.187883,24.830346,25.211977,15.334558,0.0,125.636054,102.065536,-0.993511,3.093547,0.022453,2.074832
276238.711539,0.47151765,-0.20178189000000002,9.759851280000001,0.004607,-0.000733,0.004231,-40.051651,92.813461,-103.319275,60.187883,24.830346,25.211977,15.334558,0.0,125.636054,102.065536,-0.993511,3.093548,0.022444,2.074819
276238.731523,0.46957527000000004,-0.22498254,9.76240188,0.002136,-0.001794,0.005965,-39.901245,92.779816,-103.381409,60.187883,24.830346,25.211977,15.334558,0.0,125.636054,102.065536,-0.993511,3.093549,0.022453,2.074813
276238.751508,0.47062494000000005,-0.22304016000000002,9.78110955,0.001414,-0.000652,0.0053,-40.151566,92.85321,-103.293884,60.187883,24.830346,25.211977,15.334558,0.0,125.636054,102.065536,-0.993511,3.093553,0.022439,2.0748
276238.751508,0.47062494000000005,-0.22304016000000002,9.78110955,0.001414,-0.000652,0.0053,-40.151566,92.85321,-103.293884,60.187883,24.830346,25.211977,15.334558,0.0,125.636054,102.065536,-0.993511,3.093553,0.022439,2.0748
276238.791476,0.45819567,-0.22363857000000004,9.771378030000001,0.00311,0.001335,0.003635,-39.981094,92.892014,-103.421387,60.187883,24.830346,25.211977,15.334558,0.0,125.636054,102.065536,-0.993511,3.093551,0.022468,2.074804
276238.811461,0.46673037000000006,-0.22273605000000002,9.780511140000002,0.002698,0.00093,0.003334,-40.145325,92.833084,-103.668884,60.187883,24.830346,25.211977,15.334558,0.0,125.636054,102.065536,-0.993511,3.093546,0.022466,2.074794
276238.831445,0.47570652,-0.21720321,9.76628664,0.003601,0.000141,0.005907,-39.98143,92.944839,-103.479187,60.187883,24.830346,25.211977,15.334558,0.0,125.636054,102.065536,-0.993511,3.093556,0.022462,2.074807
276238.831445,0.47570652,-0.21720321,9.76628664,0.003601,0.000141,0.005907,-39.98143,92.944839,-103.479187,60.187883,24.830346,25.211977,15.334558,0.0,125.636054,102.065536,-0.993511,3.093556,0.022462,2.074807
276238.831445,0.47570652,-0.21720321,9.76628664,0.003601,0.000141,0.005907,-39.98143,92.944839,-103.479187,60.187883,24.830346,25.211977,15.334558,0.0,125.636054,102.065536,-0.993511,3.093556,0.022462,2.074807
276238.891398,0.46343421,-0.21211182,9.7667379,0.002007,-0.001139,0.003874,-39.952576,92.829163,-103.281525,60.187883,24.830346,25.211977,15.334558,0.0,125.636054,102.065536,-0.993511,3.093556,0.02247,2.074808
276238.891398,0.46343421,-0.21211182,9.7667379,0.002007,-0.001139,0.003874,-39.952576,92.829163,-103.281525,60.187883,24.830346,25.211977,15.334558,0.0,125.636054,102.065536,-0.993511,3.093556,0.02247,2.074808
276238.931367,0.48065076,-0.22378572,9.77422293,0.002415,0.000633,0.003202,-40.331802,92.526077,-103.099121,60.187883,24.830346,25.211977,15.334558,0.0,125.636054,102.065536,-0.993511,3.093558,0.022483,2.074813
276238.951351,0.47825712,-0.21316148999999998,9.775723860000001,0.003057,0.001097,0.004608,-39.849487,93.075256,-103.278732,60.187883,24.830346,25.211977,15.334558,0.0,125.636054,102.065536,-0.993511,3.093554,0.02248,2.074802
276238.971335,0.47436255000000005,-0.22632651000000004,9.77377167,0.003411,-0.000128,0.002566,-40.03334,92.839203,-103.270065,60.187883,24.830346,25.211977,15.334558,0.0,125.636054,102.065536,-0.993511,3.093565,0.022485,2.074799
276238.99132,0.46807434000000003,-0.22483539,9.76913154,0.002786,0.000396,0.003397,-39.981567,92.974701,-103.567322,60.187883,24.830346,25.211977,15.334558,0.0,125.636054,102.065536,-0.993511,3.09357,0.022479,2.074791
276239.011304,0.46807434000000003,-0.21285737999999998,9.77407578,0.002907,-0.000761,0.003312,-39.948486,93.091537,-103.545395,60.187883,24.830346,25.211977,15.334558,0.0,125.636054,102.065536,-0.993511,3.093566,0.022485,2.074787
276239.031288,0.45804852,-0.22048956,9.76704201,0.003522,-0.001588,0.004599,-40.48436,92.633301,-103.022034,60.187883,24.830346,25.211977,15.334558,0.0,125.636054,102.065536,-0.993511,3.09356,0.022497,2.074788
276239.051272,0.46582785000000004,-0.22737618,9.77317326,0.001817,-0.002044,0.003272,-40.020828,93.038391,-103.245926,60.187883,24.830346,25.211977,15.334558,0.0,125.636054,102.065536,-0.993511,3.093566,0.022502,2.074789
276239.071257,0.48364281,-0.20043792,9.774968490000001,0.003999,0.000879,0.004416,-40.240921,92.771713,-103.013672,60.187883,24.830346,25.211977,15.334558,0.0,125.636054,102.065536,-0.993511,3.093562,0.022499,2.074775
276239.091241,0.47017368,-0.22393287,9.76584519,0.003915,-0.00025,0.003366,-39.970398,92.919876,-103.247803,60.187883,24.830346,25.211977,15.334558,0.0,125.636054,102.065536,-0.993511,3.093568,0.022494,2.07479
276239.111225,0.46209024000000004,-0.21615354000000003,9.76090095,0.002651,-0.00023,0.00436,-40.382553,92.784897,-103.139481,60.187883,24.830346,25.211977,15.334558,0.0,125.636054,102.065536,-0.993511,3.093568,0.022485,2.074773
276239.13121,0.46582785000000004,-0.20881566000000001,9.7692885,0.003541,-0.000814,0.002587,-40.203293,92.58049,-103.228409,60.187883,24.830346,25.211977,15.334558,0.0,125.636054,102.065536,-0.993511,3.09357,0.022474,2.074773
276239.151194,0.47017368,-0.21450546,9.764795520000002,0.005348,-0.001763,0.00378,-40.052872,92.852417,-103.377518,60.187883,24.830346,25.211977,15.334558,0.0,125.636054,102.065536,-0.993511,3.093559,0.022491,2.074779
276239.171178,0.46104057,-0.23696055000000002,9.75716334,0.003434,-0.001081,0.004007,-40.092834,92.811356,-102.925186,60.187883,24.830346,25.211977,15.334558,0.0,125.636054,102.065536,-0.993511,3.093547,0.022491,2.074783
276239.191163,0.46747593000000004,-0.21943989,9.768385980000001,0.0027,-0.001575,0.005896,-40.680298,92.449066,-103.30191,60.187883,24.830346,25.211977,15.334558,0.0,125.636054,102.065536,-0.993511,3.093537,0.02248,2.074794
276239.191163,0.46747593000000004,-0.21943989,9.768385980000001,0.0027,-0.001575,0.005896,-40.680298,92.449066,-103.30191,60.187883,24.830346,25.211977,15.334558,0.0,125.636054,102.065536,-0.993511,3.093537,0.02248,2.074794
276239.231131,0.47211606000000006,-0.22378572,9.76374585,0.002483,-0.000161,0.002642,-40.304428,92.74707,-103.303497,60.187883,24.830346,25.211977,15.334558,0.0,125.636054,102.066139,-1.046356,3.093559,0.02247,2.074785
276239.251116,0.45146601000000003,-0.21630069,9.7695828,0.002914,0.00079,0.003796,-39.929123,92.814682,-103.54126,60.187883,24.830346,25.211977,15.677505,0.0,125.636054,102.066139,-1.046356,3.093556,0.022462,2.074798
276239.2711,0.46388547,-0.21584943000000004,9.77601816,0.004351,0.001658,0.0044,-40.165863,92.617798,-103.137009,60.187883,24.830346,25.211977,15.677505,0.0,125.636054,102.066139,-1.046356,3.09355,0.022462,2.074804
276239.291084,0.47242017000000003,-0.22123512,9.77512545,0.004092,0.000669,0.003408,-40.440994,92.667404,-103.162643,60.187883,24.830346,25.211977,15.677505,0.0,125.636054,102.066139,-1.046356,3.093566,0.02246,2.074811
276239.311069,0.46058931000000003,-0.20941407000000004,9.79338186,0.001824,-1.5e-05,0.002665,-40.440994,92.667404,-103.162643,60.187883,24.830346,25.211977,15.677505,0.0,125.636054,102.066139,-1.046356,3.093569,0.022466,2.074805
276239.331053,0.46343421,-0.21704625,9.763598700000001,0.002844,-0.001354,0.004142,-40.349564,92.744492,-103.166672,60.187883,24.830346,25.211977,15.677505,0.0,125.636054,102.066139,-1.046356,3.09358,0.022471,2.074821
276239.351037,0.46478799,-0.21510387,9.77692068,0.003102,-0.001162,0.003968,-40.158249,93.081146,-103.445923,60.187883,24.830346,25.211977,15.677505,0.0,125.636054,102.066139,-1.046356,3.093577,0.022474,2.074828
276239.351037,0.46478799,-0.21510387,9.77692068,0.003102,-0.001162,0.003968,-40.158249,93.081146,-103.445923,60.187883,24.830346,25.211977,15.677505,0.0,125.636054,102.066139,-1.046356,3.093577,0.022474,2.074828
276239.41099,0.46298295,-0.22199049,9.774968490000001,0.002402,0.000332,0.003543,-40.228714,92.678909,-103.397095,60.187883,24.830346,25.211977,15.677505,0.0,125.636054,102.066139,-1.046356,3.093591,0.022447,2.074819
276239.430975,0.45370269,-0.20702043,9.77018121,0.003812,1.6e-05,0.004359,-40.392593,92.694107,-103.26683,60.187883,24.830346,25.211977,15.677505,0.0,125.636054,102.066139,-1.046356,3.093582,0.022442,2.074817
276239.430975,0.45370269,-0.20702043,9.77018121,0.003812,1.6e-05,0.004359,-40.392593,92.694107,-103.26683,60.187883,24.830346,25.211977,15.677505,0.0,125.636054,102.066139,-1.046356,3.093582,0.022442,2.074817
276239.470943,0.45670455000000004,-0.22782744000000002,9.77077962,0.002403,-0.000946,0.003581,-40.591736,92.608734,-103.243057,60.187883,24.830346,25.211977,15.677505,0.0,125.636054,102.066139,-1.046356,3.093579,0.022442,2.074809
276239.490928,0.47242017000000003,-0.21794877000000001,9.77437008,0.002996,-0.001552,0.002322,-40.420395,92.646408,-103.242081,60.187883,24.830346,25.211977,15.677505,0.0,125.636054,102.066139,-1.046356,3.093572,0.022446,2.074805
276239.490928,0.47242017000000003,-0.21794877000000001,9.77437008,0.002996,-0.001552,0.002322,-40.420395,92.646408,-103.242081,60.187883,24.830346,25.211977,15.677505,0.0,125.636054,102.066139,-1.046356,3.093572,0.022446,2.074805
276239.530896,0.46508229,-0.20551950000000002,9.77661657,0.003792,-0.00157,0.004335,-40.263657,92.903534,-103.194427,60.187883,24.830346,25.211977,15.677505,0.0,125.636054,102.066139,-1.046356,3.093571,0.022456,2.074785
276239.550881,0.46837845000000006,-0.22962267000000003,9.775871010000001,0.003792,-0.00157,0.004335,-40.249161,92.826508,-103.463486,60.187883,24.830346,25.211977,15.677505,0.0,125.636054,102.066139,-1.046356,3.093577,0.022464,2.07478
276239.570865,0.46178613,-0.23890293,9.771976440000001,0.003552,0.000293,0.004398,-40.707184,92.625885,-103.108749,60.187883,24.830346,25.211977,15.677505,0.0,125.636054,102.066139,-1.046356,3.093577,0.022457,2.074775
276239.590849,0.45489951000000006,-0.21075804,9.77706783,0.004376,-0.000309,0.004945,-40.271347,92.828201,-103.45665,60.187883,24.830346,25.211977,15.677505,0.0,125.636054,102.066139,-1.046356,3.093569,0.022453,2.074764
276239.610834,0.45714600000000005,-0.22108797000000002,9.75760479,0.004255,0.000595,0.003303,-39.993378,92.951096,-103.523422,60.187883,24.830346,25.211977,15.677505,0.0,125.636054,102.066139,-1.046356,3.093575,0.02245,2.074759
276239.630818,0.45894123000000003,-0.22498254,9.76764042,0.002749,-0.001035,0.003768,-40.495972,92.644791,-103.394516,60.187883,24.830346,25.211977,15.677505,0.0,125.636054,102.066139,-1.046356,3.093569,0.022442,2.074748
276239.650802,0.47974824000000005,-0.21106215,9.77018121,0.003047,-0.000794,0.002486,-40.410355,92.690308,-102.934967,60.187883,24.830346,25.211977,15.677505,0.0,125.636054,102.066139,-1.046356,3.093571,0.022444,2.074747
276239.650802,0.47974824000000005,-0.21106215,9.77018121,0.003047,-0.000794,0.002486,-40.410355,92.690308,-102.934967,60.187883,24.830346,25.211977,15.677505,0.0,125.636054,102.066139,-1.046356,3.093571,0.022444,2.074747
276239.690771,0.47256732,-0.22572810000000001,9.78485697,0.003113,-0.00087,0.004548,-39.909515,92.897202,-103.380035,60.187883,24.830346,25.211977,15.677505,0.0,125.636054,102.066139,-1.046356,3.093592,0.022458,2.074754
276239.710755,0.46673037000000006,-0.22168638000000002,9.78261048,0.002465,-4.9e-05,0.00417,-40.092621,92.812317,-103.167389,60.187883,24.830346,25.211977,15.677505,0.0,125.636054,102.066139,-1.046356,3.093593,0.022455,2.074757
276239.73074,0.46867275,-0.22213764000000003,9.77677353,0.002995,-0.000305,0.005545,-40.251266,92.733795,-103.107468,60.187883,24.830346,25.211977,15.677505,0.0,125.636054,102.066139,-1.046356,3.093599,0.022454,2.07475
276239.750724,0.47287143000000004,-0.21914559000000003,9.760155390000001,0.00399,0.000611,0.004141,-40.072144,92.762283,-103.706863,60.187883,24.830346,25.211977,15.677505,0.0,125.636054,102.066139,-1.046356,3.093585,0.022455,2.074764
276239.770708,0.46074627,-0.21240612000000003,9.77482134,0.002556,0.000428,0.004145,-40.324615,92.840515,-103.467224,60.187883,24.830346,25.211977,15.677505,0.0,125.636054,102.066139,-1.046356,3.093597,0.022451,2.074744
276239.790693,0.47077209,-0.21539817000000003,9.76554108,0.002956,-0.000672,0.004965,-40.030228,92.990479,-103.56955,60.187883,24.830346,25.211977,15.677505,0.0,125.636054,102.066139,-1.046356,3.093592,0.022454,2.074742
276239.790693,0.47077209,-0.21539817000000003,9.76554108,0.002956,-0.000672,0.004965,-40.030228,92.990479,-103.56955,60.187883,24.830346,25.211977,15.677505,0.0,125.636054,102.066139,-1.046356,3.093592,0.022454,2.074742
276239.830661,0.46687752000000005,-0.21749751,9.768238830000001,0.002827,-1.2e-05,0.004756,-40.480698,92.671844,-103.05603,60.187883,24.830346,25.211977,15.677505,0.0,125.636054,102.066139,-1.046356,3.093595,0.022443,2.074724
276239.850646,0.47391129,-0.21749751,9.75865446,0.002538,-0.000753,0.003673,-40.213364,92.732574,-103.296738,60.187883,24.830346,25.211977,15.677505,0.0,125.636054,102.066139,-1.046356,3.093601,0.022444,2.074731
276239.87063,0.46493514,-0.22184334,9.78005988,0.00393,-0.000454,0.003846,-40.007187,92.758057,-103.175995,60.187883,24.830346,25.211977,15.677505,0.0,125.636054,102.066139,-1.046356,3.093616,0.02245,2.074721
276239.890615,0.46209024000000004,-0.22153923,9.77737194,0.003239,-0.000316,0.002584,-40.142914,92.918289,-103.274597,60.187883,24.830346,25.211977,15.677505,0.0,125.636054,102.066139,-1.046356,3.093623,0.022445,2.074715
276239.910599,0.45953963999999997,-0.2402469,9.76599234,0.004312,0.000938,0.005359,-40.618179,92.642578,-102.369507,60.187883,24.830346,25.211977,15.677505,0.0,125.636054,102.066139,-1.046356,3.093618,0.022443,2.074723
276239.950568,0.47526507,-0.20971818000000003,9.77392863,0.004096,0.000123,0.003033,-40.201767,92.718231,-102.82431,60.187883,24.830346,25.211977,15.677505,0.0,125.636054,102.066139,-1.046356,3.093608,0.022431,2.074694
276239.950568,0.47526507,-0.20971818000000003,9.77392863,0.004096,0.000123,0.003033,-40.201767,92.718231,-102.82431,60.187883,24.830346,25.211977,15.677505,0.0,125.636054,102.066139,-1.046356,3.093608,0.022431,2.074694
276239.990536,0.46627911,-0.22617936000000002,9.77677353,0.002974,-0.00033,0.003449,-40.480011,92.5112,-103.012421,60.187883,24.830346,25.211977,15.677505,0.0,125.636054,102.066139,-1.046356,3.093618,0.02241,2.074716
276240.010521,0.47646189000000005,-0.2137599,9.77422293,0.00344,-0.003201,0.00411,-40.480011,92.5112,-103.012421,60.187883,24.830346,25.211977,15.677505,0.0,125.636054,102.066139,-1.046356,3.093623,0.022407,2.074733
276240.030505,0.46702467,-0.20747169000000001,9.76733631,0.00326,0.000645,0.005057,-40.29039,92.865036,-103.292908,60.187883,24.830346,25.211977,15.677505,0.0,125.636054,102.066139,-1.046356,3.093616,0.02241,2.074734
276240.030505,0.46702467,-0.20747169000000001,9.76733631,0.00326,0.000645,0.005057,-40.29039,92.865036,-103.292908,60.187883,24.830346,25.211977,15.677505,0.0,125.636054,102.066139,-1.046356,3.093616,0.02241,2.074734
276240.070474,0.47481381,-0.20791314000000002,9.77302611,0.004081,0.000727,0.00297,-40.27887,92.86882,-103.315063,60.187883,24.830346,25.211977,15.677505,0.0,125.636054,102.066139,-1.046356,3.093624,0.022393,2.074718
276240.090458,0.47780586,-0.21824307,9.76988691,0.003472,0.000831,0.003973,-39.942352,93.143921,-103.284164,60.187883,24.830346,25.211977,15.677505,0.0,125.636054,102.066139,-1.046356,3.093633,0.022393,2.07471
276240.090458,0.47780586,-0.21824307,9.76988691,0.003472,0.000831,0.003973,-39.942352,93.143921,-103.284164,60.187883,24.830346,25.211977,15.677505,0.0,125.636054,102.066139,-1.046356,3.093633,0.022393,2.07471
276240.110442,0.47226321000000004,-0.21899844000000002,9.784248750000001,0.00382,0.000125,0.006609,-40.488739,92.798737,-102.73288,60.187883,24.830346,25.211977,15.677505,0.0,125.636054,102.066139,-1.046356,3.093631,0.022391,2.074709
276240.150411,0.47436255000000005,-0.21809592,9.77032836,0.002997,-0.001369,0.003659,-40.122299,92.996078,-103.478989,60.187883,24.830346,25.211977,15.677505,0.0,125.636054,102.066139,-1.046356,3.093614,0.022394,2.074691
276240.170395,0.46957527000000004,-0.22408002000000002,9.783503190000001,0.003704,-0.000659,0.004632,-39.967224,93.109314,-103.33844,60.187883,24.830346,25.211977,15.677505,0.0,125.636054,102.066139,-1.046356,3.09362,0.02238,2.074697
276240.19038,0.46912401000000004,-0.21780162,9.77407578,0.003735,0.000606,0.00336,-40.335236,92.718384,-103.392731,60.187883,24.830346,25.211977,15.677505,0.0,125.636054,102.066139,-1.046356,3.093634,0.022377,2.074699
276240.210364,0.46822149,-0.21840003000000002,9.77797035,0.002853,0.000479,0.004288,-40.2397,92.947205,-103.599869,60.187883,24.830346,25.211977,15.677505,0.0,125.636054,102.066139,-1.046356,3.093638,0.022375,2.074697
276240.230348,0.47615778,-0.21764466000000002,9.787397760000001,0.004178,0.000655,0.003955,-40.036377,93.008408,-103.569107,60.187883,24.830346,25.211977,15.677505,0.0,125.636054,102.066139,-1.046356,3.093643,0.022375,2.074714
276240.250333,0.46163898000000003,-0.21899844000000002,9.76240188,0.001688,0.000207,0.002357,-39.931702,92.936401,-103.614471,60.187883,24.830346,25.211977,15.616154,0.0,125.636054,102.066139,-1.046356,3.093645,0.022373,2.074696
276240.270317,0.46732878,-0.21240612000000003,9.77077962,0.003634,-0.001239,0.004129,-40.343796,92.632385,-103.223328,60.187883,24.830346,25.211977,15.616154,0.0,125.636054,102.066139,-1.046356,3.09365,0.022384,2.074701
276240.290301,0.46433673000000003,-0.20866851000000003,9.76284333,0.003912,0.000256,0.003549,-40.162567,92.61441,-103.570663,60.187883,24.830346,25.211977,15.616154,0.0,125.636054,102.066139,-1.046356,3.093643,0.022373,2.07469
276240.310286,0.4656807,-0.22153923,9.77482134,0.003195,-0.000302,0.004026,-40.211243,92.736923,-103.4879,60.187883,24.830346,25.211977,15.616154,0.0,125.636054,102.066139,-1.046356,3.093648,0.022366,2.074682
276240.33027,0.46313991000000004,-0.21345579,9.76149936,0.002845,0.000348,0.003783,-40.124863,92.799393,-103.442719,60.187883,24.830346,25.211977,15.616154,0.0,125.636054,102.066139,-1.046356,3.09365,0.022359,2.074708
276240.350254,0.45834282000000004,-0.2200383,9.77452704,0.002711,0.000454,0.005091,-40.156952,92.678741,-103.493927,60.187883,24.830346,25.211977,15.616154,0.0,125.636054,102.066139,-1.046356,3.093673,0.02235,2.074705
276240.370239,0.46538640000000003,-0.21749751,9.765246780000002,0.002531,-0.001266,0.005672,-40.465897,92.686005,-103.185547,60.187883,24.830346,25.211977,15.616154,0.0,125.636054,102.066139,-1.046356,3.093686,0.022355,2.074707
276240.390223,0.47271447000000005,-0.21495672000000002,9.77467419,0.00248,-0.000482,0.005033,-40.264694,92.804138,-103.230881,60.187883,24.830346,25.211977,15.616154,0.0,125.636054,102.066139,-1.046356,3.093683,0.022352,2.074697
276240.410207,0.47615778,-0.21316148999999998,9.77317326,0.003292,0.000698,0.002906,-39.961105,93.160614,-103.285431,60.187883,24.830346,25.211977,15.616154,0.0,125.636054,102.066139,-1.046356,3.093678,0.022351,2.074699
276240.430192,0.46313991000000004,-0.23531247000000002,9.77422293,0.003181,-0.000688,0.003408,-40.010727,92.996887,-103.570114,60.187883,24.830346,25.211977,15.616154,0.0,125.636054,102.066139,-1.046356,3.093669,0.022361,2.074695
276240.450176,0.47017368,-0.21479976,9.77092677,0.004005,-0.000724,0.003393,-40.147354,92.851471,-103.152267,60.187883,24.830346,25.211977,15.616154,0.0,125.636054,102.066139,-1.046356,3.093659,0.022376,2.074709
276240.47016,0.4625415,-0.21211182,9.7724277,0.00206,-0.001674,0.005113,-40.018967,93.08667,-103.268768,60.187883,24.830346,25.211977,15.616154,0.0,125.636054,102.066139,-1.046356,3.093647,0.02237,2.074696
276240.490145,0.4685256,-0.21120930000000002,9.771682140000001,0.003781,-0.001295,0.00415,-40.200073,92.928528,-103.439163,60.187883,24.830346,25.211977,15.616154,0.0,125.636054,102.066139,-1.046356,3.093646,0.022374,2.074702
276240.510129,0.46118772,-0.22019526000000003,9.77333022,0.003262,-0.001472,0.004372,-40.00415,93.216599,-103.742813,60.187883,24.830346,25.211977,15.616154,0.0,125.636054,102.066139,-1.046356,3.09364,0.022372,2.074697
276240.550098,0.47301858,-0.2140542,9.77077962,0.003615,0.001189,0.004732,-40.171722,92.75502,-103.303055,60.187883,24.830346,25.211977,15.616154,0.0,125.636054,102.066139,-1.046356,3.093627,0.022361,2.074674
276240.550098,0.47301858,-0.2140542,9.77077962,0.003615,0.001189,0.004732,-40.171722,92.75502,-103.303055,60.187883,24.830346,25.211977,15.616154,0.0,125.636054,102.066139,-1.046356,3.093627,0.022361,2.074674
276240.590067,0.46163898000000003,-0.21794877000000001,9.77377167,0.001607,0.001452,0.001899,-40.13562,93.022202,-103.599701,60.187883,24.830346,25.211977,15.616154,0.0,125.636054,102.066139,-1.046356,3.093625,0.022372,2.074671
276240.610051,0.46582785000000004,-0.22273605000000002,9.78170796,0.002501,-0.000904,0.004359,-40.042496,93.225006,-103.806076,60.187883,24.830346,25.211977,15.616154,0.0,125.636054,102.066139,-1.046356,3.093645,0.022382,2.074676
276240.630035,0.46687752000000005,-0.2140542,9.77392863,0.003363,0.000349,0.004594,-40.36525,92.857269,-103.061264,60.187883,24.830346,25.211977,15.616154,0.0,125.636054,102.066139,-1.046356,3.093645,0.022391,2.074676
276240.630035,0.46687752000000005,-0.2140542,9.77392863,0.003363,0.000349,0.004594,-40.36525,92.857269,-103.061264,60.187883,24.830346,25.211977,15.616154,0.0,125.636054,102.066139,-1.046356,3.093645,0.022391,2.074676
276240.670004,0.47002653,-0.22123512,9.78185511,0.002832,-0.000282,0.003876,-40.108276,92.876236,-103.498718,60.187883,24.830346,25.211977,15.616154,0.0,125.636054,102.066139,-1.046356,3.093659,0.022385,2.074668
276240.689988,0.45819567,-0.22318731000000003,9.77108373,0.002759,0.000357,0.003749,-40.100555,93.073746,-103.274033,60.187883,24.830346,25.211977,15.616154,0.0,125.636054,102.066139,-1.046356,3.09367,0.022379,2.074678
276240.689988,0.45819567,-0.22318731000000003,9.77108373,0.002759,0.000357,0.003749,-40.100555,93.073746,-103.274033,60.187883,24.830346,25.211977,15.616154,0.0,125.636054,102.066139,-1.046356,3.09367,0.022379,2.074678
276240.709973,0.46927115999999996,-0.21884148000000003,9.7724277,0.004104,0.000313,0.00552,-40.100555,93.073746,-103.274033,60.187883,24.830346,25.211977,15.616154,0.0,125.636054,102.066139,-1.046356,3.093681,0.022383,2.074676
276240.749941,0.46089342000000005,-0.21555513,9.783807300000001,0.002404,-0.000662,0.002903,-40.252319,93.026184,-103.617172,60.187883,24.830346,25.211977,15.616154,0.0,125.636054,102.066139,-1.046356,3.093666,0.022362,2.074667
276240.78991,0.47077209,-0.21899844000000002,9.78679935,0.002194,-0.002588,0.004017,-40.036575,93.061798,-103.260941,60.187883,24.830346,25.211977,15.616154,0.0,125.636054,102.066139,-1.046356,3.093655,0.02239,2.074655
276240.809894,0.48378996,-0.22228479,9.771378030000001,0.003502,-0.001418,0.004995,-40.338013,92.910934,-103.252426,60.187883,24.830346,25.211977,15.616154,0.0,125.636054,102.066139,-1.046356,3.093656,0.022391,2.074642
276240.829879,0.4742154,-0.23306598000000003,9.768238830000001,0.004655,-0.000356,0.004869,-40.070419,93.081329,-103.104095,60.187883,24.830346,25.211977,15.616154,0.0,125.636054,102.066139,-1.046356,3.093649,0.022391,2.074645
276240.849863,0.46178613,-0.22917141000000002,9.77077962,0.002702,0.00022,0.0055,-39.82753,93.227692,-103.377045,60.187883,24.830346,25.211977,15.616154,0.0,125.636054,102.066139,-1.046356,3.093657,0.022382,2.074647
276240.869847,0.45610614000000005,-0.21285737999999998,9.79173378,0.002584,0.000645,0.004121,-40.194611,93.153946,-103.518585,60.187883,24.830346,25.211977,15.616154,0.0,125.636054,102.066139,-1.046356,3.093664,0.022372,2.074655
276240.889832,0.46343421,-0.23022108,9.76434426,0.003692,0.000402,0.003839,-40.022369,93.15567,-103.430115,60.187883,24.830346,25.211977,15.616154,0.0,125.636054,102.066139,-1.046356,3.093665,0.02238,2.074652
276240.909816,0.46837845000000006,-0.22931856000000003,9.76809168,0.004079,-0.000615,0.001653,-40.257141,93.148026,-103.040405,60.187883,24.830346,25.211977,15.616154,0.0,125.636054,102.066139,-1.046356,3.093662,0.022392,2.07467
276240.9298,0.47271447000000005,-0.20073222000000002,9.7781175,0.0046,0.000877,0.00359,-40.065445,93.047119,-103.297852,60.187883,24.830346,25.211977,15.616154,0.0,125.636054,102.066139,-1.046356,3.093668,0.022389,2.074666
276240.9298,0.47271447000000005,-0.20073222000000002,9.7781175,0.0046,0.000877,0.00359,-40.065445,93.047119,-103.297852,60.187883,24.830346,25.211977,15.616154,0.0,125.636054,102.066139,-1.046356,3.093668,0.022389,2.074666
276240.969769,0.46687752000000005,-0.21599658,9.7664436,0.002308,-0.000818,0.004645,-40.064682,93.041962,-103.442413,60.187883,24.830346,25.211977,15.616154,0.0,125.636054,102.066139,-1.046356,3.093688,0.022378,2.074679
276240.989753,0.45101475,-0.22079367,9.7812567,0.002934,-0.001162,0.004336,-40.396515,92.791626,-102.880859,60.187883,24.830346,25.211977,15.616154,0.0,125.636054,102.066139,-1.046356,3.093706,0.022375,2.074688
276240.989753,0.45101475,-0.22079367,9.7812567,0.002934,-0.001162,0.004336,-40.396515,92.791626,-102.880859,60.187883,24.830346,25.211977,15.616154,0.0,125.636054,102.066139,-1.046356,3.093706,0.022375,2.074688
276241.029722,0.46912401000000004,-0.22139208000000002,9.78290478,0.003342,-0.000346,0.003945,-40.195633,92.894104,-103.116516,60.187883,24.830346,25.211977,15.616154,0.0,125.636054,102.066139,-1.046356,3.093715,0.022375,2.074706
276241.049707,0.46448388,-0.21360294000000002,9.771829290000001,0.004151,-0.00052,0.00303,-39.881683,93.286438,-103.282623,60.187883,24.830346,25.211977,15.616154,0.0,125.636054,102.066139,-1.046356,3.093716,0.02237,2.07471
276241.069691,0.45610614000000005,-0.22048956,9.77092677,0.003316,0.000613,0.003594,-40.315231,92.842346,-103.092651,60.187883,24.830346,25.211977,15.616154,0.0,125.636054,102.066139,-1.046356,3.093711,0.022374,2.074723
276241.089675,0.46508229,-0.22019526000000003,9.765246780000002,0.004963,-0.000755,0.004678,-40.194839,92.837982,-102.890335,60.187883,24.830346,25.211977,15.616154,0.0,125.636054,102.066139,-1.046356,3.093709,0.022369,2.074736
276241.10966,0.46522944000000005,-0.21704625,9.77392863,0.002246,-0.001707,0.005039,-39.619965,93.039001,-103.339066,60.187883,24.830346,25.211977,15.616154,0.0,125.636054,102.066139,-1.046356,3.093715,0.022367,2.074754
276241.129644,0.46538640000000003,-0.21330864,9.76659075,0.001669,-0.000585,0.002926,-39.972244,92.862518,-103.010498,60.187883,24.830346,25.211977,15.616154,0.0,125.636054,102.066139,-1.046356,3.093707,0.022375,2.074762
276241.149628,0.4713705,-0.21974400000000002,9.767493270000001,0.002671,-0.000784,0.004952,-40.046799,92.892639,-103.045883,60.187883,24.830346,25.211977,15.616154,0.0,125.636054,102.066139,-1.046356,3.093716,0.022369,2.074771
276241.169613,0.46687752000000005,-0.21061089,9.77437008,0.002519,-0.000701,0.004754,-40.627167,92.639877,-102.922989,60.187883,24.830346,25.211977,15.616154,0.0,125.636054,102.066139,-1.046356,3.093726,0.022361,2.074766
276241.189597,0.47990520000000003,-0.22168638000000002,9.76404996,0.002655,0.000607,0.003567,-40.322433,92.746353,-103.177261,60.187883,24.830346,25.211977,15.616154,0.0,125.636054,102.066139,-1.046356,3.093725,0.022353,2.074755
276241.209581,0.46373832000000004,-0.21974400000000002,9.76164651,0.002422,0.00047,0.004535,-40.01561,92.675339,-103.182541,60.187883,24.830346,25.211977,15.616154,0.0,125.636054,102.066139,-1.046356,3.093723,0.022352,2.074756
276241.229566,0.47346984000000003,-0.21135645000000003,9.76628664,0.003395,0.000456,0.005061,-40.244034,92.776321,-102.907639,60.187883,24.830346,25.211977,15.616154,0.0,125.636054,102.066139,-1.046356,3.093725,0.022346,2.074768
276241.24955,0.45176031000000005,-0.21780162,9.76688505,0.001952,-0.001374,0.003931,-40.408035,92.814301,-102.839401,60.187883,24.830346,25.211977,15.416217,0.0,125.636054,102.066139,-1.046356,3.093709,0.022342,2.074749
276241.269534,0.46642626,-0.22917141000000002,9.77092677,0.002932,-0.000692,0.004873,-40.379715,92.727844,-103.344971,60.187883,24.830346,25.211977,15.416217,0.0,125.636054,102.066139,-1.046356,3.093712,0.022334,2.074755
276241.269534,0.46642626,-0.22917141000000002,9.77092677,0.002932,-0.000692,0.004873,-40.379715,92.727844,-103.344971,60.187883,24.830346,25.211977,15.416217,0.0,125.636054,102.066139,-1.046356,3.093712,0.022334,2.074755
276241.269534,0.46642626,-0.22917141000000002,9.77092677,0.002932,-0.000692,0.004873,-40.379715,92.727844,-103.344971,60.187883,24.830346,25.211977,15.416217,0.0,125.636054,102.066139,-1.046356,3.093712,0.022334,2.074755
276241.309503,0.46238454000000007,-0.2225889,9.780658290000002,0.004503,0.000601,0.006742,-40.072159,92.969833,-103.220367,60.187883,24.830346,25.211977,15.416217,0.0,125.636054,102.066139,-1.046356,3.093725,0.022327,2.074763
276241.349472,0.46403262,-0.21330864,9.75880161,0.003306,0.000547,0.002276,-40.381958,92.8396,-103.271362,60.187883,24.830346,25.211977,15.416217,0.0,125.636054,102.066139,-1.046356,3.093751,0.02231,2.074758
276241.389441,0.46658322,-0.2225889,9.77092677,0.004297,6.7e-05,0.003427,-40.190369,92.803543,-103.340714,60.187883,24.830346,25.211977,15.416217,0.0,125.636054,102.065933,-1.030502,3.093743,0.022322,2.074784
276241.409425,0.45310428,-0.2080701,9.77108373,0.004058,-0.000369,0.004585,-40.086578,92.912857,-103.624237,60.187883,24.830346,25.211977,15.416217,0.0,125.636054,102.065933,-1.030502,3.093752,0.022333,2.074791
276241.429409,0.47046798,-0.21046374,9.77617512,0.003042,-0.001285,0.003559,-40.286163,92.778793,-103.146225,60.187883,24.830346,25.211977,15.416217,0.0,125.636054,102.065933,-1.030502,3.09376,0.022315,2.074802
276241.429409,0.47046798,-0.21046374,9.77617512,0.003042,-0.001285,0.003559,-40.286163,92.778793,-103.146225,60.187883,24.830346,25.211977,15.416217,0.0,125.636054,102.065933,-1.030502,3.09376,0.022315,2.074802
276241.469378,0.47361699000000007,-0.22123512,9.77077962,0.001416,-0.001899,0.002209,-40.417572,92.723633,-103.446136,60.187883,24.830346,25.211977,15.416217,0.0,125.636054,102.065933,-1.030502,3.093763,0.022302,2.074808
276241.489362,0.47541222,-0.21644784,9.78634809,0.002841,5e-05,0.003649,-40.298447,92.776321,-103.149567,60.187883,24.830346,25.211977,15.416217,0.0,125.636054,102.065933,-1.030502,3.093752,0.022316,2.074817
276241.509347,0.45071064,-0.21120930000000002,9.77003406,0.004567,0.001329,0.003032,-40.280701,92.98378,-103.507401,60.187883,24.830346,25.211977,15.416217,0.0,125.636054,102.065933,-1.030502,3.093765,0.022318,2.074834
276241.529331,0.47211606000000006,-0.210915,9.78215922,0.003626,0.000209,0.003965,-40.634491,92.528519,-102.92865,60.187883,24.830346,25.211977,15.416217,0.0,125.636054,102.065933,-1.030502,3.093764,0.022313,2.074851
276241.549315,0.47646189000000005,-0.22019526000000003,9.767189160000001,0.001869,0.000802,0.004368,-39.997833,92.8862,-103.674347,60.187883,24.830346,25.211977,15.416217,0.0,125.636054,102.065933,-1.030502,3.093765,0.022305,2.074864
276241.5693,0.45999090000000004,-0.21001248,9.779167170000001,0.003209,0.000228,0.004424,-40.106857,93.007492,-103.379486,60.187883,24.830346,25.211977,15.416217,0.0,125.636054,102.065933,-1.030502,3.093756,0.022315,2.074852
276241.5693,0.45999090000000004,-0.21001248,9.779167170000001,0.003209,0.000228,0.004424,-40.106857,93.007492,-103.379486,60.187883,24.830346,25.211977,15.416217,0.0,125.636054,102.065933,-1.030502,3.093756,0.022315,2.074852
276241.5693,0.45999090000000004,-0.21001248,9.779167170000001,0.003209,0.000228,0.004424,-40.106857,93.007492,-103.379486,60.187883,24.830346,25.211977,15.416217,0.0,125.636054,102.065933,-1.030502,3.093756,0.022315,2.074852
276241.589284,0.46298295,-0.21974400000000002,9.77737194,0.004173,-0.001649,0.004468,-40.009064,93.084015,-103.412827,60.187883,24.830346,25.211977,15.416217,0.0,125.636054,102.065933,-1.030502,3.093761,0.022306,2.074846
276241.649237,0.46104057,-0.22108797000000002,9.7667379,0.003144,-0.000962,0.003284,-40.065094,93.033432,-103.345596,60.187883,24.830346,25.211977,15.416217,0.0,125.636054,102.065933,-1.030502,3.093762,0.02231,2.074858
276241.669222,0.46897686000000005,-0.22213764000000003,9.75880161,0.003899,0.000852,0.004352,-40.288162,92.778427,-103.279388,60.187883,24.830346,25.211977,15.416217,0.0,125.636054,102.065933,-1.030502,3.093753,0.022314,2.074873
276241.689206,0.46912401000000004,-0.2140542,9.75042387,0.003964,-0.000401,0.002384,-40.120224,92.839417,-103.583679,60.187883,24.830346,25.211977,15.416217,0.0,125.636054,102.065933,-1.030502,3.093758,0.022294,2.074886
276241.70919,0.46238454000000007,-0.22543380000000002,9.79173378,0.004178,-0.000969,0.002116,-40.43866,92.750366,-103.07457,60.187883,24.830346,25.211977,15.416217,0.0,125.636054,102.065933,-1.030502,3.093757,0.022287,2.074899
276241.729175,0.46673037000000006,-0.22617936000000002,9.74728467,0.003402,-0.000386,0.004331,-40.142822,92.840927,-103.16687,60.187883,24.830346,25.211977,15.416217,0.0,125.636054,102.065933,-1.030502,3.093749,0.022283,2.074908
