timestamp,x,y,theta,vx,vy,bias_accel_x,bias_accel_y,bias_angular_velocity,accel_x,accel_y,accel_z,gyro_x,gyro_y,gyro_z,cov_trace
1757944243.4338427,0.0,0.0,0.0,0.0,0.0,-2.6013062193861387,0.26407041700990097,0.014210752475247524,0.09894366,0.29324052,9.7547697,0.004282,-0.000296,0.003194,3.13
1757944243.4538481,0.0,0.0,0.0,0.0,0.0,-2.6013062193861387,0.26407041700990097,0.014210752475247524,0.09894366,0.29324052,9.7547697,0.004282,-0.000296,0.003194,3.13
1757944243.474186,0.0,0.0,0.0,0.0,0.0,-2.6013062193861387,0.26407041700990097,0.014210752475247524,0.0953532,0.28410741,9.78470001,0.00105,-0.000946,0.004398,3.1366019401303533
1757944243.506005,0.0,0.0,0.0,0.0,0.0,-2.6013062193861387,0.26407041700990097,0.014210752475247524,0.0953532,0.28410741,9.78470001,0.00105,-0.000946,0.004398,3.1366019401303533
1757944243.5299442,-0.018823075475879636,0.005776260502724827,0.5401700601827617,-0.4519826011861655,0.15005566785919947,-2.6013062193861387,0.26407041700990097,0.0003443829186487232,0.08772102000000001,0.28245933,9.759851280000001,0.004102,-0.000999,0.005532,0.6071426411068646
1757944243.5531154,-0.010519316055790104,0.001332741327772253,1.1185893918405068,-0.24218810812748806,0.044144415582993084,-2.6013062193861387,0.26407041700990097,0.00023043864587076374,0.09879651,0.29593827,9.76628664,0.001684,-0.001004,0.002808,0.4114944629684954
1757944243.573664,-0.012575529172016106,0.00425231305847692,1.2582734987188289,-0.26171244731948456,0.1097971991911476,-2.6013062193861387,0.26407041700990097,0.00017265553609277745,0.09774684000000002,0.28709946000000003,9.76374585,0.003872,-0.00196,0.005218,0.33393039292924476
1757944243.599448,-0.017511571203405255,0.01243799312742845,1.3495021381218022,-0.30370479879686707,0.24395325231235793,-2.6013062193861387,0.26407041700990097,0.0001141585030863198,0.11241279000000001,0.28470582,9.76434426,0.001779,0.000779,0.003663,0.2513701584504395
1757944243.6201792,-0.020325171882258474,0.016033100214554785,1.511581255494038,-0.3206065630773131,0.28386730231297724,-2.6013062193861387,0.26407041700990097,9.723310233479344e-05,0.09220419,0.28291059,9.77392863,0.00362,0.003531,0.005117,0.2217974652045327
1757944243.641113,-0.018839030654392307,0.024323408957839913,1.6450340898838345,-0.25531996496862036,0.38040228440062057,-2.6013062193861387,0.26407041700990097,7.446940232168237e-05,0.09714843000000001,0.29742939,9.780658290000002,0.004786,-0.001598,0.002584,0.17752428036575632
1757944243.6615763,-0.017709971522488727,0.03170952849767954,1.7454184160748119,-0.22015959174796132,0.46354382207919387,-2.6013062193861387,0.26407041700990097,5.996981418227146e-05,0.11047041,0.28740357,9.76733631,0.002132,-0.001776,0.005235,0.1490769043322419
1757944243.6822903,-0.01986780572997786,0.03868766132894486,1.7820393192613864,-0.22134123489822138,0.4997004954834003,-2.6013062193861387,0.26407041700990097,5.443330350833321e-05,0.07320222,0.29623257000000003,9.74952135,0.002546,0.003275,0.003947,0.14033361838562075
1757944243.707505,-0.025014176413192514,0.05197181566410482,1.8131923978096491,-0.22746396989652828,0.5348706938248347,-2.6013062193861387,0.26407041700990097,4.956619497531004e-05,0.09310671,0.30371760000000003,9.77467419,0.00257,-0.00198,0.00449,0.13498198167013475
1757944243.7286286,-0.02613256491225517,0.055303109872417364,1.8398542916054819,-0.23714806630871532,0.5652048190230149,-2.6013062193861387,0.26407041700990097,4.541905369832908e-05,0.10552617,0.28800198,9.77092677,0.004063,-0.000832,0.003874,0.1272367192435243
1757944243.751651,-0.032747906399407306,0.07078485220804027,1.8835140183248997,-0.2613206668883827,0.6187224918071697,-2.6013062193861387,0.26407041700990097,3.850058728119279e-05,0.09700128,0.28470582,9.78919299,0.0037,-0.002445,0.005175,0.11721568037072941
1757944243.7728703,-0.032747906399407306,0.07078485220804027,1.8835140183248997,-0.2613206668883827,0.6187224918071697,-2.6013062193861387,0.26407041700990097,3.850058728119279e-05,0.09700128,0.28470582,9.78919299,0.0037,-0.002445,0.005175,0.11721568037072941
1757944243.7931373,-0.040896154503834485,0.08821522058738406,1.9176945566841797,-0.28792824917187876,0.662834912886767,-2.6013062193861387,0.26407041700990097,3.297976802190783e-05,0.06990606,0.27482715,9.77347737,0.002896,-0.000533,0.004971,0.10989424745717233
1757944243.8194158,-0.048280645993364284,0.1038866416443423,1.9321721147316913,-0.3014688637316935,0.6823643704823752,-2.6013062193861387,0.26407041700990097,3.058163633640873e-05,0.11271690000000001,0.29249496,9.78036399,0.002535,-0.001176,0.003645,0.10865334708343344
1757944243.839463,-0.0503969965617418,0.10729260266339777,1.945140368396503,-0.31437983093545246,0.6991810808912179,-2.6013062193861387,0.26407041700990097,2.8452216156691048e-05,0.09385227000000002,0.28500993,9.7547697,0.002809,-0.000187,0.004523,0.10435085800691743
1757944243.860806,-0.05889508881610802,0.1245468880424294,1.9569582633578202,-0.32733217348342025,0.7153041720739579,-2.6013062193861387,0.26407041700990097,2.6447038773867275e-05,0.0928026,0.27422874,9.77797035,0.004679,-0.002705,0.003881,0.10388782829568302
1757944243.8811357,-0.061049630543954216,0.1276398013202479,1.9676283538383519,-0.33938368505010336,0.7291113938631618,-2.6013062193861387,0.26407041700990097,2.4656947872992335e-05,0.10193571,0.28740357,9.78529842,0.004679,-0.002705,0.003881,0.09995794995154572
1757944243.9074054,-0.07035902903707388,0.14414945678260485,1.9862717550195619,-0.3618382630169889,0.7529373583991742,-2.6013062193861387,0.26407041700990097,2.1480448984836974e-05,0.0953532,0.28515708,9.767787570000001,0.003101,-0.000261,0.003749,0.09552771497989218
1757944243.9277658,-0.07035902903707388,0.14414945678260485,1.9862717550195619,-0.3618382630169889,0.7529373583991742,-2.6013062193861387,0.26407041700990097,2.1480448984836974e-05,0.0953532,0.28515708,9.767787570000001,0.003101,-0.000261,0.003749,0.09552771497989218
1757944243.9516065,-0.08297894515225195,0.16673575903756535,2.002023351244782,-0.3820978530225819,0.7725851895354937,-2.6013062193861387,0.26407041700990097,1.872953016147121e-05,0.10358379000000001,0.30237363,9.77856876,0.002892,0.001228,0.005001,0.09288504200704957
1757944243.971949,-0.08297894515225195,0.16673575903756535,2.002023351244782,-0.3820978530225819,0.7725851895354937,-2.6013062193861387,0.26407041700990097,1.872953016147121e-05,0.10358379000000001,0.30237363,9.77856876,0.002892,0.001228,0.005001,0.09288504200704957
1757944243.9920356,-0.09437111251784167,0.18611871095965254,2.015432735580875,-0.3997674165591454,0.7881718750499094,-2.6013062193861387,0.26407041700990097,1.636698270059128e-05,0.08128566000000001,0.29757654,9.77407578,0.004927,-0.000486,0.002726,0.08994066689778557
1757944244.016747,-0.10187138157664277,0.1991371689216618,2.0214026014694433,-0.4076731720797477,0.7946595230914597,-2.6013062193861387,0.26407041700990097,1.5312726661965743e-05,0.08906499000000001,0.28695231,9.76254903,0.002229,0.001205,0.003425,0.08955092666552045
1757944244.0368621,-0.1037550873278987,0.20114578036509276,2.0269081441997727,-0.4148305848601346,0.8001784064562035,-2.6013062193861387,0.26407041700990097,1.435788055964713e-05,0.09040896000000001,0.29129814000000004,9.783954450000001,0.003713,-0.001186,0.002984,0.08677566886249222
1757944244.0628004,-0.11593643315557957,0.22287494353840373,2.032104474680721,-0.42177360804431696,0.8054239857017946,-2.6013062193861387,0.26407041700990097,1.3424929697383713e-05,0.09430353000000001,0.2718351,9.76883724,0.000826,-0.000179,0.003117,0.08844794984553046
1757944244.0839884,-0.11723347157622124,0.22370098296981275,2.0369089117287835,-0.4280056704439941,0.8098146264667692,-2.6013062193861387,0.26407041700990097,1.2583618840711732e-05,0.0928026,0.28276344,9.74293884,0.002849,-0.001903,0.00376,0.08534940900611002
1757944244.1078467,-0.12678738296364864,0.23853507257491605,2.0456197112565704,-0.4391619760970068,0.8170998134569356,-2.6013062193861387,0.26407041700990097,1.1059246607036677e-05,0.10733121,0.29563416000000003,9.77077962,0.001753,-0.002048,0.003839,0.08270750465695192
1757944244.1282294,-0.12678738296364864,0.23853507257491605,2.0456197112565704,-0.4391619760970068,0.8170998134569356,-2.6013062193861387,0.26407041700990097,1.1059246607036677e-05,0.10733121,0.29563416000000003,9.77077962,0.001753,-0.002048,0.003839,0.08270750465695192
1757944244.151144,-0.13973778731412884,0.2594815484631761,2.0533067759785535,-0.44875946073808265,0.8226825644138241,-2.6013062193861387,0.26407041700990097,9.719731810583182e-06,0.10088604,0.29010132000000005,9.7582032,0.002714,-0.001044,0.004267,0.08166734000595793
1757944244.1722662,-0.13973778731412884,0.2594815484631761,2.0533067759785535,-0.44875946073808265,0.8226825644138241,-2.6013062193861387,0.26407041700990097,9.719731810583182e-06,0.09176274,0.2860596,9.783208890000001,0.003076,-0.001545,0.004972,0.08166734000595793
1757944244.1929965,-0.14996678405595135,0.27525676917316877,2.060118710662378,-0.4569393725545063,0.8268020498872488,-2.6013062193861387,0.26407041700990097,8.551005237790204e-06,0.07499745000000001,0.28620675,9.79787484,0.001995,0.000528,0.004172,0.07966029701070157
1757944244.215488,-0.15986488382884484,0.2920976268641004,2.0610658944039297,-0.46187228790949636,0.8276573626862913,-2.6013062193861387,0.26407041700990097,8.551005237790204e-06,0.10088604,0.29503575000000004,9.77317326,0.004416,0.000258,0.00461,0.08233439614165922
1757944244.2365108,-0.1611191462278143,0.29260016533780386,2.0661960972691302,-0.463927320717822,0.8297567986618727,-2.6013062193861387,0.26407041700990097,7.527236239551883e-06,0.08576883000000002,0.28874754,9.76434426,0.003557,0.000811,0.003512,0.07827899028321919
1757944244.257624,-0.17121575033078434,0.30927421713251446,2.0690091057838487,-0.46704946371727135,0.8308710784072574,-2.6013062193861387,0.26407041700990097,7.056494984700372e-06,0.09131148000000001,0.2860596,9.76972995,0.002357,-0.001745,0.002952,0.07943088606892984
1757944244.2777197,-0.17201375832823596,0.309388432551551,2.071648334143781,-0.469899129653411,0.8317698573417124,-2.6013062193861387,0.26407041700990097,6.629365260187023e-06,0.10104300000000001,0.29173959000000005,9.77362452,0.003698,7.8e-05,0.00357,0.07696461610329541
1757944244.2982543,-0.18215205379754984,0.3260178084847804,2.0741820502913075,-0.4725633743379863,0.8324734955325217,-2.6013062193861387,0.26407041700990097,6.2162278971257376e-06,0.09460764,0.28650105,9.775566900000001,0.001529,-0.001436,0.00466,0.07820157472391598
1757944244.3192732,-0.1829593723507617,0.326195274053792,2.076564856313478,-0.4750076449375118,0.8330249807594131,-2.6013062193861387,0.26407041700990097,5.840916649435636e-06,0.08816247,0.28725642,9.77302611,0.001529,-0.001436,0.00466,0.07583742789221731
1757944244.3394854,-0.19393550423939385,0.344184101639013,2.078862762770801,-0.4772831690529854,0.8333894257850712,-2.6013062193861387,0.26407041700990097,5.475870600504036e-06,0.08292393,0.29159244,9.7667379,0.002963,0.000723,0.004095,0.07740962119763012
1757944244.3603005,-0.19468295369706598,0.3442956605646392,2.081027808171024,-0.47938098828235487,0.833652348089738,-2.6013062193861387,0.26407041700990097,5.144293145928851e-06,0.0928026,0.28934595,9.75910572,0.002963,0.000723,0.004095,0.0750464666332883
1757944244.3807113,-0.20523254998285156,0.36143848869793277,2.083118379159714,-0.481320387949971,0.8337404281580428,-2.6013062193861387,0.26407041700990097,4.822781967913239e-06,0.0896634,0.29010132000000005,9.775871010000001,0.002439,0.001285,0.004881,0.07647493201276767
1757944244.4015217,-0.2057432482451657,0.3611827379414392,2.0850906512285228,-0.4831199619270399,0.8337725630755743,-2.6013062193861387,0.26407041700990097,4.531001666859012e-06,0.09040896000000001,0.28365615,9.7582032,0.001529,-0.00295,0.003785,0.07410274276162543
1757944244.4218996,-0.2057432482451657,0.3611827379414392,2.0850906512285228,-0.4831199619270399,0.8337725630755743,-2.6013062193861387,0.26407041700990097,4.531001666859012e-06,0.09040896000000001,0.28365615,9.7582032,0.001529,-0.00295,0.003785,0.07410274276162543
1757944244.444554,-0.22448746242548576,0.3911903506511817,2.08886910216214,-0.48622970152813877,0.8332195752972171,-2.6013062193861387,0.26407041700990097,3.9673379293244475e-06,0.09655002,0.2718351,9.7692885,0.001665,0.001054,0.004905,0.07523530529141258
1757944244.467899,-0.2271727014535578,0.3936580136401119,2.092258603279298,-0.488959859973776,0.8326283221148302,-2.6013062193861387,0.26407041700990097,3.499559195908171e-06,0.10014048,0.27108954,9.775272600000001,0.003663,0.000573,0.003792,0.07164354569937026
1757944244.4889507,-0.2271727014535578,0.3936580136401119,2.092258603279298,-0.488959859973776,0.8326283221148302,-2.6013062193861387,0.26407041700990097,3.499559195908171e-06,0.10014048,0.27108954,9.775272600000001,0.003663,0.000573,0.003792,0.07164354569937026
1757944244.5093372,-0.23755569022862755,0.4093020483030549,2.095374004661357,-0.4913206766316069,0.8318254744652035,-2.6013062193861387,0.26407041700990097,3.0869496339121795e-06,0.08726976,0.29114118,9.764491410000002,0.003206,0.001802,0.00331,0.07121313408563482
1757944244.5299792,-0.23755569022862755,0.4093020483030549,2.095374004661357,-0.4913206766316069,0.8318254744652035,-2.6013062193861387,0.26407041700990097,3.0869496339121795e-06,0.08726976,0.29114118,9.764491410000002,0.003206,0.001802,0.00331,0.07121313408563482
1757944244.550132,-0.24858548196947772,0.4260228238126231,2.098250336928974,-0.49334707700523234,0.830822009809448,-2.6013062193861387,0.26407041700990097,2.721563169608857e-06,0.08801532000000001,0.27377748,9.780658290000002,0.003347,0.000441,0.00404,0.0708890401372573
1757944244.570432,-0.24858548196947772,0.4260228238126231,2.098250336928974,-0.49334707700523234,0.830822009809448,-2.6013062193861387,0.26407041700990097,2.721563169608857e-06,0.08801532000000001,0.27377748,9.780658290000002,0.003347,0.000441,0.00404,0.0708890401372573
1757944244.5913408,-0.2606533410762877,0.44446139156057346,2.10091953958778,-0.4950568222247191,0.8296029139320977,-2.6013062193861387,0.26407041700990097,2.3963146938821074e-06,0.09190989000000001,0.29697813,9.768385980000001,0.004506,-0.001024,0.006485,0.0707710105007846
1757944244.61677,-0.2684676131599457,0.45664448050587164,2.1021787787300283,-0.49581666099100924,0.8289505935898805,-2.6013062193861387,0.26407041700990097,2.2486153374329092e-06,0.10059174,0.28336185,9.783503190000001,0.002031,-0.000904,0.004479,0.07152453620293911
1757944244.637157,-0.26856929545193037,0.4559427002705339,2.1033757019761907,-0.4965638117356091,0.8283738358750041,-2.6013062193861387,0.26407041700990097,2.1142361316321626e-06,0.08457201,0.29159244,9.76613949,0.003017,-0.002334,0.004472,0.06950871008995455
1757944244.658971,-0.2796688985104136,0.47358146770575243,2.1045472763550563,-0.49720103297527135,0.8276525165738383,-2.6013062193861387,0.26407041700990097,1.983000580370737e-06,0.08756406,0.28575549,9.75776175,0.003816,0.000638,0.003496,0.07152328533046232
1757944244.6796725,-0.27958817541366987,0.4726075431769657,2.1056612604063645,-0.49783890958098603,0.8270213799207345,-2.6013062193861387,0.26407041700990097,1.8637957939960514e-06,0.08921214,0.28650105,9.76374585,0.00289,-0.002355,0.005716,0.06936583910949408
1757944244.7001698,-0.28939444988151086,0.48805782561228306,2.1067491641881784,-0.49838147808478367,0.8262722882927978,-2.6013062193861387,0.26407041700990097,1.7483579989421793e-06,0.09655002,0.28515708,9.775566900000001,0.002239,1.6e-05,0.003972,0.07090750720553683
1757944244.7206872,-0.28920213504656267,0.48693469403765505,2.107784284339605,-0.49893422412421684,0.8256215148638438,-2.6013062193861387,0.26407041700990097,1.6434992476993917e-06,0.09655002,0.28515708,9.775566900000001,0.002239,1.6e-05,0.003972,0.06878214700931365
1757944244.7407997,-0.30041585776972246,0.5046810975637047,2.1088000023429165,-0.4993781585068425,0.8248210013979462,-2.6013062193861387,0.26407041700990097,1.541049538068522e-06,0.08337519,0.28800198,9.765246780000002,0.00319,-3.6e-05,0.004433,0.07083719595859313
1757944244.7616365,-0.30026350329024004,0.5036532148030687,2.1097671800699533,-0.49984146429438675,0.8241271388694541,-2.6013062193861387,0.26407041700990097,1.4480083452592141e-06,0.08217837000000001,0.28365615,9.75386718,0.00087,0.001728,0.003136,0.06868141585996879
1757944244.7864058,-0.30897639851264147,0.5165040895413688,2.111604774320347,-0.5006636652330574,0.8227175431795232,-2.6013062193861387,0.26407041700990097,1.2781801965124046e-06,0.10014048,0.29114118,9.77347737,0.00283,0.00165,0.003308,0.06812838007767458
1757944244.806796,-0.30897639851264147,0.5165040895413688,2.111604774320347,-0.5006636652330574,0.8227175431795232,-2.6013062193861387,0.26407041700990097,1.2781801965124046e-06,0.10014048,0.29114118,9.77347737,0.00283,0.00165,0.003308,0.06812838007767458
1757944244.8282661,-0.3196705041608112,0.5326140960320951,2.1133330798492995,-0.5012979455058688,0.8211680853192188,-2.6013062193861387,0.26407041700990097,1.125985641891084e-06,0.08786817,0.29533986,9.771976440000001,0.004644,-0.000151,0.00425,0.06794599203435484
1757944244.8539796,-0.32741683414090506,0.5445915632921078,2.11415519834547,-0.5015703578233195,0.8203852313742501,-2.6013062193861387,0.26407041700990097,1.0567089534749608e-06,0.10373094000000001,0.28441152000000003,9.79038981,0.001366,-0.000653,0.002847,0.06888746199337509
1757944244.8749475,-0.3279677093925744,0.5448060475641187,2.1149414416426726,-0.5018667587106825,0.8196965139690628,-2.6013062193861387,0.26407041700990097,9.93342927779744e-07,0.09894366,0.28305774,9.78275763,0.004589,-0.000263,0.00361,0.06723655406443231
1757944244.8952446,-0.3279677093925744,0.5448060475641187,2.1149414416426726,-0.5018667587106825,0.8196965139690628,-2.6013062193861387,0.26407041700990097,9.93342927779744e-07,0.09894366,0.28305774,9.78275763,0.004589,-0.000263,0.00361,0.06723655406443231
1757944244.9160953,-0.3427542072029506,0.5675816069130027,2.1164706979812387,-0.5021807656049976,0.8179312768052961,-2.6013062193861387,0.26407041700990097,8.724491856532484e-07,0.09475478999999999,0.28874754,9.795029940000001,0.00439,-0.001981,0.003051,0.06825117596568801
1757944244.9372118,-0.34745191373191886,0.5745712258516948,2.1171927241035853,-0.5023478975907604,0.81713076784993,-2.6013062193861387,0.26407041700990097,8.186626147189772e-07,0.08951625,0.28336185,9.78545538,0.001694,0.001838,0.00452,0.06807530692348436
1757944244.9582534,-0.3479385145849435,0.5747233384162429,2.117883893868319,-0.5025486254188652,0.8164322807832693,-2.6013062193861387,0.26407041700990097,7.694555853546669e-07,0.09609875999999999,0.29099403,9.76883724,0.004379,-0.001962,0.004319,0.06653433832225411
1757944244.978644,-0.35666647170594457,0.5882653566348368,2.1185610660837932,-0.5026813343935538,0.8156459048013166,-2.6013062193861387,0.26407041700990097,7.219962312123674e-07,0.08517042000000001,0.28515708,9.78021684,0.004059,-0.000513,0.003228,0.06800111015519128
1757944244.999538,-0.35633369171339385,0.5871109917142463,2.119208206926844,-0.5028585458470614,0.8149772978152688,-2.6013062193861387,0.26407041700990097,6.787777856474196e-07,0.09984618,0.28845324,9.784405710000001,0.001948,-0.001398,0.003506,0.06615114699745675
1757944245.026157,-0.3658648604705253,0.6013501346158732,2.1204538998365106,-0.5030877004537693,0.8135128534558624,-2.6013062193861387,0.26407041700990097,5.984368679123155e-07,0.09011466,0.27812331,9.7866522,0.002715,0.000123,0.005013,0.06609083657857331
1757944245.0466225,-0.3658648604705253,0.6013501346158732,2.1204538998365106,-0.5030877004537693,0.8135128534558624,-2.6013062193861387,0.26407041700990097,5.984368679123155e-07,0.09011466,0.27812331,9.7866522,0.002715,0.000123,0.005013,0.06609083657857331
1757944245.0685353,-0.3760386163515314,0.6166319538722871,2.121627110393927,-0.5032346267112362,0.812026822608123,-2.6013062193861387,0.26407041700990097,5.27243110121336e-07,0.09984618,0.28455867,9.77347737,0.003023,-0.000127,0.003804,0.06620209477432523
1757944245.0892158,-0.3760386163515314,0.6166319538722871,2.121627110393927,-0.5032346267112362,0.812026822608123,-2.6013062193861387,0.26407041700990097,5.27243110121336e-07,0.09984618,0.28455867,9.77347737,0.003023,-0.000127,0.003804,0.06620209477432523
1757944245.1097288,-0.3840320138072781,0.6284051075046087,2.1227282746910436,-0.5033437832008654,0.8105899463488319,-2.6013062193861387,0.26407041700990097,4.647544372590951e-07,0.09968922,0.2894931,9.763451550000001,0.002865,0.001591,0.003849,0.06562743762448654
1757944245.1308267,-0.3840320138072781,0.6284051075046087,2.1227282746910436,-0.5033437832008654,0.8105899463488319,-2.6013062193861387,0.26407041700990097,4.647544372590951e-07,0.10673280000000002,0.28186092,9.765246780000002,0.003297,-0.001796,0.005254,0.06562743762448654
1757944245.1520588,-0.3955683055504309,0.6458879716222331,2.1237682818522785,-0.503369706939321,0.8091130915864019,-2.6013062193861387,0.26407041700990097,4.0922303900061364e-07,0.07739109000000001,0.27632808,9.775871010000001,0.003819,-0.001618,0.003048,0.06632830845505114
1757944245.177878,-0.402799187046281,0.6569760059351204,2.1242671269687703,-0.5033452365371306,0.8083469140230838,-2.6013062193861387,0.26407041700990097,3.8378698647213494e-07,0.08816247,0.28965006000000004,9.748922940000002,0.002473,0.000861,0.003959,0.06719946514628175
1757944245.1989484,-0.40180221849725234,0.6548584044049895,2.124743925537145,-0.5033836091949778,0.8077145447075542,-2.6013062193861387,0.26407041700990097,3.606968779536576e-07,0.08712261,0.29578131,9.78005988,0.004475,-0.000992,0.004468,0.06518665560236543
1757944245.2193844,-0.41130908501181995,0.6695964242444085,2.125213633835873,-0.5033424844136992,0.8069663718501514,-2.6013062193861387,0.26407041700990097,3.3828504977569465e-07,0.10762551000000001,0.27557271000000005,9.77512545,0.001825,0.001267,0.002974,0.06703500367279638
1757944245.2397697,-0.410327618538825,0.6675237912482168,2.125662771535687,-0.5033642927534896,0.8063495944887995,-2.6013062193861387,0.26407041700990097,3.1793019626053596e-07,0.09160578000000001,0.28021284,9.7547697,0.00307,-0.002238,0.002987,0.06503905126746229
1757944245.2605782,-0.42012479269910424,0.6827185747970802,2.1261057942776755,-0.5033013456578734,0.8056072229960064,-2.6013062193861387,0.26407041700990097,2.981339933722412e-07,0.09131148000000001,0.28620675,9.77347737,0.003282,0.00167,0.004673,0.06699076585274685
1757944245.2813025,-0.419052893276504,0.6805198606360255,2.126529432222556,-0.5033036669990294,0.8049979170281771,-2.6013062193861387,0.26407041700990097,2.8016308008124607e-07,0.09954207,0.2894931,9.75895857,0.002994,-0.001431,0.004809,0.06495718600055214
1757944245.3019652,-0.4288506501908171,0.6957073163277697,2.126947466193567,-0.5032199069267314,0.8042602459604807,-2.6013062193861387,0.26407041700990097,2.62685246233521e-07,0.10912644,0.29369178,9.775871010000001,0.004346,-0.001271,0.004855,0.06691176931257678
1757944245.3223114,-0.4288506501908171,0.6957073163277697,2.126947466193567,-0.5032199069267314,0.8042602459604807,-2.6013062193861387,0.26407041700990097,2.62685246233521e-07,0.10912644,0.29369178,9.775871010000001,0.004346,-0.001271,0.004855,0.06691176931257678
1757944245.345751,-0.44007559945795727,0.7126896842910416,2.127759057309266,-0.5028399102187109,0.8024810990221549,-2.6013062193861387,0.26407041700990097,2.300737221774909e-07,0.10313253,0.28096821,9.78110955,0.00414,-0.001345,0.003193,0.06664845707202843
1757944245.3666675,-0.4387980269928193,0.7101947101640843,2.1281379189204497,-0.5027768658112646,0.8018343868215614,-2.6013062193861387,0.26407041700990097,2.1607295070283386e-07,0.08487612,0.29233800000000004,9.763598700000001,0.002255,0.003186,0.004401,0.0646747836753889
1757944245.3873136,-0.4430808210411521,0.7161393613082339,2.128861315713852,-0.5026790968238257,0.8006395080230336,-2.6013062193861387,0.26407041700990097,1.9071497292731735e-07,0.09520605,0.29383893,9.77646942,0.001809,0.001284,0.005043,0.06361956071070035
1757944245.4077017,-0.4430808210411521,0.7161393613082339,2.128861315713852,-0.5026790968238257,0.8006395080230336,-2.6013062193861387,0.26407041700990097,1.9071497292731735e-07,0.09520605,0.29383893,9.77646942,0.001809,0.001284,0.005043,0.06361956071070035
1757944245.4280145,-0.45142840398223116,0.7285769432498173,2.1295452437673497,-0.502566924864564,0.7994825762073124,-2.6013062193861387,0.26407041700990097,1.6823190715718666e-07,0.09385227000000002,0.28470582,9.76913154,0.003811,0.00015,0.004742,0.06393635563604896
1757944245.4489157,-0.45142840398223116,0.7285769432498173,2.1295452437673497,-0.502566924864564,0.7994825762073124,-2.6013062193861387,0.26407041700990097,1.6823190715718666e-07,0.09385227000000002,0.28470582,9.76913154,0.003811,0.00015,0.004742,0.06393635563604896
1757944245.469005,-0.4586892759835163,0.7392983338955381,2.130190333791811,-0.5024539800523353,0.7983827362345484,-2.6013062193861387,0.26407041700990097,1.4842601073552293e-07,0.09026181000000001,0.27991854,9.77871591,0.002808,-0.001907,0.003012,0.06379994533937111
1757944245.489854,-0.4586892759835163,0.7392983338955381,2.130190333791811,-0.5024539800523353,0.7983827362345484,-2.6013062193861387,0.26407041700990097,1.4842601073552293e-07,0.09026181000000001,0.27991854,9.77871591,0.002808,-0.001907,0.003012,0.06379994533937111
1757944245.5101192,-0.46650518204029695,0.7509143877302521,2.1308001997621826,-0.502316707674568,0.7972967867927511,-2.6013062193861387,0.26407041700990097,1.3090820069864514e-07,0.09864936,0.28560834,9.787849020000001,0.003244,-0.000865,0.004342,0.06382191546791707
1757944245.5310872,-0.46650518204029695,0.7509143877302521,2.1308001997621826,-0.502316707674568,0.7972967867927511,-2.6013062193861387,0.26407041700990097,1.3090820069864514e-07,0.09864936,0.28560834,9.787849020000001,0.003244,-0.000865,0.004342,0.06382191546791707
1757944245.551849,-0.4743424729660046,0.7625756560655182,2.1313769566642735,-0.5021511400932174,0.7962149999003563,-2.6013062193861387,0.26407041700990097,1.1542267881032045e-07,0.0865242,0.28680516,9.7894971,0.003095,-0.001331,0.003763,0.06383155639884698
1757944245.5727222,-0.4743424729660046,0.7625756560655182,2.1313769566642735,-0.5021511400932174,0.7962149999003563,-2.6013062193861387,0.26407041700990097,1.1542267881032045e-07,0.0865242,0.28680516,9.7894971,0.003095,-0.001331,0.003763,0.06383155639884698
1757944245.593169,-0.4830499406821258,0.7756256596439799,2.1319241826726323,-0.5019233669731956,0.7950782017817354,-2.6013062193861387,0.26407041700990097,1.0166127298486407e-07,0.08846658,0.28305774,9.77692068,0.001554,-0.00211,0.004555,0.06403737274326375
1757944245.6188028,-0.49108794178730725,0.7879866912304786,2.132187686915934,-0.5017798375910019,0.7944779877514404,-2.6013062193861387,0.26407041700990097,9.534758329606037e-08,0.09714843000000001,0.30027429,9.763294590000001,0.004129,-0.001525,0.004032,0.06557227768193488
1757944245.6397443,-0.48951295201015566,0.7851322167210286,2.1324399644115104,-0.5017064851274314,0.7940049845978587,-2.6013062193861387,0.26407041700990097,8.961301546164524e-08,0.08861373,0.28994436,9.759556980000001,0.00338,0.00056,0.004381,0.06361652900836148
1757944245.666154,-0.49584896582404825,0.7944532141805621,2.132925081223851,-0.5015359218315771,0.7930506415844639,-2.6013062193861387,0.26407041700990097,7.909993077907838e-08,0.09490194,0.29084688000000003,9.78335604,0.001812,0.000382,0.005153,0.06347442762856499
1757944245.686559,-0.49584896582404825,0.7944532141805621,2.132925081223851,-0.5015359218315771,0.7930506415844639,-2.6013062193861387,0.26407041700990097,7.909993077907838e-08,0.09490194,0.29084688000000003,9.78335604,0.001812,0.000382,0.005153,0.06347442762856499
1757944245.707929,-0.5091268495987235,0.8150964937803358,2.13316338552991,-0.5013152651444727,0.7923660382141132,-2.6013062193861387,0.26407041700990097,7.407236560580294e-08,0.08816247,0.28934595,9.771525180000001,0.001454,-0.001352,0.002439,0.0667970175613564
1757944245.7314017,-0.5090163950441569,0.8142436266275721,2.1336118323185342,-0.501063849119972,0.791337093833414,-2.6013062193861387,0.26407041700990097,6.530233370214337e-08,0.09026181000000001,0.27991854,9.78275763,0.002675,0.000463,0.00453,0.06386700055306924
1757944245.7517424,-0.5101266284339201,0.815668966880811,2.133824930582472,-0.5009820484320266,0.7909084951824971,-2.6013062193861387,0.26407041700990097,6.138781367864484e-08,0.08592579,0.28560834,9.779167170000001,0.004496,-0.000704,0.002582,0.06317337898011968
1757944245.7719355,-0.5101266284339201,0.815668966880811,2.133824930582472,-0.5009820484320266,0.7909084951824971,-2.6013062193861387,0.26407041700990097,6.138781367864484e-08,0.08592579,0.28560834,9.779167170000001,0.004496,-0.000704,0.002582,0.06317337898011968
1757944245.7924562,-0.517866765790323,0.8272425980364624,2.134238314221128,-0.5007113526850144,0.7899014960951136,-2.6013062193861387,0.26407041700990097,5.4094195815674306e-08,0.09759969,0.29623257000000003,9.779314320000001,0.004999,-0.001594,0.002463,0.06337172335573787
1757944245.8126078,-0.5234897725250063,0.8357974926937216,2.1344364016794612,-0.5005817684173299,0.7894198123687212,-2.6013062193861387,0.26407041700990097,5.0785188929918405e-08,0.0925083,0.29189655000000003,9.76913154,0.002736,0.001107,0.006066,0.06426274133868629
1757944245.832935,-0.5228160171532766,0.834427117405737,2.1346268482939,-0.5005050686003354,0.7890324470173277,-2.6013062193861387,0.26407041700990097,4.775228035879174e-08,0.08471916,0.28006569000000003,9.78515127,0.004752,-0.00294,0.003923,0.06287388964325177
1757944245.8533337,-0.5228160171532766,0.834427117405737,2.1346268482939,-0.5005050686003354,0.7890324470173277,-2.6013062193861387,0.26407041700990097,4.775228035879174e-08,0.08471916,0.28006569000000003,9.78515127,0.004752,-0.00294,0.003923,0.06287388964325177
1757944245.8737605,-0.5330840066581438,0.850004162940215,2.134999446049873,-0.5001547183910289,0.7879595734447585,-2.6013062193861387,0.26407041700990097,4.201032109267031e-08,0.09071307,0.28845324,9.764491410000002,0.002674,-0.001182,0.003226,0.06380004850253214
1757944245.8989947,-0.5398305383551102,0.8603336386787127,2.1351785452373235,-0.4999662957567612,0.7874127603421102,-2.6013062193861387,0.26407041700990097,3.9395236923149405e-08,0.08861373,0.28919880000000003,9.7812567,0.002418,0.000354,0.006277,0.06497547787529392
1757944245.9249454,-0.5396046973915106,0.8594003088257332,2.135516519732356,-0.4997570695338466,0.7866122266758081,-2.6013062193861387,0.26407041700990097,3.4801100203667054e-08,0.0928026,0.28814913000000003,9.77632227,0.004719,-0.000553,0.002392,0.06270327803750078
1757944245.9460948,-0.5432631786720806,0.8648770100563895,2.135678654419424,-0.4996628940506237,0.786238772292726,-2.6013062193861387,0.26407041700990097,3.270903916749499e-08,0.09415638000000001,0.28171377000000003,9.78560253,0.002251,0.001031,0.003795,0.06309607378683735
1757944245.966592,-0.5432631786720806,0.8648770100563895,2.135678654419424,-0.4996628940506237,0.786238772292726,-2.6013062193861387,0.26407041700990097,3.270903916749499e-08,0.09415638000000001,0.28171377000000003,9.78560253,0.002251,0.001031,0.003795,0.06309607378683735
1757944245.986573,-0.5499062753602166,0.8747765583757137,2.1359925206046544,-0.4993920139984648,0.7853769339547184,-2.6013062193861387,0.26407041700990097,2.883454938833974e-08,0.09849240000000001,0.30551283,9.77886306,0.003765,0.000683,0.004942,0.06308041678185335
1757944246.006973,-0.5528765237546899,0.8791783329835846,2.1361421785632846,-0.4992884735757429,0.785006665750353,-2.6013062193861387,0.26407041700990097,2.7095856935102775e-08,0.08172711,0.27961443,9.78335604,0.001343,-0.001707,0.003702,0.0631618004331927
1757944246.0270236,-0.5554191340004491,0.8829108452061608,2.1362876815141885,-0.4991910490840656,0.7846520548812699,-2.6013062193861387,0.26407041700990097,2.5465115776292038e-08,0.09325386000000001,0.29637972,9.77333022,0.004897,-0.000357,0.003794,0.06307493208018067
1757944246.0476606,-0.5554191340004491,0.8829108452061608,2.1362876815141885,-0.4991910490840656,0.7846520548812699,-2.6013062193861387,0.26407041700990097,2.5465115776292038e-08,0.09325386000000001,0.29637972,9.77333022,0.004897,-0.000357,0.003794,0.06307493208018067
1757944246.067914,-0.5627597048324453,0.8939268711539586,2.1365704804921073,-0.4988645986945515,0.7837474583312539,-2.6013062193861387,0.26407041700990097,2.2424992288822077e-08,0.09655002,0.27482715,9.78859458,0.003558,-0.001659,0.00387,0.06317777582103024
1757944246.089115,-0.5627597048324453,0.8939268711539586,2.1365704804921073,-0.4988645986945515,0.7837474583312539,-2.6013062193861387,0.26407041700990097,2.2424992288822077e-08,0.09655002,0.27482715,9.78859458,0.003558,-0.001659,0.00387,0.06317777582103024
1757944246.1100862,-0.5682590806276027,0.902060405425791,2.136837951832783,-0.4985416813157556,0.7828702265275096,-2.6013062193861387,0.26407041700990097,1.9758690284639098e-08,0.09040896000000001,0.28620675,9.77721498,0.004206,-0.001159,0.00287,0.06281980845310924
1757944246.1304202,-0.5682590806276027,0.902060405425791,2.136837951832783,-0.4985416813157556,0.7828702265275096,-2.6013062193861387,0.26407041700990097,1.9758690284639098e-08,0.09040896000000001,0.28620675,9.77721498,0.004206,-0.001159,0.00287,0.06281980845310924
1757944246.1514883,-0.5764008582420327,0.9143515912339459,2.137093162863854,-0.4981354283150641,0.781879752096051,-2.6013062193861387,0.26407041700990097,1.7380120205882736e-08,0.08636724,0.28201788,9.765246780000002,0.002159,-0.001417,0.00465,0.06327580889585943
1757944246.1723356,-0.5776665088371744,0.9160984825608063,2.137214054892196,-0.498002620189873,0.7815045983570976,-2.6013062193861387,0.26407041700990097,1.6329295467117102e-08,0.08861373,0.30147111000000004,9.755515260000001,0.004698,-0.001281,0.004015,0.06280596149747791
1757944246.193023,-0.5799567563362356,0.9194566460817754,2.1373315914537994,-0.4978823078127006,0.7811540887418925,-2.6013062193861387,0.26407041700990097,1.5344300489371675e-08,0.0953532,0.28965006000000004,9.79338186,0.003071,-0.001293,0.004606,0.06276788730176353
1757944246.2133644,-0.5825679550397687,0.9233211985077189,2.1374459985665304,-0.49776829031399467,0.7808180722396708,-2.6013062193861387,0.26407041700990097,1.441877482454499e-08,0.11047041,0.27872172,9.803711790000001,0.002778,-0.000827,0.004977,0.06283228844887198
1757944246.2336693,-0.5892346623901838,0.9335480662894239,2.1375587545341705,-0.4975971068149781,0.7803948260184115,-2.6013062193861387,0.26407041700990097,1.3527842933770049e-08,0.08696565,0.2980278,9.768385980000001,0.002306,0.00026,0.002345,0.06420980597381531
1757944246.2550087,-0.5932212490241601,0.9395723528332214,2.1376688981725556,-0.4974027505890524,0.7799387542219183,-2.6013062193861387,0.26407041700990097,1.2686989920576558e-08,0.09759969,0.28336185,9.78620094,0.002806,-0.001805,0.006097,0.06440186434725276
1757944246.2753675,-0.5908736981338139,0.9356690937841096,2.1377744227991116,-0.49728351728841563,0.7796068687137855,-2.6013062193861387,0.26407041700990097,1.19231606059967e-08,0.0925083,0.28381311,9.7607538,0.002049,0.000369,0.003885,0.062478558957962206
1757944246.2963839,-0.5948324877051558,0.9416558541688779,2.1378776155005745,-0.49715147338908283,0.7792585049004318,-2.6013062193861387,0.26407041700990097,1.1198954054040085e-08,0.09340101,0.31554846000000003,9.763598700000001,0.002657,-0.002551,0.004478,0.06307700478786041
1757944246.3177063,-0.5974730130432334,0.9455784131997306,2.1379780984278405,-0.4970213146941749,0.7789169927972786,-2.6013062193861387,0.26407041700990097,1.0518609270294733e-08,0.08696565,0.29099403,9.78201207,0.002863,-0.000619,0.002683,0.06309674068183435
1757944246.3386135,-0.5999138833737961,0.9491906058467366,2.1380758918736005,-0.49689493060312034,0.7785852295093426,-2.6013062193861387,0.26407041700990097,9.880166654487145e-09,0.0896634,0.28276344,9.77317326,0.002194,-0.000281,0.004159,0.06304500016739407
1757944246.3598535,-0.6025473681884631,0.953107059768445,2.138171137008431,-0.49676880560370074,0.7782574978318287,-2.6013062193861387,0.26407041700990097,9.28019048341593e-09,0.08038314,0.29129814000000004,9.77273181,0.003728,-0.001986,0.004074,0.06306852180929369
1757944246.3844554,-0.6073263928546438,0.9601827932878783,2.138354309253476,-0.4965108822574565,0.7776034542840514,-2.6013062193861387,0.26407041700990097,8.186135497359292e-09,0.08772102000000001,0.28680516,9.78620094,0.00367,-0.002683,0.004208,0.0628975120370324
1757944246.4051151,-0.6098358119323624,0.9639121525247227,2.1384421755866327,-0.49639007501878135,0.777294475033293,-2.6013062193861387,0.26407041700990097,7.689925128130506e-09,0.09400923,0.28081125,9.76584519,0.002589,0.001072,0.004547,0.06291964715385237
1757944246.427462,-0.6141326209395926,0.9704419897965311,2.1385282339383345,-0.49624191396947553,0.7769452244315371,-2.6013062193861387,0.26407041700990097,7.21862165119128e-09,0.10119015,0.29458449000000003,9.77003406,0.002405,-0.001513,0.004468,0.06352764074615005
1757944246.44858,-0.6151844550216733,0.9718937353067852,2.1386116510873503,-0.4961134062077879,0.7766303844105948,-2.6013062193861387,0.26407041700990097,6.78026890145523e-09,0.08622009,0.27857457,9.772280550000001,0.002402,0.000352,0.004595,0.06293239487195781
1757944246.4689646,-0.6185173395020096,0.9769185708317306,2.1386931190315046,-0.4959720588348291,0.7762982332673417,-2.6013062193861387,0.26407041700990097,6.366304467799747e-09,0.08172711,0.2920437,9.747578970000001,0.001807,-0.001752,0.006179,0.0632322729247653
1757944246.4889815,-0.6205911174580642,0.9799748342113342,2.1387723632368996,-0.495835459858416,0.7759766256787187,-2.6013062193861387,0.26407041700990097,5.9785844367189684e-09,0.09669717,0.28665801,9.768690090000002,0.004014,-0.000877,0.003851,0.06305141820590915
1757944246.5095162,-0.6229110652284144,0.9834186875239079,2.1388495174381443,-0.4957003836134051,0.7756603578001159,-2.6013062193861387,0.26407041700990097,5.614714802077342e-09,0.08772102000000001,0.28979721,9.76240188,0.001312,0.000624,0.004241,0.0629973797527397
1757944246.529719,-0.6255003075980112,0.9872860759288533,2.138924708675135,-0.4955625866363467,0.7753426095568255,-2.6013062193861387,0.26407041700990097,5.272597018672299e-09,0.09220419,0.29982303,9.7607538,0.003145,-0.00234,0.003549,0.06304760894288267
1757944246.550728,-0.6284845364458406,0.991773369099242,2.1389980814798975,-0.49541534936978293,0.7750126471937212,-2.6013062193861387,0.26407041700990097,4.950190418368203e-09,0.09205704,0.28305774,9.78679935,0.00092,6.3e-05,0.00395,0.06322100300100632
1757944246.5712066,-0.6306765406608221,0.9950234137771561,2.139069499061498,-0.4952701170861921,0.7746885473025915,-2.6013062193861387,0.26407041700990097,4.647921050610541e-09,0.07394778,0.2977335,9.74668626,0.00291,-0.001304,0.005615,0.06309899825691162
1757944246.5918648,-0.6339850903640036,1.0000217597788321,2.1391392680409336,-0.49510978592389693,0.7743431466861278,-2.6013062193861387,0.26407041700990097,4.362538221040113e-09,0.08846658,0.28650105,9.77092677,0.003096,0.00142,0.004463,0.06338089333945643
1757944246.6125565,-0.6352177225029209,1.0017756805318114,2.1392069738662327,-0.4949659289902596,0.7740263821985457,-2.6013062193861387,0.26407041700990097,4.09660509701982e-09,0.09609875999999999,0.27886887000000005,9.78993855,0.00314,-0.001563,0.005673,0.06291887947743534
1757944246.6330435,-0.6393513083584718,1.0080677895622545,2.1392733054568067,-0.49479463277130015,0.7736686740533483,-2.6013062193861387,0.26407041700990097,3.844152886297519e-09,0.07708698000000001,0.28396026,9.7692885,0.003764,-0.00223,0.004644,0.06352860815144994
1757944246.6532793,-0.6402662886074799,1.0093293908771688,2.13933761239705,-0.49464454904299804,0.7733469350238971,-2.6013062193861387,0.26407041700990097,3.609417258160511e-09,0.08786817,0.28874754,9.771682140000001,0.001779,0.001456,0.003627,0.06294140454860278
1757944246.6740017,-0.6424595759708808,1.0125918394359843,2.1394002348333965,-0.49449785854256134,0.7730329183819741,-2.6013062193861387,0.26407041700990097,3.389131957920357e-09,0.09190989000000001,0.29414304,9.78649524,0.004578,-0.001451,0.005449,0.06291762500222624
1757944246.6944668,-0.6455292464588953,1.0172260764297814,2.139461393204165,-0.49434041359797215,0.7727041734466984,-2.6013062193861387,0.26407041700990097,3.1812789262204104e-09,0.08067744,0.27932013,9.78814332,0.002325,0.001521,0.003639,0.06319213048800681
1757944246.7147593,-0.6484905922036673,1.0216926157528579,2.139521095460692,-0.49417209704164244,0.7723604555912654,-2.6013062193861387,0.26407041700990097,2.9854140462757624e-09,0.09789399,0.29742939,9.77392863,0.002694,-0.000555,0.004497,0.0633740508427825
1757944246.734895,-0.6497186613457735,1.023452277416819,2.139579051422082,-0.4940199766411423,0.772044476255326,-2.6013062193861387,0.26407041700990097,2.8028245479941592e-09,0.09640287000000002,0.28171377000000003,9.780658290000002,0.002752,-0.001782,0.004706,0.06294878717924673
1757944246.7557054,-0.6521969599611036,1.027167781491969,2.1396355551895994,-0.4938660076262983,0.7717276811301861,-2.6013062193861387,0.26407041700990097,2.6311298331246417e-09,0.10164141000000002,0.28680516,9.783954450000001,0.001255,-0.001444,0.004481,0.06304133895268335
1757944246.77668,-0.6539417488424644,1.0297390730436702,2.1396905144441893,-0.4937207560441698,0.7714266829361486,-2.6013062193861387,0.26407041700990097,2.470404275614819e-09,0.09071307,0.28650105,9.76584519,0.004548,-0.000792,0.00355,0.06287241875867419
1757944246.7972853,-0.6560304041537289,1.0328496196423378,2.1397440397343743,-0.49357911330748855,0.7711333556545444,-2.6013062193861387,0.26407041700990097,2.319549255148083e-09,0.0868185,0.30177522,9.7894971,0.002888,-0.0009,0.003574,0.06285909725187161
1757944246.8175912,-0.6585220586415047,1.0365915649600284,2.13979624075702,-0.49343419317260295,0.7708367708831201,-2.6013062193861387,0.26407041700990097,2.1775907984076856e-09,0.09984618,0.28485297000000004,9.775566900000001,0.00228,0.001698,0.004322,0.06298537540382287
1757944246.8378737,-0.6602555246733379,1.0391509733358828,2.139847025350104,-0.4932966317876171,0.7705536513783998,-2.6013062193861387,0.26407041700990097,2.0446388951167042e-09,0.09984618,0.28485297000000004,9.775566900000001,0.00228,0.001698,0.004322,0.0628348210275138
1757944246.8640885,-0.6644742350591052,1.0454495977853282,2.13994475478757,-0.4930199790147943,0.7699903810873268,-2.6013062193861387,0.26407041700990097,1.802277193950066e-09,0.09295956000000001,0.28769787,9.77108373,0.003532,0.000671,0.00277,0.06283505442324558
1757944246.8844206,-0.6666692167330779,1.0487352999077943,2.139991728469738,-0.49288413023279276,0.7697152495011098,-2.6013062193861387,0.26407041700990097,1.6920984343929056e-09,0.08891784,0.29443734,9.751326390000001,0.001492,0.000521,0.003725,0.0628852216808517
1757944246.9050138,-0.6686285190680578,1.0516547136353493,2.140037475699886,-0.49275060430026246,0.7694454470066215,-2.6013062193861387,0.26407041700990097,1.5886992132200964e-09,0.10028763,0.29997999,9.76659075,0.003836,-0.002159,0.002884,0.06284967098161147
1757944246.9254792,-0.6708555093545869,1.054993829626148,2.1400820712831514,-0.492614942192629,0.7691739067814581,-2.6013062193861387,0.26407041700990097,1.4914878734781568e-09,0.09086022,0.2951829,9.78529842,0.002767,-0.000419,0.003628,0.06291599113857856
1757944246.9482374,-0.6746602498833126,1.0607977292243238,2.140125769860944,-0.49245057245668755,0.7688587559287253,-2.6013062193861387,0.26407041700990097,1.3992413857179875e-09,0.08217837000000001,0.29563416000000003,9.78485697,0.00373,-0.00266,0.004074,0.06349774113409556
1757944246.9707851,-0.6778479950374962,1.0656395230733873,2.1401684896378192,-0.4922642071354483,0.7685105404131031,-2.6013062193861387,0.26407041700990097,1.3121708699777856e-09,0.09160578000000001,0.30161826,9.76464837,0.0023,5e-05,0.005143,0.06375451668925108
1757944246.9908793,-0.676778032868529,1.0638365178096287,2.1402096679771896,-0.4921261851016433,0.7682399130558313,-2.6013062193861387,0.26407041700990097,1.2321024358943248e-09,0.09011466,0.29474145,9.775566900000001,0.003925,-0.001017,0.005363,0.06255196515275283
1757944247.0115867,-0.6786493526571447,1.0666270552462156,2.140249776120571,-0.4919945047643136,0.7679807776829115,-2.6013062193861387,0.26407041700990097,1.1569245897237394e-09,0.09774684000000002,0.28905165000000005,9.774968490000001,0.00409,-5.2e-05,0.003226,0.06260870937437318
1757944247.032686,-0.6805245438424555,1.069425295049043,2.1402888442651964,-0.4918676651000206,0.7677306927617352,-2.6013062193861387,0.26407041700990097,1.086328201545583e-09,0.09385227000000002,0.28231218,9.760008240000001,0.001715,-0.000582,0.005912,0.06265053140397596
1757944247.0534074,-0.6823255471603752,1.0721093869489213,2.140326891929094,-0.49174553506803115,0.7674893930054929,-2.6013062193861387,0.26407041700990097,1.0200570001374687e-09,0.08442486000000002,0.28396026,9.76180347,0.003755,-0.002091,0.002854,0.06265736853551293
1757944247.0740638,-0.6855771415077138,1.0770588086246824,2.1403641272490823,-0.49160422062024517,0.7672192672254674,-2.6013062193861387,0.26407041700990097,9.572935960434001e-10,0.08592579,0.28455867,9.7667379,0.00025,0.001206,0.004645,0.06314859879527276
1757944247.0953398,-0.6863216611074507,1.0780972517696568,2.140400256274914,-0.4914804439639971,0.7669780010681576,-2.6013062193861387,0.26407041700990097,8.988115555310879e-10,0.10597743000000001,0.30297204000000005,9.77737194,0.004118,-0.000913,0.004226,0.06269847576005455
1757944247.1160605,-0.6882754540539242,1.081024473476353,2.1404354645963313,-0.4913571818718494,0.7667388244128207,-2.6013062193861387,0.26407041700990097,8.43852473513431e-10,0.08726976,0.29952873,9.76180347,0.002658,0.000945,0.004255,0.0627601998905345
1757944247.1364639,-0.6882754540539242,1.081024473476353,2.1404354645963313,-0.4913571818718494,0.7667388244128207,-2.6013062193861387,0.26407041700990097,8.43852473513431e-10,0.08726976,0.29952873,9.76180347,0.002658,0.000945,0.004255,0.0627601998905345
1757944247.1568756,-0.6882754540539242,1.081024473476353,2.1404354645963313,-0.4913571818718494,0.7667388244128207,-2.6013062193861387,0.26407041700990097,8.43852473513431e-10,0.08726976,0.29952873,9.76180347,0.002658,0.000945,0.004255,0.0627601998905345
1757944247.1815863,-0.7088428883789822,1.1128727104668623,2.140507512130341,-0.49021942133624063,0.7648650266454248,-2.6013062193861387,0.26407041700990097,7.330108724912754e-10,0.08756406,0.27857457,9.768238830000001,0.003312,-0.000998,0.004729,0.06658643433138098
1757944247.2018392,-0.7014082396954366,1.1010377796304698,2.1405730655551896,-0.48963384672721755,0.7638630894472969,-2.6013062193861387,0.26407041700990097,6.436768065107363e-10,0.09220419,0.27677934,9.796079610000001,0.004361,-0.001539,0.00422,0.06214650558080757
1757944247.224852,-0.6976012808528981,1.09487313609716,2.140633457146359,-0.48941324785436413,0.7634391383642276,-2.6013062193861387,0.26407041700990097,5.690438843619363e-10,0.10223982000000001,0.28126251,9.78185511,0.004261,-0.003482,0.004227,0.060481247245723437
1757944247.2449532,-0.6992946874827409,1.097404562671532,2.140662362615182,-0.4893706430085932,0.7633350590217183,-2.6013062193861387,0.26407041700990097,5.351938385407308e-10,0.09040896000000001,0.28680516,9.77467419,0.001358,0.00082,0.005094,0.0610569246048687
1757944247.2659256,-0.7009738719890924,1.099915248377396,2.1406905413829893,-0.4893494635867373,0.763265501574969,-2.6013062193861387,0.26407041700990097,5.032475607102269e-10,0.09011466,0.29233800000000004,9.76704201,0.003723,-0.001977,0.004592,0.06147056206719412
1757944247.2866383,-0.7024966603970952,1.1021834386287244,2.140717994218848,-0.4893428712949059,0.763219661450969,-2.6013062193861387,0.26407041700990097,4.731433011052005e-10,0.08636724,0.29533986,9.78290478,0.003094,-1.8e-05,0.003504,0.06172055352269197
1757944247.3077528,-0.7042089134994218,1.1047485328839404,2.1407447567093296,-0.48934211588090876,0.7631837840133109,-2.6013062193861387,0.26407041700990097,4.447508701114904e-10,0.08801532000000001,0.28186092,9.78290478,0.001931,-0.001926,0.004775,0.061968171107932915
1757944247.3286376,-0.7056991958316283,1.1069688350987716,2.1407708249775004,-0.48934477683785643,0.7631540703725721,-2.6013062193861387,0.26407041700990097,4.180221341780462e-10,0.0896634,0.29578131,9.763147440000001,0.004272,0.000136,0.004257,0.062080811325316086
1757944247.3487625,-0.708955277361091,1.111944086604246,2.140796373041459,-0.4893224191777714,0.7630859268596724,-2.6013062193861387,0.26407041700990097,3.925921845537936e-10,0.08906499000000001,0.28934595,9.772133400000001,0.002654,-0.000463,0.002978,0.0627610499359942
1757944247.3696084,-0.7088587093160269,1.111692453605559,2.1408211133609933,-0.48931685584659634,0.7630449398609818,-2.6013062193861387,0.26407041700990097,3.689324345123746e-10,0.09370512,0.28336185,9.79457868,0.002775,-0.001806,0.005343,0.062168551163407186
1757944247.389999,-0.7112233955535037,1.1152802364527192,2.140845286968954,-0.4892960173747487,0.7629808489948654,-2.6013062193861387,0.26407041700990097,3.4655168676518297e-10,0.09430353000000001,0.29474145,9.760008240000001,0.002018,0.001067,0.005486,0.06254172861968715
1757944247.4110363,-0.7123127751087875,1.116880700090443,2.1408687979222822,-0.4892750020376111,0.7629173111712938,-2.6013062193861387,0.26407041700990097,3.2556577180149574e-10,0.07993188000000001,0.29114118,9.76599234,0.00352,-0.001381,0.00387,0.06240553467203812
1757944247.432095,-0.7133266705139878,1.1183648562674646,2.140891660931869,-0.4892554766765358,0.7628569369805022,-2.6013062193861387,0.26407041700990097,3.058900606689388e-10,0.08277678,0.2920437,9.77617512,0.002015,0.000138,0.004783,0.06227832630394585
1757944247.4523616,-0.7170297898308935,1.1240430933475525,2.140914106534429,-0.4891969085268869,0.76273619684919,-2.6013062193861387,0.26407041700990097,2.8713222364409015e-10,0.09265545000000001,0.27707364,9.771230880000001,0.001515,-0.000432,0.003005,0.06308428072369446
1757944247.47286,-0.7167856198543372,1.1235682436294578,2.140935829733354,-0.48915547655065394,0.7626430923440869,-2.6013062193861387,0.26407041700990097,2.6971129732252807e-10,0.08292393,0.28814913000000003,9.78964425,0.00348,0.000647,0.004348,0.06239282290826957
1757944247.4937313,-0.72128285883638,1.1304866527558404,2.1409572154488528,-0.48906081735779444,0.7624674144696025,-2.6013062193861387,0.26407041700990097,2.530326247654704e-10,0.09056592000000001,0.28396026,9.78170796,0.002664,0.000182,0.004216,0.06345518467848858
1757944247.513995,-0.7198486010345316,1.12815904035513,2.1409778216243254,-0.4890027740608125,0.762349840790195,-2.6013062193861387,0.26407041700990097,2.3767071794558137e-10,0.0836793,0.29144529,9.77692068,0.004379,-0.002371,0.004527,0.06229917154986663
1757944247.5346127,-0.7224094009508628,1.1320608986996812,2.140997972457953,-0.48892599101562345,0.7622037053386168,-2.6013062193861387,0.26407041700990097,2.2313187799637955e-10,0.09310671,0.28441152000000003,9.76613949,0.002463,0.001503,0.004899,0.06275445670109625
1757944247.5548,-0.7225610127038671,1.1322082894084984,2.1410175053866265,-0.48886485019285464,0.7620827934875117,-2.6013062193861387,0.26407041700990097,2.095868062612464e-10,0.09490194,0.27977139,9.76149936,0.002801,-0.000329,0.004633,0.06229766943922435
1757944247.575102,-0.7241098466460262,1.13453501287752,2.1410365392577644,-0.48880072738663044,0.7619579333095211,-2.6013062193861387,0.26407041700990097,1.968434969222051e-10,0.0779895,0.29668383,9.76090095,0.003608,0.000521,0.003312,0.06241475393722033
1757944247.5957572,-0.7257632761899887,1.1370259063726573,2.1410550929393724,-0.4887307835457409,0.7618246461260958,-2.6013062193861387,0.26407041700990097,1.8484916635878725e-10,0.08397360000000001,0.29010132000000005,9.771682140000001,0.003676,-0.001677,0.003471,0.06253995038568293
1757944247.616398,-0.7272627576149487,1.1392779475353452,2.1410731676169448,-0.48865640267636956,0.7616850749839188,-2.6013062193861387,0.26407041700990097,1.7357340979389031e-10,0.10059174,0.28620675,9.78470001,0.004629,-0.000377,0.00388,0.0625875180918228
1757944247.6376052,-0.730318609604945,1.1439568743412278,2.1410908737906045,-0.4885518580430913,0.7614989449001943,-2.6013062193861387,0.26407041700990097,1.6287442390033073e-10,0.09325386000000001,0.29952873,9.7781175,0.001036,0.001046,0.004417,0.06315140061485996
1757944247.6637945,-0.731016062750235,1.1448792390041682,2.141124662260129,-0.488392527932944,0.7612064191287891,-2.6013062193861387,0.26407041700990097,1.4363439166586437e-10,0.08756406,0.28186092,9.78829047,0.001656,0.001889,0.003998,0.06239064544644163
1757944247.684332,-0.7324454021491374,1.1470263856188883,2.1411408908922134,-0.48831360627678544,0.7610622425807131,-2.6013062193861387,0.26407041700990097,1.3488040613906715e-10,0.10328949000000001,0.30282489,9.783650340000001,0.002592,-0.001933,0.005452,0.06246867939158886
1757944247.7052283,-0.7338312861504419,1.1491068641049327,2.14115669567294,-0.4882330803151006,0.7609161368621133,-2.6013062193861387,0.26407041700990097,1.2665332770160866e-10,0.08772102000000001,0.28305774,9.77797035,0.004566,0.000229,0.004341,0.06251533637695099
1757944247.725885,-0.7350527854702192,1.1509322103282522,2.141172078207701,-0.4881529913465802,0.7607712764492601,-2.6013062193861387,0.26407041700990097,1.1892955030916305e-10,0.09071307,0.28965006000000004,9.772280550000001,0.002006,-7.1e-05,0.003146,0.06249856984741896
1757944247.7462387,-0.7364974114655537,1.153106321500646,2.1411870623004052,-0.48806974185822855,0.7606220209090632,-2.6013062193861387,0.26407041700990097,1.1166768323100421e-10,0.08442486000000002,0.28425456,9.7784118,0.003438,-0.001637,0.004111,0.06256375137070086
1757944247.7663126,-0.7383465922301462,1.155911863014282,2.141201679472875,-0.4879762423095403,0.7604572693729782,-2.6013062193861387,0.26407041700990097,1.0482424069830771e-10,0.09385227000000002,0.29309337,9.763598700000001,0.001086,-0.000141,0.004964,0.06275440312054993
1757944247.7866726,-0.7387422437066254,1.156453321379226,2.14121586112163,-0.4878946889879099,0.7603117136092824,-2.6013062193861387,0.26407041700990097,9.84348032942535e-11,0.08471916,0.27677934,9.77737194,0.001883,-0.00011,0.004425,0.062418398314558574
1757944247.8069975,-0.7402777682509457,1.1587721076888846,2.1412296809984053,-0.4878091186516051,0.7601603932186684,-2.6013062193861387,0.26407041700990097,9.242220648043094e-11,0.08667135000000001,0.29249496,9.7664436,0.003256,0.001063,0.005369,0.06254605993564014
1757944247.8279488,-0.7414738469747171,1.160562910870435,2.1412431304185526,-0.4877238124433388,0.7600099798395038,-2.6013062193861387,0.26407041700990097,8.677733477629984e-11,0.08232552,0.28934595,9.79847325,0.003147,-0.000583,0.005064,0.06253299682631261
1757944247.8481877,-0.7428142345626001,1.1625795509294532,2.1412562264382498,-0.48763643576106025,0.7598568117120871,-2.6013062193861387,0.26407041700990097,8.147257392158985e-11,0.08772102000000001,0.29039562,9.78889869,0.002296,-0.00234,0.003213,0.06257518964744287
1757944247.8688517,-0.7438721898073861,1.1641570632621745,2.1412689645775735,-0.4875511269356333,0.7597073438067001,-2.6013062193861387,0.26407041700990097,7.649626323041607e-11,0.09100737,0.28725642,9.77333022,0.00093,-0.000898,0.004387,0.06251658752825616
1757944247.8896334,-0.7454464245508804,1.1665399640582865,2.1412813789589435,-0.48745989392193767,0.759549075384933,-2.6013062193861387,0.26407041700990097,7.181244618595335e-11,0.08607294000000001,0.29474145,9.76554108,0.005356,-0.001204,0.005195,0.0626491421426853
1757944247.9102938,-0.7479938595156533,1.1704400758306444,2.1412935209141546,-0.4873454294894963,0.7593549463305745,-2.6013062193861387,0.26407041700990097,6.737945725493654e-11,0.08337519,0.27886887000000005,9.79233219,0.001775,-0.000953,0.004432,0.0630844805030642
1757944247.9309359,-0.7474584273877843,1.1695376671161086,2.141305256454043,-0.4872565206599468,0.759201176525566,-2.6013062193861387,0.26407041700990097,6.326613839614756e-11,0.09490194,0.3125466,9.763598700000001,0.005545,-0.000338,0.00549,0.062392598943762666
1757944247.9511018,-0.749755357289167,1.1730492607425151,2.1413167256372914,-0.48715166036537855,0.7590229255107882,-2.6013062193861387,0.26407041700990097,5.937625894798975e-11,0.09100737,0.28800198,9.76943565,0.002134,0.001206,0.003605,0.06281816758137032
1757944247.9719262,-0.7497047404685286,1.1729041489561856,2.141327832195003,-0.48706590181054255,0.7588749274974776,-2.6013062193861387,0.26407041700990097,5.575341385006023e-11,0.08397360000000001,0.29398608000000004,9.77797035,0.002608,-0.002573,0.005452,0.06235903241797963
1757944247.9922779,-0.7510709650714692,1.1749674530150263,2.141338648545048,-0.48697934717131436,0.7587260984400506,-2.6013062193861387,0.26407041700990097,5.2345721648870875e-11,0.08322804,0.28560834,9.77976558,0.00425,-0.000867,0.003267,0.062484445496799754
1757944248.012408,-0.7518648139382814,1.1761398756831185,2.1413491582920816,-0.4868996231732249,0.7585883289100384,-2.6013062193861387,0.26407041700990097,4.915218461702011e-11,0.08726976,0.29893032,9.764942670000002,0.002981,-0.000799,0.004613,0.06238854771310055
1757944248.0326324,-0.7530406919965512,1.1779083636201317,2.1413593855679904,-0.48682082306661006,0.7584523813167054,-2.6013062193861387,0.26407041700990097,4.615129333130374e-11,0.08696565,0.29369178,9.76988691,0.004014,-0.000828,0.004436,0.062444445101033315
1757944248.0527618,-0.754200349520828,1.1796524226093492,2.141369336875723,-0.4867422664680782,0.7583171785470838,-2.6013062193861387,0.26407041700990097,4.333184190238547e-11,0.10044459,0.28470582,9.75671208,0.001495,-0.000157,0.004625,0.062483793147188646
1757944248.0727894,-0.7554042753220729,1.1814662749749332,2.141379020948727,-0.48666256589986306,0.7581805433629011,-2.6013062193861387,0.26407041700990097,4.068223076076285e-11,0.09100737,0.2920437,9.77797035,0.003736,-0.002044,0.005513,0.06253206171722056
1757944248.0982885,-0.7636943772088336,1.1943200407647083,2.141388704000791,-0.4864486126036126,0.7578345862099588,-2.6013062193861387,0.26407041700990097,3.808565467118368e-11,0.0925083,0.2803698,9.78829047,0.002607,0.000156,0.003963,0.06494264720835749
1757944248.1226406,-0.7581038759719915,1.1854910995317705,2.1414068163912052,-0.4862294708409389,0.7574696592698885,-2.6013062193861387,0.26407041700990097,3.356137463703466e-11,0.08322804,0.28874754,9.77661657,0.001947,0.000125,0.003499,0.061787626353426564
1757944248.1432822,-0.7594169563544432,1.1874782122618777,2.141415457913281,-0.48615391124395607,0.7573408795933231,-2.6013062193861387,0.26407041700990097,3.151973769671678e-11,0.09370512,0.29862621,9.77317326,0.001303,-0.003202,0.005048,0.06207998599223191
1757944248.16381,-0.7602348762959354,1.1886947467811404,2.1414238552029463,-0.4860887313600877,0.7572286336819539,-2.6013062193861387,0.26407041700990097,2.9603313848346626e-11,0.08951625,0.30072555,9.77422293,0.004827,-0.001435,0.004772,0.06212697959912816
1757944248.1845794,-0.7611811599287202,1.1901120287614513,2.1414320188257223,-0.48602998559044047,0.757126734190222,-2.6013062193861387,0.26407041700990097,2.7802771108604663e-11,0.10253412,0.28485297000000004,9.77826465,0.002606,0.000336,0.004688,0.06220067005358791
1757944248.2045932,-0.762749868093312,1.1924996326971675,2.1414399744425143,-0.4859660550805999,0.7570170248335023,-2.6013062193861387,0.26407041700990097,2.61046832621616e-11,0.08308089000000002,0.28725642,9.77003406,0.004829,-0.002252,0.004029,0.062465729818330824
1757944248.2248363,-0.7633186890930878,1.1933304234548916,2.141447694983885,-0.48590959044297716,0.7569192398708546,-2.6013062193861387,0.26407041700990097,2.4513925543545394e-11,0.08397360000000001,0.27812331,9.775566900000001,0.002678,0.001568,0.004637,0.06233370418619438
1757944248.2455974,-0.7652214058980784,1.1962397572426686,2.1414552280389705,-0.48583976509621185,0.7568008712501266,-2.6013062193861387,0.26407041700990097,2.301093654364602e-11,0.09789399,0.28245933,9.787093650000001,0.001368,-0.001704,0.00363,0.06268540307949647
1757944248.2659953,-0.7653147836512311,1.1963314224016923,2.141462522994699,-0.4857825082661737,0.7567023807366197,-2.6013062193861387,0.26407041700990097,2.1607699762093916e-11,0.08756406,0.29608542000000004,9.759409830000001,0.005837,3.7e-05,0.004146,0.06235029271997646
1757944248.2862334,-0.7664844377940636,1.19810032281095,2.1414696193937743,-0.485722862573005,0.7566004309956854,-2.6013062193861387,0.26407041700990097,2.0287761166533505e-11,0.08726976,0.28934595,9.76508982,0.00189,0.001617,0.004282,0.062458796191649374
1757944248.306757,-0.7672105632700584,1.1991790670721005,2.141476509430051,-0.48566657790257844,0.7565039852327848,-2.6013062193861387,0.26407041700990097,1.9049797045157632e-11,0.09116433,0.28261629000000005,9.77766624,0.004846,-0.001729,0.003188,0.06239452106991199
1757944248.3284335,-0.7672105632700584,1.1991790670721005,2.141476509430051,-0.48566657790257844,0.7565039852327848,-2.6013062193861387,0.26407041700990097,1.9049797045157632e-11,0.09550035000000001,0.29907747,9.77362452,0.001492,0.000565,0.004906,0.06239452106991199
1757944248.3487659,-0.7718980100186695,1.2063774586374694,2.1414899395687623,-0.48538936526236104,0.7560548588671122,-2.6013062193861387,0.26407041700990097,1.6740437999477958e-11,0.09116433,0.28680516,9.75685923,0.004803,-0.001103,0.004896,0.06295476122006313
1757944248.369272,-0.7704760878648601,1.2041123763896084,2.141496261556977,-0.48531408023320305,0.7559294938712363,-2.6013062193861387,0.26407041700990097,1.571962203726154e-11,0.09520605,0.29697813,9.803260530000001,0.001859,0.000599,0.004245,0.06209981830742358
1757944248.3900647,-0.7707281039881312,1.2044553859873481,2.1415023875163524,-0.4852560608563848,0.7558313490885701,-2.6013062193861387,0.26407041700990097,1.4764333760505357e-11,0.08471916,0.2860596,9.78305193,0.002761,-0.000878,0.005087,0.062000186405080156
1757944248.4104707,-0.7707281039881312,1.2044553859873481,2.1415023875163524,-0.4852560608563848,0.7558313490885701,-2.6013062193861387,0.26407041700990097,1.4764333760505357e-11,0.08471916,0.2860596,9.78305193,0.002761,-0.000878,0.005087,0.062000186405080156
1757944248.4313078,-0.7754403101595878,1.2116974120423418,2.141514385298038,-0.48494496983869495,0.7553313741175983,-2.6013062193861387,0.26407041700990097,1.2969018231816507e-11,0.08772102000000001,0.30431601,9.77692068,0.002239,-0.000617,0.00323,0.06261117589850243
1757944248.4521523,-0.77563660570842,1.2119554676564845,2.1415200413635134,-0.48485205614969,0.7551794615666866,-2.6013062193861387,0.26407041700990097,1.2172766429874803e-11,0.08891784,0.29458449000000003,9.77108373,0.004083,-0.001378,0.004423,0.06241684988496496
1757944248.472241,-0.773994883558521,1.209351513845458,2.1415254749143724,-0.48480441519715983,0.755098411425116,-2.6013062193861387,0.26407041700990097,1.1436727010189061e-11,0.08861373,0.28546119000000003,9.79024266,0.001867,-8.3e-05,0.006064,0.06163003271353949
1757944248.4922805,-0.774791630252151,1.2105462213797586,2.1415307513495128,-0.48476950490107484,0.7550374584195807,-2.6013062193861387,0.26407041700990097,1.0744401927109442e-11,0.09700128,0.29713509,9.77661657,0.003451,-0.00274,0.003247,0.061837110053368644
1757944248.5123906,-0.7762844435468215,1.2128256506939359,2.1415358893133876,-0.4847326998447574,0.7549737480508582,-2.6013062193861387,0.26407041700990097,1.0090513722333915e-11,0.10403505,0.29668383,9.765246780000002,0.002092,-0.001444,0.00483,0.06222211738654754
1757944248.5325367,-0.7766074801413076,1.2132837751330543,2.141540865620895,-0.4847064735515521,0.754926712707602,-2.6013062193861387,0.26407041700990097,9.477851722033952e-12,0.09490194,0.29833191000000003,9.78919299,0.002658,-0.003384,0.003785,0.06211768173642313
1757944248.552838,-0.7775573346560959,1.2147187647803894,2.1415456984523296,-0.4846807769650683,0.7548806772845804,-2.6013062193861387,0.26407041700990097,8.901372358024042e-12,0.07693983,0.29054277,9.772280550000001,0.003377,0.000365,0.002783,0.062247636694547304
1757944248.5729756,-0.7804845500035665,1.2192339337830538,2.141550431759449,-0.48462138174637676,0.7547822433519731,-2.6013062193861387,0.26407041700990097,8.352516600285047e-12,0.08352234000000001,0.29548701,9.796678020000002,0.00123,-0.001717,0.005556,0.06301816199582465
1757944248.5937877,-0.7806903091348621,1.2195111075174483,2.1415550105183545,-0.4845668171424065,0.7546915005921777,-2.6013062193861387,0.26407041700990097,7.839627833066064e-12,0.09071307,0.29353482000000003,9.771829290000001,0.004039,-0.001717,0.005484,0.06270283458319104
1757944248.6147451,-0.7797633011942567,1.218024713901237,2.141559418111436,-0.4845371749243411,0.7546398034043614,-2.6013062193861387,0.26407041700990097,7.363315725528781e-12,0.10073889000000001,0.29623257000000003,9.784101600000001,0.0014,0.001829,0.004369,0.06208247325178261
1757944248.6350243,-0.7806479465105158,1.21936045202145,2.14156369628709,-0.4845083652899971,0.7545895910091162,-2.6013062193861387,0.26407041700990097,6.9152687279675245e-12,0.09205704,0.28081125,9.79323471,0.003141,-0.002774,0.004954,0.062216494901028124
1757944248.6552827,-0.7826594838080775,1.2224517468092284,2.1415678689281687,-0.484460432180101,0.7545097224239452,-2.6013062193861387,0.26407041700990097,6.490992746848832e-12,0.09116433,0.28860039000000004,9.7784118,0.002384,-0.00035,0.004507,0.06270004795185999
1757944248.6757264,-0.7833219225465027,1.223442465484264,2.1415719125228687,-0.48441106216511604,0.7544277668866539,-2.6013062193861387,0.26407041700990097,6.093027948755506e-12,0.08636724,0.30132396,9.77751909,0.001959,-0.000853,0.005521,0.06262116844194768
1757944248.6979988,-0.7843353167899899,1.2249802969716328,2.1415758370899924,-0.4843554616136402,0.7543362540187323,-2.6013062193861387,0.26407041700990097,5.7188813797533566e-12,0.09325386000000001,0.27722079,9.77092677,0.001883,4.3e-05,0.00496,0.06268600311239483
1757944248.7292364,-0.7855183933053358,1.2267435865702596,2.141583313696147,-0.48425347773001043,0.7541680744634546,-2.6013062193861387,0.26407041700990097,5.0397935965685785e-12,0.08726976,0.29383893,9.77601816,0.004589,-0.001506,0.003757,0.06256257043968172
1757944248.7493124,-0.7857767821462521,1.2271071929430037,2.1415868734698815,-0.48420754008692846,0.7540920957432717,-2.6013062193861387,0.26407041700990097,4.731764793189064e-12,0.09655002,0.30206952000000004,9.75895857,0.001872,5.6e-05,0.004789,0.06239567899885458
1757944248.7697608,-0.7861956709919249,1.227721287892626,2.141590317709019,-0.4841669414204012,0.7540245911691114,-2.6013062193861387,0.26407041700990097,4.443011933350898e-12,0.08337519,0.30266793,9.76704201,0.002376,-0.001915,0.005114,0.06232189580881896
1757944248.790713,-0.7868663557435571,1.2287280308646256,2.1415936537001503,-0.4841278371063819,0.7539595601083322,-2.6013062193861387,0.26407041700990097,4.171833313372018e-12,0.09116433,0.28141947,9.76568823,0.002369,0.001219,0.003316,0.0623496615657102
1757944248.8115997,-0.7875748792318282,1.2297942005308753,2.1415968848433167,-0.4840889488919966,0.7538950020294938,-2.6013062193861387,0.26407041700990097,3.9170975694679786e-12,0.08876088000000001,0.29414304,9.760155390000001,0.003837,0.000931,0.00305,0.06238375245066159
1757944248.831606,-0.7882919865402706,1.2308742281272222,2.1416000139980227,-0.4840495088850627,0.7538297143281223,-2.6013062193861387,0.26407041700990097,3.677802050982299e-12,0.08547453,0.29474145,9.768238830000001,0.004074,0.000609,0.004839,0.062413877189600266
1757944248.8517406,-0.7889462301211302,1.2318568404315569,2.1416030429281365,-0.4840100259116351,0.7537644865254419,-2.6013062193861387,0.26407041700990097,3.453105279607425e-12,0.09520605,0.28575549,9.7695828,0.00151,0.000881,0.003926,0.06241744800186967
1757944248.8724954,-0.7911422903638883,1.235240988728184,2.1416059962429834,-0.48394481364331393,0.7536592684066842,-2.6013062193861387,0.26407041700990097,3.24012400270919e-12,0.09430353000000001,0.29548701,9.77826465,0.002971,-0.001263,0.004283,0.06294601999334995
1757944248.8928192,-0.790399119476841,1.234048312753342,2.141608833735079,-0.48389902535887325,0.7535844464730984,-2.6013062193861387,0.26407041700990097,3.042113268132852e-12,0.08741691000000001,0.30431601,9.7493742,0.001742,0.002526,0.003411,0.06236515157134943
1757944248.9128587,-0.7926103693253381,1.2374570204485327,2.1416116001743983,-0.4838285653163473,0.7534712908901375,-2.6013062193861387,0.26407041700990097,2.8543963033745204e-12,0.08996751000000001,0.27977139,9.791586630000001,0.003255,-0.002223,0.00498,0.06292418553978532
1757944248.9340878,-0.7916023228588304,1.2358527927456846,2.1416142533832927,-0.4837826823920568,0.7533965611253646,-2.6013062193861387,0.26407041700990097,2.6801487974339457e-12,0.08772102000000001,0.28096821,9.77437008,0.001844,-0.000179,0.002667,0.06226843052289771
1757944248.9549828,-0.7927025335392451,1.2375322064718195,2.1416168253455767,-0.4837320493179231,0.7533145531165782,-2.6013062193861387,0.26407041700990097,2.516022114670752e-12,0.08322804,0.29907747,9.76120506,0.004369,-0.00111,0.005136,0.06248009707678609
1757944248.9754825,-0.7936009514922007,1.2388977999228923,2.141619315101652,-0.4836778230359499,0.7532270555896384,-2.6013062193861387,0.26407041700990097,2.361690906505292e-12,0.08786817,0.27408159,9.77766624,0.006832,-0.000118,0.003611,0.06257524830241247
1757944248.9955354,-0.7942465994749079,1.2398701918486108,2.141621721527935,-0.4836233653444706,0.7531393035518343,-2.6013062193861387,0.26407041700990097,2.2168252886649886e-12,0.09071307,0.28410741,9.77721498,0.000257,0.000389,0.003344,0.06256602224726363
1757944249.0163589,-0.7942101290247633,1.2397807857806529,2.141624038748806,-0.48357975155575683,0.7530685590344134,-2.6013062193861387,0.26407041700990097,2.081402914271478e-12,0.09131148000000001,0.30581694000000004,9.76704201,0.004417,-0.001187,0.004122,0.0623297458395128
1757944249.0364068,-0.7948447948232974,1.2407369548172977,2.1416262775664956,-0.48353772200277895,0.7530003898811376,-2.6013062193861387,0.26407041700990097,1.9541994173441372e-12,0.0981981,0.29697813,9.77018121,0.003846,0.002109,0.006519,0.06237549665805094
1757944249.0569124,-0.7954744183783027,1.241685690226047,2.141628439918783,-0.48349651361887785,0.7529335993181392,-2.6013062193861387,0.26407041700990097,1.834723407367933e-12,0.08502327,0.30161826,9.77871591,0.002931,0.000604,0.003246,0.06240875406773336
1757944249.0774398,-0.7960796283239137,1.2425968201039486,2.1416305275393333,-0.48345588082470686,0.7528678000469333,-2.6013062193861387,0.26407041700990097,1.722524968111669e-12,0.08801532000000001,0.28425456,9.768690090000002,0.002083,-0.002147,0.006009,0.06242696138283303
1757944249.1067817,-0.7974393781976554,1.2446528267821944,2.141634490760051,-0.48336767939497005,0.7527256609587893,-2.6013062193861387,0.26407041700990097,1.517985867296588e-12,0.0953532,0.28785483,9.772133400000001,0.003524,0.000591,0.004029,0.06248916551550283
1757944249.1277251,-0.7979707278996871,1.245450136647645,2.1416363666859475,-0.4833247781980001,0.7526565926436856,-2.6013062193861387,0.26407041700990097,1.4250583277772563e-12,0.09759969,0.28500993,9.76224492,0.001627,-0.001182,0.004282,0.06247164354974144
1757944249.1513824,-0.8008039000454537,1.249832271452713,2.1416381979915897,-0.4832435081800603,0.7525278080381458,-2.6013062193861387,0.26407041700990097,1.3366088131172143e-12,0.08951625,0.28814913000000003,9.77826465,0.003641,-0.001554,0.004674,0.06324254477898973
1757944249.171596,-0.8003452532991351,1.2490886468101159,2.141639952216188,-0.4831756098888796,0.752419938093171,-2.6013062193861387,0.26407041700990097,1.2542602174718626e-12,0.09176274,0.29728224000000003,9.76404996,0.003463,0.000348,0.004546,0.06273316773164564
1757944249.1921694,-0.7996611297844199,1.24799432233151,2.141641630326495,-0.4831284043657041,0.7523444070476447,-2.6013062193861387,0.26407041700990097,1.1776042253871675e-12,0.08457201,0.29818476,9.78560253,0.002839,-0.000522,0.00396,0.06227033619134929
1757944249.212549,-0.8014136013280383,1.2506946910569452,2.141643257911701,-0.4830655179173519,0.7522445316178141,-2.6013062193861387,0.26407041700990097,1.1050829037177443e-12,0.08471916,0.2832147,9.79069392,0.002458,0.002221,0.004919,0.06274153399361945
1757944249.2331033,-0.8011474239559323,1.2502519445860338,2.1416448170777596,-0.4830161698808029,0.7521658300213558,-2.6013062193861387,0.26407041700990097,1.0373914852261386e-12,0.08741691000000001,0.28546119000000003,9.759851280000001,0.003338,-0.001515,0.00385,0.06242042657837147
1757944249.2536955,-0.8032920747432031,1.2535637230680186,2.1416463316305325,-0.4829426819711615,0.7520495882040286,-2.6013062193861387,0.26407041700990097,9.732171658034768e-13,0.08457201,0.2832147,9.796678020000002,0.004502,-0.000841,0.002881,0.06299474877392564
1757944249.2739897,-0.8016014059559877,1.2509034681753497,2.141647768646342,-0.48290422751730805,0.751988006835342,-2.6013062193861387,0.26407041700990097,9.13871294814212e-13,0.09355797,0.28546119000000003,9.763451550000001,0.002662,-0.000133,0.003611,0.062138047417914344
1757944249.2947283,-0.8039444016516827,1.2545248246665672,2.1416491656840186,-0.4828414442806279,0.7518885963989526,-2.6013062193861387,0.26407041700990097,8.574921584604368e-13,0.08951625,0.29967588,9.75776175,0.004058,-0.001777,0.005243,0.06285030375833725
1757944249.3162577,-0.8038160784903444,1.2542981619810118,2.141650502343456,-0.4827889464630454,0.7518052756907302,-2.6013062193861387,0.26407041700990097,8.048279677576485e-13,0.08038314,0.26853894,9.784248750000001,0.002125,7.9e-05,0.004635,0.0625625481842089
1757944249.3374555,-0.8030375790086555,1.253059417010729,2.1416517755800317,-0.4827587827936251,0.7517568266765269,-2.6013062193861387,0.26407041700990097,7.557927227468377e-13,0.1013373,0.28994436,9.77482134,0.002953,-0.003596,0.004961,0.06212048973735342
1757944249.3574646,-0.8051963321522051,1.2563948892523358,2.1416530106714244,-0.4827067661960904,0.7516743973432095,-2.6013062193861387,0.26407041700990097,7.092479681463074e-13,0.09490194,0.30177522,9.771230880000001,0.003791,0.000307,0.002539,0.06277714244847267
1757944249.3787453,-0.8097473855999737,1.263455883351137,2.14165422597463,-0.48258006193648384,0.7514756294499915,-2.6013062193861387,0.26407041700990097,6.64512249585734e-13,0.09460764,0.28560834,9.787250610000001,0.00249,-0.000889,0.004117,0.06409451748451489
1757944249.4068315,-0.8050201418251677,1.2560439365335958,2.1416564428633276,-0.48246687487342627,0.751296759061981,-2.6013062193861387,0.26407041700990097,5.855690915443251e-13,0.08292393,0.28979721,9.77766624,0.00189,0.000179,0.005164,0.0617969089378331
1757944249.4278378,-0.8053915604760528,1.256597498346223,2.1416574714313947,-0.4824460973290357,0.7512632571956083,-2.6013062193861387,0.26407041700990097,5.499892745019539e-13,0.08277678,0.27991854,9.7812567,0.003603,-0.001082,0.003478,0.06194456438396267
1757944249.4479065,-0.8059251400224808,1.2574038922531534,2.141658455980169,-0.4824316174172276,0.7512396323772311,-2.6013062193861387,0.26407041700990097,5.165264873275934e-13,0.09236115,0.27917298,9.787692060000001,0.003422,0.00107,0.003578,0.06210187384261922
1757944249.4687154,-0.8063531151968075,1.2580461525926827,2.1416593967357063,-0.4824219752891753,0.7512235963797473,-2.6013062193861387,0.26407041700990097,4.850817913535399e-13,0.09176274,0.28590264,9.7692885,0.005772,0.001156,0.003281,0.062180317836983134
1757944249.488949,-0.806389399026013,1.25807879212974,2.14166029229181,-0.48242111897814044,0.7512212953772933,-2.6013062193861387,0.26407041700990097,4.556071284026425e-13,0.08876088000000001,0.28575549,9.77422293,0.002466,-0.000438,0.003473,0.06210298955479254
1757944249.5100024,-0.8083936812255854,1.261176245557069,2.1416611564349797,-0.4823975848168838,0.751183703673858,-2.6013062193861387,0.26407041700990097,4.2763469285118557e-13,0.08712261,0.29383893,9.752817510000002,0.002303,-0.002018,0.003176,0.06271175827024142
1757944249.5309396,-0.8077384535969336,1.2601326623887443,2.1416619731076105,-0.482388338970734,0.7511684107647161,-2.6013062193861387,0.26407041700990097,4.015598288441474e-13,0.0981981,0.28081125,9.78455286,0.003566,-0.000814,0.004865,0.06228015022603702
1757944249.5519514,-0.8076613554825792,1.259989642462206,2.1416627477061523,-0.48238719610244385,0.7511657915980662,-2.6013062193861387,0.26407041700990097,3.771404589390368e-13,0.08891784,0.2894931,9.775272600000001,0.002845,-0.000308,0.003938,0.06214492342028199
1757944249.5724268,-0.8082356732789168,1.260861285048506,2.1416634853595555,-0.4823845091282349,0.7511608150950784,-2.6013062193861387,0.26407041700990097,3.54169540510048e-13,0.08592579,0.28455867,9.77392863,0.004488,-0.001126,0.003924,0.06225995745555215
1757944249.5934198,-0.8091091588296437,1.2621990618423164,2.141664188692733,-0.48237390478091,0.751143546165421,-2.6013062193861387,0.26407041700990097,3.325267872945574e-13,0.07648857,0.29189655000000003,9.764491410000002,0.003135,0.000556,0.004695,0.06244976123853183
1757944249.6138263,-0.809278215196177,1.2624402006997486,2.141664854660541,-0.48236481497144545,0.7511286774064911,-2.6013062193861387,0.26407041700990097,3.1223370506506457e-13,0.08322804,0.28336185,9.77766624,0.004072,-0.00152,0.0061,0.06235824810877172
1757944249.634338,-0.8099400881316179,1.2634490156577587,2.1416654871240093,-0.482350101252468,0.7511050896082787,-2.6013062193861387,0.26407041700990097,2.9314405679753623e-13,0.08712261,0.2951829,9.752523210000001,0.003406,0.001029,0.005109,0.06245750185660255
1757944249.6551216,-0.8106433714426597,1.2645225801690172,2.141666087205505,-0.4823282890194629,0.7510704834400782,-2.6013062193861387,0.26407041700990097,2.7518686062039576e-13,0.09849240000000001,0.27587682,9.767787570000001,0.002634,-0.001233,0.004623,0.0625508600276372
1757944249.6758595,-0.810642241948526,1.2644995263251753,2.1416666522102172,-0.4823103597363684,0.7510419675917563,-2.6013062193861387,0.26407041700990097,2.5837238109012165e-13,0.09400923,0.29233800000000004,9.77976558,0.00454,-0.00108,0.003596,0.06238653153151519
1757944249.6978838,-0.810642241948526,1.2644995263251753,2.1416666522102172,-0.4823103597363684,0.7510419675917563,-2.6013062193861387,0.26407041700990097,2.5837238109012165e-13,0.09400923,0.29233800000000004,9.77976558,0.00454,-0.00108,0.003596,0.06238653153151519
1757944249.7211158,-0.8190585411276163,1.2775620317053231,2.141669082452279,-0.4818839701677645,0.7503749891900526,-2.6013062193861387,0.26407041700990097,2.2616492478467254e-13,0.08636724,0.27991854,9.77063247,0.005412,-0.002116,0.004739,0.0642531886983017
1757944249.7416975,-0.8162886886581158,1.2732292003333887,2.14166827058067,-0.4817595745516263,0.7501822273661322,-2.6013062193861387,0.26407041700990097,2.1209918779441434e-13,0.08786817,0.27961443,9.765246780000002,0.004084,-0.001537,0.004435,0.06279063434919036
1757944249.7674117,-0.8120672717268459,1.2666153917952276,2.1416691329082864,-0.48167086207349785,0.7500432470491263,-2.6013062193861387,0.26407041700990097,1.8713042621540413e-13,0.08921214,0.28800198,9.78515127,0.004455,-0.001048,0.003399,0.061291174940219184
1757944249.7877119,-0.8126591542333232,1.2675172792526992,2.1416695189372,-0.48166704937159033,0.7500370193969506,-2.6013062193861387,0.26407041700990097,1.7581279539315782e-13,0.08188407,0.28201788,9.77976558,0.001313,-0.001887,0.003816,0.06166947312324427
1757944249.8081667,-0.8126789783350902,1.2675286285893825,2.14166987662891,-0.48167995232729716,0.7500568660335399,-2.6013062193861387,0.26407041700990097,1.6518716591364858e-13,0.07933347,0.27572967000000004,9.799522920000001,0.004153,-0.000516,0.004044,0.061747036501623435
1757944249.8291364,-0.8130704614887214,1.2681189569030278,2.1416702081499217,-0.4817006425369858,0.7500888673181411,-2.6013062193861387,0.26407041700990097,1.5518729078831589e-13,0.07873506000000001,0.30027429,9.764942670000002,0.00166,-0.001736,0.006123,0.06192191434463984
1757944249.8498955,-0.8135772623640696,1.2688890911368362,2.1416705145703983,-0.4817233920650095,0.7501240929597628,-2.6013062193861387,0.26407041700990097,1.4577227148417914e-13,0.09520605,0.28141947,9.791292330000001,0.004998,-0.001945,0.00539,0.06208905864192051
1757944249.870208,-0.8130998844213733,1.268126944388449,2.141670792769437,-0.48175938853869804,0.750179969537401,-2.6013062193861387,0.26407041700990097,1.3696501470507592e-13,0.09205704,0.28455867,9.787093650000001,0.002942,0.002357,0.004199,0.06187714097647737
1757944249.8912947,-0.8139686941294295,1.2694612608632687,2.1416710488429764,-0.48178910982239537,0.7502260905221613,-2.6013062193861387,0.26407041700990097,1.2865191504441045e-13,0.09190989000000001,0.29533986,9.75716334,0.00359,-0.002429,0.005213,0.062169100706282614
1757944249.9114878,-0.8140324449415987,1.269542199467697,2.141671280397609,-0.4818207834794374,0.7502752691998019,-2.6013062193861387,0.26407041700990097,1.2085009069369834e-13,0.08786817,0.27841761000000004,9.76044969,0.000883,-0.000576,0.003855,0.06211784246467638
1757944249.9317691,-0.8145091474311827,1.2702663956676248,2.141671489758604,-0.48184787143125657,0.750317324442404,-2.6013062193861387,0.26407041700990097,1.1350844188165975e-13,0.09071307,0.28575549,9.78110955,0.002682,-0.001482,0.003667,0.062218697407186684
1757944249.9526033,-0.8157440479025353,1.2721714385358731,2.14167168022885,-0.4818569656465764,0.7503313687709094,-2.6013062193861387,0.26407041700990097,1.0656954064637565e-13,0.08622009,0.29893032,9.780658290000002,0.003894,-0.000914,0.003286,0.06255615739670861
1757944249.9726949,-0.8151667296589487,1.2712547884165386,2.14167184624727,-0.4818741761179627,0.7503580763178531,-2.6013062193861387,0.26407041700990097,1.0009046268384735e-13,0.08951625,0.28381311,9.76240188,0.002422,-0.000292,0.004659,0.06220322161265759
1757944249.9935765,-0.8165141965075282,1.2733355466396543,2.1416719951043905,-0.4818720578035636,0.7503547009186928,-2.6013062193861387,0.26407041700990097,9.396327564205597e-14,0.0836793,0.28305774,9.77407578,0.004589,-0.002491,0.004177,0.0625894232092522
1757944250.0146964,-0.8165577363471619,1.2733860899687022,2.1416721230535565,-0.48186879109401426,0.7503495589392037,-2.6013062193861387,0.26407041700990097,8.822135306137766e-14,0.09580446000000001,0.28441152000000003,9.752670360000002,0.002052,-0.000291,0.004784,0.06244720304138233
1757944250.0412652,-0.8163215682443198,1.272984475809239,2.141672316903106,-0.4818786148249488,0.7503648381498463,-2.6013062193861387,0.26407041700990097,7.781488846928544e-14,0.09370512,0.28845324,9.7692885,0.004751,-0.001146,0.002395,0.062181296054385674
1757944250.0623055,-0.8167334895824779,1.2736092811789024,2.141672386602261,-0.48188077199112084,0.7503682270998883,-2.6013062193861387,0.26407041700990097,7.307689865960754e-14,0.10223982000000001,0.28769787,9.7610481,0.003053,-0.001579,0.004473,0.06225663854873492
1757944250.0827885,-0.8172476729610179,1.274393522783884,2.1416724393677002,-0.4818774426370278,0.7503630919713818,-2.6013062193861387,0.26407041700990097,6.862000067429286e-14,0.08607294000000001,0.30326634,9.77273181,0.004979,-0.000645,0.004402,0.06234893694507921
1757944250.1037354,-0.8180941261060795,1.275695352638451,2.141672476631493,-0.48186252541684177,0.7503399264013677,-2.6013062193861387,0.26407041700990097,6.44200496866062e-14,0.08951625,0.2860596,9.78649524,0.002103,0.00031,0.002463,0.06253496052393506
1757944250.1246638,-0.8178320019603806,1.2752711463403075,2.141672495895236,-0.48185300867515135,0.7503251920820405,-2.6013062193861387,0.26407041700990097,6.049123844532644e-14,0.09460764,0.29084688000000003,9.75836016,0.002653,-0.000643,0.0033,0.06230399920437816
1757944250.1453393,-0.818001209199276,1.2755187884457009,2.1416724989729143,-0.48184409768928477,0.750311424205889,-2.6013062193861387,0.26407041700990097,5.680415627548017e-14,0.09056592000000001,0.29833191000000003,9.76300029,0.003471,0.001664,0.004663,0.06227386817510922
1757944250.1655457,-0.8189553128668885,1.2769888245639336,2.141672488362973,-0.48182337790518615,0.750279282970247,-2.6013062193861387,0.26407041700990097,5.332685145481746e-14,0.09595161,0.28276344,9.77991273,0.002442,-0.00171,0.005111,0.06251834789431951
1757944250.1894698,-0.8226677893577703,1.2827542424773064,2.1416724712838366,-0.4817390044771426,0.7501480004684128,-2.6013062193861387,0.26407041700990097,4.9994523455455915e-14,0.08143281,0.29668383,9.78634809,0.005091,0.000613,0.004197,0.0636470321728757
1757944250.2102387,-0.8197335517569726,1.278169845709853,2.1416724317414566,-0.4817024377582816,0.7500911955239316,-2.6013062193861387,0.26407041700990097,4.693721428461428e-14,0.10283823,0.2977335,9.75671208,0.001671,-0.001122,0.004168,0.06227486081231773
1757944250.230352,-0.8196151584699035,1.277970375256807,2.141672377608211,-0.4816753817116565,0.7500492378758956,-2.6013062193861387,0.26407041700990097,4.4073892725585225e-14,0.09190989000000001,0.28650105,9.77273181,0.004546,0.00048,0.003459,0.06218045447895767
1757944250.2511322,-0.8197625188983632,1.278184908848664,2.1416723098424475,-0.4816538958653933,0.7500159828863697,-2.6013062193861387,0.26407041700990097,4.138678196325189e-14,0.08352234000000001,0.28245933,9.80131815,0.001401,0.00137,0.0042,0.062192203502503
1757944250.271487,-0.820315912223414,1.2790318769510225,2.1416722296702586,-0.48163080617987475,0.749980249701953,-2.6013062193861387,0.26407041700990097,3.88584770422408e-14,0.09669717,0.28874754,9.756564930000001,0.003625,-0.001161,0.005745,0.06233552931933666
1757944250.2921634,-0.8205125537326111,1.279323497759906,2.1416721366487597,-0.48161018535147004,0.7499483766285473,-2.6013062193861387,0.26407041700990097,3.64855301687632e-14,0.09355797,0.29010132000000005,9.76135221,0.002179,-0.001843,0.003706,0.06232268112877737
1757944250.312855,-0.8214266280631723,1.2807324458544007,2.1416720326825356,-0.48158016863703695,0.7499018817116379,-2.6013062193861387,0.26407041700990097,3.4248402762234234e-14,0.10119015,0.28171377000000003,9.78500412,0.001515,-0.002591,0.004741,0.0625578032122138
1757944250.3328757,-0.8212988891980381,1.2805192887273145,2.141671916007992,-0.4815558977375041,0.7498643471374129,-2.6013062193861387,0.26407041700990097,3.215406946989266e-14,0.08891784,0.29338767,9.78230637,0.002973,0.000633,0.003736,0.06238645835967087
1757944250.3537767,-0.8214449555136104,1.2807326610275815,2.141671787655733,-0.4815343104741443,0.7498310065444399,-2.6013062193861387,0.26407041700990097,3.018923927629003e-14,0.08772102000000001,0.29474145,9.77617512,0.00359,4.5e-05,0.005132,0.06234910361891739
1757944250.3745854,-0.8216456005662097,1.2810311871677413,2.141671648124083,-0.4815146486140961,0.749800678449175,-2.6013062193861387,0.26407041700990097,2.8345041894414486e-14,0.07589016,0.28785483,9.78245352,0.001962,0.000505,0.004444,0.06233875071063077
1757944250.3951137,-0.8218383586058945,1.2813175951771076,2.141671497772304,-0.4814968913118973,0.749773329489428,-2.6013062193861387,0.26407041700990097,2.6614044680217104e-14,0.07589016,0.28785483,9.78245352,0.001962,0.000505,0.004444,0.06232773443998321
1757944250.4217412,-0.8226522262886983,1.2825578847604249,2.141671169286612,-0.48143349634767285,0.7496752340880918,-2.6013062193861387,0.26407041700990097,2.344813776495522e-14,0.08786817,0.29309337,9.76254903,0.003082,0.000942,0.005042,0.06235842280067251
1757944250.442176,-0.8226360843054761,1.28251947153967,2.141670989147549,-0.4814145515246706,0.7496460678552397,-2.6013062193861387,0.26407041700990097,2.2016590621712954e-14,0.08292393,0.29922462000000005,9.77737194,0.004261,-0.002472,0.004299,0.06227996099378924
1757944250.4622338,-0.8229528033588531,1.282999533682404,2.1416707998691162,-0.48139620365054275,0.749617844741214,-2.6013062193861387,0.26407041700990097,2.067164926774471e-14,0.10478061,0.28860039000000004,9.76284333,0.003706,-0.00055,0.004578,0.06233138486520129
1757944250.4832397,-0.8232014423261159,1.2833737349968073,2.1416706016317137,-0.481378788681044,0.7495910853784602,-2.6013062193861387,0.26407041700990097,1.9408706538783045e-14,0.08576883000000002,0.29474145,9.77766624,0.002744,-0.001239,0.004764,0.06234684779522145
1757944250.5031927,-0.8235056283389307,1.2838345817178602,2.1416703948306743,-0.4813610418994989,0.7495638188073183,-2.6013062193861387,0.26407041700990097,1.822236660772608e-14,0.09400923,0.28575549,9.76584519,0.005195,0.00038,0.003073,0.062377709342008425
1757944250.5239968,-0.8237221749377411,1.2841591062938778,2.1416701796456614,-0.4813439573978079,0.7495375926079816,-2.6013062193861387,0.26407041700990097,1.710865089758176e-14,0.09968922,0.2860596,9.75042387,0.002487,-0.000699,0.004658,0.06237214690453922
1757944250.5445964,-0.8240595981045452,1.2846720014342545,2.141669956562861,-0.4813255063661968,0.7495092466895604,-2.6013062193861387,0.26407041700990097,1.6062305000139276e-14,0.08996751000000001,0.28800198,9.74503818,0.005268,-0.00243,0.002789,0.06240995018091103
1757944250.56516,-0.8242632781583883,1.2849767786974433,2.1416697256950945,-0.4813074870068334,0.7494815812948541,-2.6013062193861387,0.26407041700990097,1.5080150245337574e-14,0.08217837000000001,0.28650105,9.75102228,0.002568,0.001156,0.005273,0.06239463233895494
1757944250.586134,-0.8244942098315466,1.2853241331294933,2.141669487381778,-0.48128955754866426,0.7494540643100275,-2.6013062193861387,0.26407041700990097,1.4158049773624602e-14,0.08562168,0.29099403,9.76733631,0.004173,-0.002796,0.004638,0.062393236762151125
1757944250.6069124,-0.8251442620408148,1.286324268423138,2.1416692424508774,-0.481264835656324,0.7494159758172484,-2.6013062193861387,0.26407041700990097,1.3290089284785237e-14,0.0836793,0.28814913000000003,9.76120506,0.002974,0.000164,0.004923,0.06253665734699197
1757944250.6272476,-0.8249756673279133,1.2860497650990281,2.1416689901397046,-0.4812457103023095,0.7493866108154102,-2.6013062193861387,0.26407041700990097,1.2477502276909752e-14,0.09295956000000001,0.28485297000000004,9.771525180000001,0.003503,-0.002032,0.00445,0.06237035149196823
1757944250.6473927,-0.8254102541431031,1.2867146578979771,2.141668731489979,-0.48122378489033935,0.749352893580026,-2.6013062193861387,0.26407041700990097,1.1713595723220849e-14,0.09415638000000001,0.29922462000000005,9.75760479,0.004927,-0.001218,0.003432,0.062449314397965375
1757944250.668353,-0.825575269385453,1.2869599134884206,2.141668466424216,-0.4812028004599533,0.7493206491887433,-2.6013062193861387,0.26407041700990097,1.0996778655693764e-14,0.09909081000000002,0.28141947,9.77482134,0.003107,0.001006,0.004607,0.0624193068683908
1757944250.6893985,-0.8258082870896604,1.287311193361913,2.141668195279861,-0.48118192905875873,0.7492885882356461,-2.6013062193861387,0.26407041700990097,1.0323807000737967e-14,0.08442486000000002,0.27722079,9.784405710000001,0.003753,-0.001659,0.002667,0.06242057144788578
1757944250.7097597,-0.826250727398937,1.2879887108635935,2.141667918529042,-0.48115772937904694,0.7492513502785965,-2.6013062193861387,0.26407041700990097,9.691178555820315e-15,0.09430353000000001,0.29578131,9.775723860000001,0.002543,0.001807,0.003992,0.0624943144772401
1757944250.7305005,-0.8263203532047445,1.2880858176088814,2.1416676360098554,-0.481135791418235,0.7492176408804155,-2.6013062193861387,0.26407041700990097,9.097947564048818e-15,0.08667135000000001,0.28889469,9.76419711,0.003752,-0.001507,0.003503,0.06242578594700038
1757944250.7515256,-0.8290091879012343,1.2922616204123027,2.141667350664921,-0.48107161583720814,0.7491181500188341,-2.6013062193861387,0.26407041700990097,8.532607774238832e-15,0.09415638000000001,0.29173959000000005,9.779167170000001,0.00279,0.000648,0.005688,0.06326841304419487
1757944250.7716823,-0.8283429444124688,1.2912130756935847,2.1416670593419287,-0.48101831038057197,0.7490355897313073,-2.6013062193861387,0.26407041700990097,8.005972502511425e-15,0.09415638000000001,0.28156662,9.77377167,0.001573,-0.001122,0.00463,0.0627878823824643
1757944250.7919102,-0.8270917388063238,1.2892537714011125,2.1416667618300558,-0.4809895042103616,0.7489911960387514,-2.6013062193861387,0.26407041700990097,7.516609353109648e-15,0.09879651,0.29249496,9.780511140000002,0.005063,0.0009,0.003808,0.06222427324164532
1757944250.8121197,-0.8309212247400921,1.2952061462904478,2.1416664631387166,-0.4809024908462539,0.7488561554922957,-2.6013062193861387,0.26407041700990097,7.0468550392846416e-15,0.09475478999999999,0.29144529,9.76149936,0.001929,0.000453,0.003261,0.06352216769079996
1757944250.8327994,-0.8276582699027291,1.290114403494101,2.141666156844133,-0.4808708508905304,0.7488073568963419,-2.6013062193861387,0.26407041700990097,6.616465800769069e-15,0.09595161,0.28006569000000003,9.795775500000001,0.004211,-0.00022,0.005368,0.06211255541156864
1757944250.8539777,-0.8275350968001204,1.2899120168657427,2.141665846125635,-0.480851719605444,0.748778057308072,-2.6013062193861387,0.26407041700990097,6.213044404917084e-15,0.09026181000000001,0.27961443,9.751473540000001,0.002867,-9.3e-05,0.004608,0.06209716047474682
1757944250.8744254,-0.8277789478411598,1.2902812742823364,2.1416655313234534,-0.48083820949733025,0.748757522677399,-2.6013062193861387,0.26407041700990097,5.833941725352129e-15,0.08203122,0.28725642,9.76554108,0.002747,-0.001402,0.003292,0.0622020531290664
1757944250.8953793,-0.8282112943333008,1.2909441696582855,2.1416652126697757,-0.4808252383283549,0.7487378318366871,-2.6013062193861387,0.26407041700990097,5.477319677471158e-15,0.09086022,0.2948886,9.75910572,0.003077,0.00116,0.004331,0.06234215636440817
1757944250.9207547,-0.8302333237928332,1.2905286515797856,2.142223825576977,-0.48160691390872296,0.7486803569073818,-2.6013062193861387,0.26407041700990097,4.824300532566917e-15,0.09100737,0.29338767,9.76898439,0.004775,-0.001165,0.004446,0.06203167212847455
1757944250.9436326,-0.8338613478968198,1.2926399516346483,2.142766920889736,-0.482350793793131,0.7486797748872194,-2.6013062193861387,0.26407041700990097,4.5279643658665475e-15,0.09236115,0.28709946000000003,9.78305193,0.000544,-0.000948,0.004845,0.06259756273463818
1757944250.9639907,-0.8338613478968198,1.2926399516346483,2.142766920889736,-0.482350793793131,0.7486797748872194,-2.6013062193861387,0.26407041700990097,4.5279643658665475e-15,0.09236115,0.28709946000000003,9.78305193,0.000544,-0.000948,0.004845,0.06259756273463818
1757944250.9899592,-0.8411921478140425,1.2970053442586056,2.143818668987241,-0.48345499003814146,0.748315547955858,-2.6013062193861387,0.26407041700990097,3.972894016759361e-15,0.10358379000000001,0.29189655000000003,9.76733631,0.003059,0.002228,0.004535,0.06290153020196892
1757944251.0104308,-0.842495088612263,1.2955767961280256,2.144310627550685,-0.48394876806777043,0.7482243233271527,-2.6013062193861387,0.26407041700990097,3.7275952847110396e-15,0.08547453,0.29069973,9.780511140000002,0.003082,-0.000791,0.004376,0.06255687863530475
1757944251.031061,-0.8414557015159898,1.2905697866538468,2.144779275889766,-0.484434095548618,0.7482108268481418,-2.6013062193861387,0.26407041700990097,3.5020601952693076e-15,0.09236115,0.28186092,9.76254903,0.004895,-0.000157,0.003962,0.06148709987491509
1757944251.052059,-0.8435852554092518,1.2904896287797003,2.1452309819758106,-0.48489266649785484,0.748215019176106,-2.6013062193861387,0.26407041700990097,3.2899306480657644e-15,0.08622009,0.29398608000000004,9.76704201,0.003145,-0.00057,0.004171,0.06172824510648288
1757944251.0728474,-0.8461176166727743,1.2910565818596185,2.145666817949728,-0.4853203215271247,0.7482191848920453,-2.6013062193861387,0.26407041700990097,3.0899371494723163e-15,0.09295956000000001,0.29024847,9.77646942,0.002821,-6.7e-05,0.004601,0.06204050627632371
1757944251.0933077,-0.847968320763702,1.2906002728827766,2.146086041536633,-0.48572383669794916,0.7482298064968576,-2.6013062193861387,0.26407041700990097,2.90226293560065e-15,0.08083440000000001,0.29159244,9.75836016,0.001124,-0.001068,0.00352,0.062046722768906416
1757944251.1137898,-0.8509422373208402,1.291897996622198,2.146490917398621,-0.4860913985330569,0.7482184521254228,-2.6013062193861387,0.26407041700990097,2.724897812519166e-15,0.09759969,0.28814913000000003,9.763598700000001,0.005284,-0.000799,0.004936,0.06243230076164822
1757944251.1347616,-0.8519487574047456,1.2901974402116851,2.14687875136093,-0.48644551805473596,0.7482234080700895,-2.6013062193861387,0.26407041700990097,2.5594214023608775e-15,0.08067744,0.28201788,9.78275763,0.003935,0.000323,0.004545,0.06206961348945532
1757944251.160641,-0.8559222243921828,1.2898900770536708,2.1476125394602166,-0.48706437250752976,0.7481764489256159,-2.6013062193861387,0.26407041700990097,2.256435332836418e-15,0.09460764,0.28709946000000003,9.77032836,0.004666,-0.000379,0.003131,0.06204270322692077
1757944251.1812363,-0.8582498605413037,1.2903014919089901,2.1479573287207554,-0.48735002798247856,0.7481582115840977,-2.6013062193861387,0.26407041700990097,2.119073142456374e-15,0.09355797,0.28725642,9.78589683,0.001993,-0.001678,0.00507,0.062232553535324864
1757944251.2022161,-0.8602467854306679,1.2902314790105447,2.1482885359995088,-0.4876166593126394,0.748134009868225,-2.6013062193861387,0.26407041700990097,1.9900102627361452e-15,0.09011466,0.27841761000000004,9.772133400000001,0.003344,-0.001148,0.003778,0.06227000931789661
1757944251.2226975,-0.8620505256173417,1.2898921407394577,2.148606338902918,-0.487867443859597,0.7481074423160878,-2.6013062193861387,0.26407041700990097,1.868885524890138e-15,0.07739109000000001,0.27587682,9.75716334,0.00214,-0.000641,0.003828,0.06223820121325432
1757944251.2432199,-0.8643135076085496,1.2902824105086865,2.1489117830937143,-0.48809712726380566,0.7480677186814907,-2.6013062193861387,0.26407041700990097,1.7548707339922335e-15,0.10568313,0.29369178,9.77273181,0.003303,-0.001255,0.00414,0.06237293249150233
1757944251.264224,-0.8662677276478565,1.290225327515199,2.1492048567613367,-0.48830976875212045,0.7480203100661841,-2.6013062193861387,0.26407041700990097,1.6477789128697611e-15,0.08337519,0.29173959000000005,9.77960862,0.002845,0.000842,0.004515,0.062379043098312756
1757944251.2842531,-0.868243486412814,1.290227069726377,2.149485999519724,-0.48850581120314945,0.7479649713452649,-2.6013062193861387,0.26407041700990097,1.5471714418175345e-15,0.07409493,0.29293641,9.783208890000001,0.002146,-0.00048,0.004032,0.06239777675132854
1757944251.3048065,-0.8705008538762697,1.2906846289824982,2.1497559422001062,-0.4886818649556335,0.7478948729313648,-2.6013062193861387,0.26407041700990097,1.4524929553669486e-15,0.09609875999999999,0.28365615,9.77362452,0.002152,-9.6e-05,0.002842,0.06251379247645668
1757944251.3258028,-0.8723320794830867,1.290515650138755,2.1500145420280727,-0.4888441660191415,0.7478196670079928,-2.6013062193861387,0.26407041700990097,1.3636461692806706e-15,0.08831943,0.28680516,9.76240188,0.002458,-0.001351,0.005505,0.06246818612950033
1757944251.3460455,-0.8764714674573157,1.2938955890623367,2.1502647918005744,-0.48895848643778567,0.7476801429875837,-2.6013062193861387,0.26407041700990097,1.2790961723815988e-15,0.09190989000000001,0.29264211,9.77781339,0.005605,-0.001147,0.004578,0.06321477042573227
1757944251.366126,-0.8757936070574089,1.2899413193849132,2.150501534757052,-0.4890951991412479,0.7475943108243662,-2.6013062193861387,0.26407041700990097,1.2010871903027004e-15,0.09325386000000001,0.28620675,9.77347737,0.000431,0.001874,0.004406,0.062190448409131016
1757944251.3864582,-0.8778021203639257,1.2901196569813582,2.15072831339534,-0.4892208515955442,0.7475080585499604,-2.6013062193861387,0.26407041700990097,1.1277382540453767e-15,0.09040896000000001,0.29024847,9.763893,0.005563,-0.001494,0.004785,0.06230912352676056
1757944251.4065459,-0.879752345939436,1.2902336914531911,2.1509453615255936,-0.48933608285935,0.7474201494398679,-2.6013062193861387,0.26407041700990097,1.0588034208772671e-15,0.09145863,0.27781920000000004,9.77377167,0.002895,0.000508,0.005629,0.062382411937583745
1757944251.4272976,-0.8814256704674529,1.2899502190436174,2.1511527074570482,-0.48944486235929635,0.7473358779731757,-2.6013062193861387,0.26407041700990097,9.941286289056147e-16,0.08861373,0.28680516,9.768690090000002,0.0023,-0.001535,0.005605,0.06234964373457887
1757944251.447742,-0.8829799517840213,1.2895107378438668,2.151350566390101,-0.4895493560439655,0.7472581490912298,-2.6013062193861387,0.26407041700990097,9.334812104954432e-16,0.0953532,0.29189655000000003,9.77317326,0.001738,0.000776,0.003505,0.062288302695305886
1757944251.4681811,-0.8854252420191834,1.29045423751556,2.1515401132287977,-0.48963684461370616,0.7471650755233497,-2.6013062193861387,0.26407041700990097,8.76286721846895e-16,0.07903917,0.28441152000000003,9.768690090000002,0.001399,0.000173,0.003744,0.0625438733392392
1757944251.4889321,-0.8870809681899935,1.2902174603711842,2.1517208554926013,-0.4897176787359101,0.7470727334217101,-2.6013062193861387,0.26407041700990097,8.226366861407378e-16,0.08427771,0.2920437,9.76404996,0.005435,-0.000587,0.00428,0.06248305022861742
1757944251.5089266,-0.8888893750368078,1.2902378912150472,2.1518932434961773,-0.489790167255006,0.7469783526063216,-2.6013062193861387,0.26407041700990097,7.722537975448712e-16,0.09400923,0.28006569000000003,9.76943565,0.002877,-0.000818,0.004083,0.06249471193148236
1757944251.529064,-0.8912251997921279,1.291085155873495,2.152058019771035,-0.4898463793592141,0.7468683684146739,-2.6013062193861387,0.26407041700990097,7.247867928231905e-16,0.08562168,0.29264211,9.78245352,0.003968,-0.000424,0.00506,0.06268757795986812
1757944251.5498328,-0.8912251997921279,1.291085155873495,2.152058019771035,-0.4898463793592141,0.7468683684146739,-2.6013062193861387,0.26407041700990097,7.247867928231905e-16,0.08562168,0.29264211,9.78245352,0.003968,-0.000424,0.00506,0.06268757795986812
1757944251.5702436,-0.9000632994441472,1.3018487383392352,2.152220971290869,-0.4897672613201673,0.746541367870456,-2.6013062193861387,0.26407041700990097,6.783565695958489e-16,0.09700128,0.29398608000000004,9.7692885,0.002639,0.001803,0.003808,0.06500027126204574
1757944251.590304,-0.8995464840666086,1.2957155896448378,2.152521235091111,-0.48960962079399584,0.7459152738300033,-2.6013062193861387,0.26407041700990097,5.95343350752589e-16,0.09520605,0.28860039000000004,9.77721498,0.004169,0.000434,0.004466,0.06266411199250761
1757944251.6104388,-0.8976213953782746,1.2901627090376988,2.1526553921561007,-0.4896309645878662,0.7457883533768743,-2.6013062193861387,0.26407041700990097,5.592130773372175e-16,0.09504909,0.28740357,9.791292330000001,0.001603,-0.001431,0.004847,0.06149225584892295
1757944251.631214,-0.9032071363686152,1.2960644561883632,2.152785846251474,-0.4896031116571243,0.7455992157939944,-2.6013062193861387,0.26407041700990097,5.244230602904549e-16,0.09490194,0.27872172,9.77751909,0.004861,-0.002399,0.003963,0.06310298679161504
1757944251.6519048,-0.8999124212501501,1.2884775268068271,2.1529057769072626,-0.48964859754129963,0.7455363215708867,-2.6013062193861387,0.26407041700990097,4.92788260227867e-16,0.08846658,0.29264211,9.763451550000001,0.001922,0.001206,0.004906,0.06135135152182864
1757944251.67212,-0.9015308656678499,1.2883964947771918,2.1530193511741924,-0.48970480930468546,0.7455039607739199,-2.6013062193861387,0.26407041700990097,4.630080889297594e-16,0.08756406,0.28769787,9.77362452,0.00382,-0.002113,0.002996,0.061642469891460876
1757944251.69273,-0.9030798653559845,1.2882334593095632,2.1531266451676547,-0.4897685552953367,0.7454924379461734,-2.6013062193861387,0.26407041700990097,4.3499252451460795e-16,0.0925083,0.2948886,9.79038981,0.002107,0.00056,0.00601,0.06183027411560879
1757944251.712831,-0.9050900311772135,1.2887946723374948,2.15322813769545,-0.48982985578274973,0.7454833497305201,-2.6013062193861387,0.26407041700990097,4.0856697786521903e-16,0.06885639,0.28051695,9.791586630000001,0.003213,-0.004758,0.004264,0.06212393224923316
1757944251.733413,-0.9066025738113558,1.2886216212134713,2.153323664347588,-0.48989156461511146,0.7454800738504885,-2.6013062193861387,0.26407041700990097,3.837309750496244e-16,0.08996751000000001,0.28695231,9.76972995,0.003626,0.000116,0.005263,0.062183010572192575
1757944251.7539995,-0.9096363870227223,1.2907826795969584,2.1534143951493387,-0.4899289890855679,0.7454423203853237,-2.6013062193861387,0.26407041700990097,3.601746260158698e-16,0.08067744,0.2951829,9.75671208,0.003177,-0.000819,0.004683,0.06274186706297495
1757944251.7740917,-0.9092087605640269,1.2877039073324863,2.153498322015947,-0.48998880256291416,0.7454456839356987,-2.6013062193861387,0.26407041700990097,3.383267749655408e-16,0.08935929000000001,0.28156662,9.77677353,0.000176,0.000901,0.003007,0.06202122043375888
1757944251.8013225,-0.9125896864844104,1.2880580586216905,2.1536506321395077,-0.49009386309217634,0.7454496251629595,-2.6013062193861387,0.26407041700990097,2.98419879746183e-16,0.08921214,0.2951829,9.78485697,0.00389,-0.002807,0.004,0.06230812357828535
1757944251.821804,-0.9138619690212473,1.287632375765722,2.1537191653336913,-0.49014018324777836,0.7454504880144281,-2.6013062193861387,0.26407041700990097,2.8025709643497543e-16,0.09340101,0.28785483,9.756564930000001,0.002608,0.000168,0.003201,0.06226327299788369
1757944251.8419774,-0.9159599137133286,1.2884828999176972,2.1537832091827127,-0.4901718206360122,0.7454335033655003,-2.6013062193861387,0.26407041700990097,2.631244398149381e-16,0.1013373,0.29429019,9.76090095,0.003339,-0.001576,0.006341,0.06250967249189175
1757944251.8625824,-0.9166497098048552,1.2872152214581225,2.153842158515408,-0.49020813306904015,0.7454296196043482,-2.6013062193861387,0.26407041700990097,2.471105015518382e-16,0.08772102000000001,0.28695231,9.79203789,0.003217,0.000326,0.004511,0.06223395009237509
1757944251.8826866,-0.9181300534230243,1.2871712215058468,2.153896625504279,-0.49023897448855724,0.7454232192892029,-2.6013062193861387,0.26407041700990097,2.3205873332692053e-16,0.08667135000000001,0.28620675,9.78156081,0.002626,-0.000576,0.005646,0.06229001819868763
1757944251.9030485,-0.9181300534230243,1.2871712215058468,2.153896625504279,-0.49023897448855724,0.7454232192892029,-2.6013062193861387,0.26407041700990097,2.3205873332692053e-16,0.08667135000000001,0.28620675,9.78156081,0.002626,-0.000576,0.005646,0.06229001819868763
1757944251.92338,-0.9181300534230243,1.2871712215058468,2.153896625504279,-0.49023897448855724,0.7454232192892029,-2.6013062193861387,0.26407041700990097,2.3205873332692053e-16,0.08667135000000001,0.28620675,9.78156081,0.002626,-0.000576,0.005646,0.06229001819868763
1757944251.9502378,-0.9346541395331948,1.3076866318927065,2.1540092649901403,-0.48957247437505547,0.744215453172568,-2.6013062193861387,0.26407041700990097,2.021565724568262e-16,0.0836793,0.2832147,9.77048532,0.002351,0.000719,0.005376,0.06539764987766401
1757944251.97079,-0.9266475601573237,1.2910354730857305,2.1540945311617232,-0.4893361188856913,0.743749558847333,-2.6013062193861387,0.26407041700990097,1.7790278472300533e-16,0.07933347,0.28680516,9.767493270000001,0.002617,0.001717,0.003613,0.06126722406542294
1757944251.9909153,-0.924442685566686,1.2854885914865446,2.154128634803424,-0.4893347597165564,0.7437235353726841,-2.6013062193861387,0.26407041700990097,1.673014126390315e-16,0.09116433,0.28410741,9.772280550000001,0.003887,-0.002065,0.003698,0.06043219733062878
1757944252.0121822,-0.9253943650309114,1.2847615174368825,2.1541590365754733,-0.48936491338558996,0.7437621104587206,-2.6013062193861387,0.26407041700990097,1.5732464728357622e-16,0.10014048,0.28590264,9.75745764,0.005691,0.001777,0.004699,0.060818944598968645
1757944252.032828,-0.9270171668594259,1.2850750256159498,2.1541860072372767,-0.4894117977788004,0.7438348968811248,-2.6013062193861387,0.26407041700990097,1.4789782986196267e-16,0.09071307,0.29429019,9.77048532,0.002197,-0.000392,0.003971,0.06131793251641238
1757944252.0532022,-0.9286702557632661,1.285454731698436,2.154209577956019,-0.4894668360325563,0.7439233775165914,-2.6013062193861387,0.26407041700990097,1.3899593200856994e-16,0.09669717,0.28470582,9.78529842,0.003994,-0.00119,0.003493,0.061697446143243045
1757944252.0799196,-0.9305510804453742,1.2841054902656284,2.154247047775641,-0.48956306641056074,0.7440779204093222,-2.6013062193861387,0.26407041700990097,1.2265900878537088e-16,0.09700128,0.27961443,9.77677353,0.004671,-0.00168,0.004565,0.061584757775296026
1757944252.1022842,-0.9329974608997118,1.2857504862547946,2.1542607624344647,-0.48961675937483295,0.7441666423046887,-2.6013062193861387,0.26407041700990097,1.1522349112020382e-16,0.08981055,0.30221667,9.78305193,0.001064,-9.7e-05,0.004489,0.062168591383155045
1757944252.122427,-0.933334053773451,1.2842102837693514,2.154271035043376,-0.48967965012831394,0.7442713846807882,-2.6013062193861387,0.26407041700990097,1.0827048784663695e-16,0.08801532000000001,0.28934595,9.76613949,0.003805,-0.000176,0.00404,0.0619095018020462
1757944252.1449645,-0.9368962006306599,1.2875878937449812,2.1542791211518617,-0.4897052524575538,0.7443187770844703,-2.6013062193861387,0.26407041700990097,1.0163500937196209e-16,0.09624591,0.28620675,9.780815250000002,0.003949,-0.00272,0.003198,0.06279291680551513
1757944252.1650636,-0.935643602216584,1.283671140195218,2.154283471587103,-0.4897575965471488,0.7444100400657808,-2.6013062193861387,0.26407041700990097,9.549976427012229e-17,0.09490194,0.28470582,9.787397760000001,0.001331,-0.00157,0.003389,0.061867970916694666
1757944252.186102,-0.9384261663957908,1.285903991865959,2.154285584045944,-0.4897835665558861,0.7444632898189771,-2.6013062193861387,0.26407041700990097,8.967197582622878e-17,0.08007903000000001,0.29757654,9.75461274,0.004764,-0.000504,0.002963,0.0625115037991866
1757944252.206484,-0.938772142734205,1.2844536964532447,2.154284751756787,-0.4898141948953316,0.74452638108603,-2.6013062193861387,0.26407041700990097,8.42267499890588e-17,0.09789399,0.27886887000000005,9.803417490000001,0.002032,-0.002333,0.004608,0.06219477437705956
1757944252.2269099,-0.9397189617355011,1.2839358750866805,2.154281287610571,-0.48984266749126754,0.7445895201999286,-2.6013062193861387,0.26407041700990097,7.91161421151534e-17,0.0811287,0.29233800000000004,9.7692885,0.003948,-0.001739,0.003859,0.06215499233811085
1757944252.2473001,-0.9397189617355011,1.2839358750866805,2.154281287610571,-0.48984266749126754,0.7445895201999286,-2.6013062193861387,0.26407041700990097,7.91161421151534e-17,0.0811287,0.29233800000000004,9.7692885,0.003948,-0.001739,0.003859,0.06215499233811085
1757944252.2714074,-0.9471383897389345,1.2913246568911414,2.15427166552334,-0.48958524415824334,0.744212202350988,-2.6013062193861387,0.26407041700990097,6.940011229097616e-17,0.09729558,0.28575549,9.78904584,0.002619,-0.0019,0.004034,0.06315826605352744
1757944252.292316,-0.9456563343796043,1.287163239209887,2.154261887668178,-0.48953797897877815,0.7441609845910554,-2.6013062193861387,0.26407041700990097,6.515299415326069e-17,0.08277678,0.29474145,9.75836016,0.005317,0.001225,0.003654,0.062167779972483045
1757944252.3128357,-0.9447968898787141,1.2839695904367519,2.154249435810385,-0.48952398560927424,0.7441695579617208,-2.6013062193861387,0.26407041700990097,6.121332222441192e-17,0.09744273000000002,0.28575549,9.755966520000001,0.000981,-0.001046,0.00599,0.06160054767613764
1757944252.33336,-0.9454531144718149,1.2830988490515436,2.1542347860537063,-0.48952423260227085,0.7442071670756587,-2.6013062193861387,0.26407041700990097,5.751789373784916e-17,0.08442486000000002,0.27797616,9.77991273,0.000981,-0.001046,0.00599,0.061655957184262075
1757944252.3533401,-0.9465949397188975,1.2829842878158677,2.154218092870572,-0.48953011417818937,0.7442577845357378,-2.6013062193861387,0.26407041700990097,5.404028886322679e-17,0.09939492000000001,0.29039562,9.76120506,0.002865,0.000388,0.00394,0.06184821727559582
1757944252.373697,-0.9501118311646852,1.28649451867166,2.1541999790587525,-0.48950249811619073,0.7442574922832536,-2.6013062193861387,0.26407041700990097,5.072101732353201e-17,0.07739109000000001,0.29099403,9.76404996,0.002771,-0.000272,0.003381,0.06278770903720175
1757944252.3938317,-0.9488053091071759,1.2826924096742025,2.1541793313606803,-0.4895070237405176,0.744308049707266,-2.6013062193861387,0.26407041700990097,4.7651663351506394e-17,0.07739109000000001,0.29099403,9.76404996,0.002771,-0.000272,0.003381,0.061897966184083955
1757944252.41996,-0.9508875024179246,1.2822786223496818,2.1541325782495075,-0.48951471525636675,0.7444140061168028,-2.6013062193861387,0.26407041700990097,4.204719142085129e-17,0.08232552,0.28845324,9.75326877,0.004463,0.00197,0.003424,0.06204800619089285
1757944252.4422915,-0.9530668426755605,1.2838269114956116,2.154106756132114,-0.4895029116835976,0.7444446719034673,-2.6013062193861387,0.26407041700990097,3.9479802055005204e-17,0.10238697000000001,0.28006569000000003,9.79189074,0.002697,-0.000565,0.005999,0.06249479355643698
1757944252.462635,-0.9533298011185118,1.2824787782196585,2.1540790965311416,-0.48949848812307434,0.7444878859188228,-2.6013062193861387,0.26407041700990097,3.7080406906000604e-17,0.09071307,0.30221667,9.7695828,0.004795,-0.000909,0.005788,0.06220060896926949
1757944252.4836211,-0.9544752140223772,1.2824892067943896,2.1540498599197786,-0.4894898257359308,0.7445262690293987,-2.6013062193861387,0.26407041700990097,3.482419738202116e-17,0.07903917,0.28919880000000003,9.76568823,0.003153,0.002447,0.004902,0.06227278217277707
1757944252.5044503,-0.9554553761163647,1.282264841842542,2.1540190765559704,-0.4894786394307128,0.7445623287400235,-2.6013062193861387,0.26407041700990097,3.270506490503657e-17,0.09205704,0.29653668000000005,9.77347737,0.004701,-0.003128,0.005882,0.062274857493621376
1757944252.5245485,-0.9565116802936295,1.2821725480128605,2.153986824400328,-0.4894635855955425,0.7445939679689205,-2.6013062193861387,0.26407041700990097,3.0713706988664424e-17,0.08337519,0.28261629000000005,9.768533130000002,0.00502,0.000927,0.003367,0.06230442630942456
1757944252.5474432,-0.9610249756389808,1.2873500532157442,2.1539537869056913,-0.489386601963369,0.74452877358092,-2.6013062193861387,0.26407041700990097,2.880335020596561e-17,0.09550035000000001,0.27961443,9.771378030000001,0.003198,-0.003242,0.005315,0.06348757168193424
1757944252.5680134,-0.958837085959788,1.2823533398402611,2.1539188383185977,-0.4893525110170127,0.744531637279323,-2.6013062193861387,0.26407041700990097,2.7048734157887446e-17,0.09145863,0.29114118,9.77706783,0.004143,-0.001249,0.003635,0.06217330220011326
1757944252.5885584,-0.9595687551434389,1.281814476774314,2.1538825799998884,-0.4893223323019536,0.7445441174963552,-2.6013062193861387,0.26407041700990097,2.5403095310725723e-17,0.08861373,0.28470582,9.76508982,0.001169,-0.000542,0.001777,0.06214458087878713
1757944252.6092403,-0.9610300685086368,1.2824008286800324,2.153845165707928,-0.4892849315718324,0.7445478166498929,-2.6013062193861387,0.26407041700990097,2.385244234487529e-17,0.08517042000000001,0.29278926000000005,9.77601816,0.004795,-0.001697,0.003809,0.062364746713960646
1757944252.629667,-0.9616787695918961,1.2817666291524548,2.153806504686953,-0.4892512222029984,0.7445589104815743,-2.6013062193861387,0.26407041700990097,2.2399171281574077e-17,0.09894366,0.2977335,9.7582032,0.00322,0.000162,0.003933,0.06226188753371269
1757944252.6507127,-0.9627285006453548,1.2817579497188394,2.1537667070313713,-0.48921556056758697,0.7445685484492779,-2.6013062193861387,0.26407041700990097,2.1033378997349215e-17,0.10822392,0.27437589,9.7784118,0.004142,-0.000314,0.004086,0.062318222865597524
1757944252.6711192,-0.9648817871902436,1.2834424117270937,2.153725977866972,-0.48915962130379353,0.7445474986342353,-2.6013062193861387,0.26407041700990097,1.9741329605198215e-17,0.08592579,0.28785483,9.77751909,0.001803,0.001432,0.004798,0.06273447735327378
1757944252.6920266,-0.9648377489275587,1.2817987566587445,2.1536840526674634,-0.4891159857717397,0.7445464616890479,-2.6013062193861387,0.26407041700990097,1.8536495671870002e-17,0.09640287000000002,0.27991854,9.77407578,0.002844,-0.002436,0.004504,0.06232500668466605
1757944252.7128596,-0.9710652013449843,1.2897091592692662,2.153641854156972,-0.4889788049610492,0.7443986779888665,-2.6013062193861387,0.26407041700990097,1.736889932237417e-17,0.09564750000000001,0.29069973,9.78036399,0.005685,0.00067,0.003176,0.06411086397219054
1757944252.7334037,-0.966935063730096,1.2818733506865716,2.153598029564434,-0.48891934405533455,0.7443726507929987,-2.6013062193861387,0.26407041700990097,1.631037351551196e-17,0.08636724,0.27827046,9.796678020000002,0.002296,-0.002379,0.003953,0.062042432189217324
1757944252.7538135,-0.966935063730096,1.2818733506865716,2.153598029564434,-0.48891934405533455,0.7443726507929987,-2.6013062193861387,0.26407041700990097,1.631037351551196e-17,0.08636724,0.27827046,9.796678020000002,0.002296,-0.002379,0.003953,0.062042432189217324
1757944252.7819946,-0.9872996718149409,1.3113150944057685,2.1535560473639777,-0.48842583342881973,0.7436543863770677,-2.6013062193861387,0.26407041700990097,1.519940574405245e-17,0.09834525,0.28096821,9.79069392,0.004821,-0.001635,0.005352,0.0685302235105339
1757944252.8021445,-0.9781503327031067,1.2943208120509564,2.153467816842019,-0.48782763926528905,0.7428449100858625,-2.6013062193861387,0.26407041700990097,1.330948491632962e-17,0.08232552,0.28201788,9.77063247,0.005031,-1.1e-05,0.003863,0.06305178268388986
1757944252.8226466,-0.9781503327031067,1.2943208120509564,2.153467816842019,-0.48782763926528905,0.7428449100858625,-2.6013062193861387,0.26407041700990097,1.330948491632962e-17,0.08232552,0.28201788,9.77063247,0.005031,-1.1e-05,0.003863,0.06305178268388986
1757944252.8498743,-0.9751148109965017,1.285213408398039,2.1533296841547322,-0.48721324169027425,0.7421167219248795,-2.6013062193861387,0.26407041700990097,1.0964445883929837e-17,0.09759969,0.28546119000000003,9.75895857,0.004431,-0.00092,0.005406,0.06093186815883176
1757944252.8699887,-0.9734320097871416,1.2811932689846233,2.1532813212122557,-0.48718388477203917,0.7421556126048943,-2.6013062193861387,0.26407041700990097,1.0310910256411659e-17,0.08622009,0.28860039000000004,9.7784118,0.001721,0.000926,0.005201,0.0605249565852448
1757944252.8903575,-0.971852515762792,1.277347179821513,2.15323198042942,-0.4872150231243463,0.7422922210255587,-2.6013062193861387,0.26407041700990097,9.703599581590024e-18,0.07844076,0.2894931,9.796678020000002,0.005349,-0.000542,0.002292,0.060196446298771356
1757944252.9110758,-0.9731100542108936,1.2778369764609905,2.1531819051118486,-0.487273410896215,0.742474427338379,-2.6013062193861387,0.26407041700990097,9.128070698883152e-18,0.08636724,0.2977335,9.76688505,0.001907,0.002317,0.002915,0.06087591984632548
1757944252.9320743,-0.9740346738193726,1.277833622689964,2.1531310281627674,-0.4873497802561913,0.7426835108348161,-2.6013062193861387,0.26407041700990097,8.584446123540595e-18,0.09684432000000001,0.28889469,9.77991273,0.005629,-0.000985,0.004717,0.061266014087337305
1757944252.9523075,-0.9783551005404311,1.2830151776186023,2.1530796290825904,-0.4873889036231932,0.7428314037085995,-2.6013062193861387,0.26407041700990097,8.060504702584947e-18,0.09564750000000001,0.27901602,9.780658290000002,0.002445,0.000604,0.004638,0.06270342792059304
1757944252.9735353,-0.9755470211173646,1.2773500813644787,2.153027221570376,-0.48747151313541637,0.7430430317556562,-2.6013062193861387,0.26407041700990097,7.579078140251308e-18,0.09984618,0.29054277,9.77797035,0.001627,-0.000909,0.004505,0.0614129322728533
1757944252.993734,-0.976698699391107,1.2777332318328065,2.152974161642269,-0.4875525348289482,0.7432518876219912,-2.6013062193861387,0.26407041700990097,7.124247238232885e-18,0.10223982000000001,0.28889469,9.77437008,0.004324,-0.001886,0.004602,0.06175100827880206
1757944253.0205505,-0.9783977522521429,1.277616780245292,2.1528662140876955,-0.48768957242911243,0.7436272541971077,-2.6013062193861387,0.26407041700990097,6.290429580804303e-18,0.08861373,0.28829628,9.77333022,0.005589,-0.003774,0.004259,0.061970768853065156
1757944253.040616,-0.9792649124169298,1.2776051394385461,2.1528113754790734,-0.4877506365239261,0.7438025193497665,-2.6013062193861387,0.26407041700990097,5.910583826356078e-18,0.09834525,0.29159244,9.771230880000001,0.001944,0.000924,0.004479,0.06208284040557055
