timestamp,accel_x,accel_y,accel_z,gyro_x,gyro_y,gyro_z,mag_x,mag_y,mag_z,gps_lat,gps_lon,gps_alt,gps_accuracy,gps_speed,gps_course,pressure,altitude,roll,pitch,yaw
841494.901664,-9.39521358,-0.13097331,-2.8614494699999997,0.006614,-0.003437,0.000676,-117.199524,102.537552,-191.736374,60.187684,24.830135,13.493762,11.06615,-1.0,-1.0,100.611198,-0.824402,-1.277752,0.015144,-1.667166
841494.92165,-9.49056678,-0.10193571,-2.80935837,0.002137,0.007653,0.008049,-117.341537,102.503784,-191.980377,60.187684,24.830135,13.493762,11.06615,-1.0,-1.0,100.611198,-0.824402,-1.277825,0.015192,-1.667224
841494.941636,-9.34761546,-0.23216346000000002,-2.88599409,0.004557,-0.010007,0.004182,-117.14624,102.459885,-191.950974,60.187684,24.830135,13.493762,11.06615,-1.0,-1.0,100.611198,-0.824402,-1.277751,0.015169,-1.66717
841494.961623,-9.4485015,-0.14295132,-2.8053166500000004,0.000354,0.001244,0.003932,-117.407669,102.466202,-191.754089,60.187684,24.830135,13.493762,11.06615,-1.0,-1.0,100.611198,-0.824402,-1.27776,0.01516,-1.667169
841494.981609,-9.44416548,-0.10896948000000001,-2.8303125300000005,0.002777,0.006053,0.00511,-117.244034,102.563614,-191.759827,60.187684,24.830135,13.493762,11.06615,-1.0,-1.0,100.611198,-0.824402,-1.277792,0.015176,-1.66723
841495.001596,-9.34881228,-0.18561501000000002,-2.8821093300000005,0.007383,-0.007591,0.00221,-117.311371,102.337097,-191.817184,60.187684,24.830135,13.493762,11.06615,-1.0,-1.0,100.611198,-0.824402,-1.27772,0.015162,-1.667171
841495.021582,-9.47110374,-0.14369688,-2.78555931,-0.00182,0.007602,0.006017,-117.255219,102.283081,-191.660645,60.187684,24.830135,13.493762,11.06615,-1.0,-1.0,100.611198,-0.824402,-1.277757,0.015184,-1.667163
841495.041568,-9.39281994,-0.15118191,-2.87027847,0.006742,-0.004543,0.004777,-117.244125,102.488007,-191.996567,60.187684,24.830135,13.493762,11.06615,-1.0,-1.0,100.611198,-0.824402,-1.277746,0.01518,-1.667173
841495.061555,-9.389523780000001,-0.1502892,-2.8463322600000005,0.003395,-0.001838,0.002302,-117.289001,102.283264,-191.359894,60.187684,24.830135,13.493762,11.06615,-1.0,-1.0,100.611198,-0.824402,-1.277722,0.015157,-1.667148
841495.081541,-9.46676772,-0.14250006,-2.77673031,0.001625,0.006513,0.006106,-117.130051,102.430176,-191.593216,60.187684,24.830135,13.493762,11.06615,-1.0,-1.0,100.611198,-0.824402,-1.277764,0.015177,-1.667167
841495.101527,-9.36826551,-0.17827713000000003,-2.8711809900000005,0.005379,-0.006786,0.000695,-117.258575,102.297714,-191.59613,60.187684,24.830135,13.493762,11.06615,-1.0,-1.0,100.611198,-0.824402,-1.27771,0.015168,-1.667138
841495.121514,-9.43668045,-0.12484206,-2.81564658,-0.002335,0.003341,0.003723,-117.200195,102.285614,-191.387253,60.187684,24.830135,13.493762,11.06615,-1.0,-1.0,100.611198,-0.824402,-1.277703,0.015176,-1.667144
841495.1415,-9.441467730000001,-0.14369688,-2.84049531,0.007617,-0.000129,0.003771,-117.274429,102.369598,-191.793716,60.187684,24.830135,13.493762,11.06615,-1.0,-1.0,100.611198,-0.824402,-1.277733,0.01519,-1.667171
841495.161486,-9.36991359,-0.18336852,-2.87013132,0.001215,-0.003728,0.002445,-117.253723,102.508484,-191.680145,60.187684,24.830135,13.493762,11.06615,-1.0,-1.0,100.611198,-0.824402,-1.277692,0.015189,-1.667122
841495.181473,-9.45553527,-0.12843252,-2.80950552,0.003163,0.003154,0.004312,-117.046799,102.376251,-192.056229,60.187684,24.830135,13.493762,11.06615,-1.0,-1.0,100.611198,-0.824402,-1.277723,0.015194,-1.66717
841495.201459,-9.4106349,-0.14010642,-2.8472249700000005,0.009448,-0.00224,0.001222,-117.157394,102.33371,-192.199936,60.187684,24.830135,13.493762,11.06615,-1.0,-1.0,100.611198,-0.824402,-1.277738,0.015206,-1.667164
841495.221446,-9.39416391,-0.16151184,-2.8565052300000002,-0.002258,0.001279,0.003901,-117.477661,102.272964,-191.826187,60.187684,24.830135,13.493762,11.06615,-1.0,-1.0,100.611198,-0.824402,-1.277697,0.015208,-1.667146
841495.241432,-9.46376586,-0.12917808,-2.80337427,0.00741,-0.000898,0.004516,-117.226074,102.306717,-192.071716,60.187684,24.830135,13.493762,11.06615,-1.0,-1.0,100.611198,-0.824402,-1.277724,0.015212,-1.667179
841495.261418,-9.37605465,-0.16780005,-2.86534404,0.003453,-0.00057,0.004875,-117.499512,102.161316,-191.779785,60.187684,24.830135,13.493762,11.06615,-1.0,-1.0,100.611198,-0.824402,-1.277703,0.015215,-1.667152
841495.281405,-9.41422536,-0.14070483,-2.84827464,-1.7e-05,0.002098,0.002868,-117.426727,102.060333,-191.662857,60.187684,24.830135,13.493762,11.06615,-1.0,-1.0,100.611198,-0.824402,-1.27768,0.015199,-1.667158
841495.301391,-9.42740019,-0.15328125,-2.83045968,0.010156,-0.00349,0.003617,-117.422379,102.130341,-191.82019,60.187684,24.830135,13.493762,11.06615,-1.0,-1.0,100.611198,-0.824402,-1.277712,0.015226,-1.667163
841495.341364,-9.43204032,-0.1332198,-2.8337558400000002,0.00649,-0.001838,0.004277,-117.282959,102.253876,-191.733231,60.187684,24.830135,13.493762,11.06615,-1.0,-1.0,100.611198,-0.824402,-1.27771,0.015256,-1.667171
841495.36135,-9.41542218,-0.15223158,-2.83255902,0.005644,0.000301,0.005201,-117.282959,102.253876,-191.733231,60.187684,24.830135,13.493762,11.06615,-1.0,-1.0,100.611198,-0.824402,-1.277729,0.015269,-1.667163
841495.381337,-9.3821859,-0.16690734000000002,-2.85920298,-0.002161,0.000296,0.004326,-117.379913,102.256485,-191.500366,60.187684,24.830135,13.493762,11.06615,-1.0,-1.0,100.611198,-0.824402,-1.277688,0.01524,-1.667146
841495.401323,-9.44056521,-0.12768696000000002,-2.82208194,0.008636,-0.002854,0.004404,-117.539856,102.103699,-191.79071,60.187684,24.830135,13.493762,11.06615,-1.0,-1.0,100.611198,-0.824402,-1.277723,0.015245,-1.66716
841495.421309,-9.39865689,-0.14564907000000002,-2.8615966200000003,-0.00097,0.003235,0.00399,-117.435318,102.174484,-191.757248,60.187684,24.830135,13.493762,11.06615,-1.0,-1.0,100.611198,-0.824402,-1.277702,0.015247,-1.667147
841495.441296,-9.41602059,-0.14610033,-2.8261236600000004,0.005608,-0.004572,0.003724,-117.46785,102.067383,-191.727585,60.187684,24.830135,13.493762,11.06615,-1.0,-1.0,100.611198,-0.824402,-1.277678,0.015243,-1.667152
841495.461282,-9.43622919,-0.14773860000000003,-2.81908989,0.005173,0.00216,0.005783,-117.474487,102.131851,-191.627777,60.187684,24.830135,13.493762,11.06615,-1.0,-1.0,100.611198,-0.824402,-1.277731,0.015254,-1.667149
841495.461282,-9.43622919,-0.14773860000000003,-2.81908989,0.005173,0.00216,0.005783,-117.474487,102.131851,-191.627777,60.187684,24.830135,13.493762,11.06615,-1.0,-1.0,100.611198,-0.824402,-1.277731,0.015254,-1.667149
841495.501255,-9.43458111,-0.14669874000000002,-2.8303125300000005,0.008825,-0.004263,0.003925,-117.415634,102.188934,-191.757202,60.187684,24.830135,13.493762,11.06615,-1.0,-1.0,100.611198,-0.824402,-1.277697,0.015253,-1.667145
841495.521241,-9.413322840000001,-0.15342840000000002,-2.8270163700000004,-0.000381,0.00491,0.0053,-117.520401,102.135742,-191.237091,60.187684,24.830135,13.493762,11.06615,-1.0,-1.0,100.611198,-0.824402,-1.277713,0.015254,-1.667136
841495.541228,-9.40404258,-0.15313410000000002,-2.85006987,0.004082,-0.002721,0.003139,-117.415802,102.199081,-191.509659,60.187684,24.830135,13.493762,11.06615,-1.0,-1.0,100.611198,-0.824402,-1.277684,0.015245,-1.667114
841495.561214,-9.440869320000001,-0.1332198,-2.8321077600000004,0.006262,-0.002503,0.005209,-117.532608,102.198318,-191.786453,60.187684,24.830135,13.493762,11.06615,-1.0,-1.0,100.611198,-0.824402,-1.277726,0.015265,-1.667116
841495.5812,-9.389523780000001,-0.1707921,-2.86759053,-0.001931,0.003156,0.003989,-117.451172,102.127136,-191.693192,60.187684,24.830135,13.493762,11.06615,-1.0,-1.0,100.611198,-0.824402,-1.277701,0.015254,-1.667117
841495.601187,-9.42814575,-0.14010642,-2.83241187,0.009376,-0.005557,0.002615,-117.457733,102.155212,-191.869247,60.187684,24.830135,13.493762,11.06615,-1.0,-1.0,100.611198,-0.824402,-1.277703,0.015267,-1.667119
841495.621173,-9.4311378,-0.13801689,-2.84903001,0.001516,0.004519,0.004037,-117.380829,102.113022,-191.752518,60.187684,24.830135,13.493762,11.06615,-1.0,-1.0,100.611198,-0.824402,-1.277739,0.015284,-1.667115
841495.641159,-9.377702730000001,-0.17289144,-2.84738193,0.005093,-0.002336,0.004833,-117.459305,102.163239,-191.500702,60.187684,24.830135,13.493762,11.06615,-1.0,-1.0,100.611198,-0.824402,-1.277698,0.015288,-1.667095
841495.661146,-9.49086108,-0.15237873000000002,-2.7878058,0.007561,0.002128,0.003558,-117.185532,102.068359,-191.488632,60.187684,24.830135,13.493762,11.06615,-1.0,-1.0,100.611198,-0.824402,-1.27773,0.015286,-1.667071
841495.681132,-9.437121900000001,-0.15074046,-2.8149010199999998,-0.00261,0.009158,0.003653,-117.312119,102.133011,-191.455933,60.187684,24.830135,13.493762,11.06615,-1.0,-1.0,100.611198,-0.824402,-1.277734,0.015286,-1.667064
841495.701119,-9.32635719,-0.50504823,-2.7403548300000002,-0.025052,-0.027584,0.009726,-117.248901,102.092789,-191.602264,60.187684,24.830135,13.493762,11.06615,-1.0,-1.0,100.611198,-0.824402,-1.277682,0.015275,-1.667071
841495.721105,-9.41212602,-0.12513636,-2.96309088,-0.034198,-0.007208,0.00421,-117.332718,102.128342,-191.723022,60.187684,24.830135,13.493762,11.06615,-1.0,-1.0,100.611198,-0.824402,-1.27776,0.015116,-1.667335
841495.741091,-9.84547296,0.11960352,-2.7328698,-0.031615,-0.00708,-0.009575,-117.653549,102.666504,-192.092148,60.187684,24.830135,13.493762,11.06615,-1.0,-1.0,100.611198,-0.824402,-1.277622,0.015057,-1.667859
841495.741091,-9.84547296,0.11960352,-2.7328698,-0.031615,-0.00708,-0.009575,-117.653549,102.666504,-192.092148,60.187684,24.830135,13.493762,11.06615,-1.0,-1.0,100.611198,-0.824402,-1.277622,0.015057,-1.667859
841495.781064,-9.06380235,-0.20567646,-2.9570969700000003,-0.017696,-0.021139,0.006655,-117.498016,102.239029,-191.412567,60.187684,24.830135,13.493762,11.06615,-1.0,-1.0,100.61145,-0.845539,-1.27697,0.01535,-1.66926
841495.80105,-9.21199221,-0.07679268,-3.05304858,0.021018,0.017401,0.008842,-118.088181,102.135162,-191.427505,60.187684,24.830135,13.493762,11.06615,-1.0,-1.0,100.61145,-0.845539,-1.276849,0.015289,-1.669717
841495.821037,-9.64339677,-0.12109464000000002,-2.64754242,0.016397,0.011464,0.006504,-118.562057,102.082672,-191.789413,60.187684,24.830135,13.493762,11.06615,-1.0,-1.0,100.61145,-0.845539,-1.276826,0.015317,-1.669612
841495.841023,-9.38114604,-0.18186759,-2.77777017,0.008575,0.021638,0.008538,-118.564026,102.027908,-191.569656,60.187684,24.830135,13.493762,11.06615,-1.0,-1.0,100.61145,-0.845539,-1.276861,0.015274,-1.669396
841495.86101,-9.34790976,0.10523187,-3.05514792,0.010066,-0.009656,-0.000292,-118.618774,101.87114,-191.64267,60.187684,24.830135,13.493762,11.06615,-1.0,-1.0,100.61145,-0.845539,-1.276674,0.015209,-1.669264
841495.86101,-9.34790976,0.10523187,-3.05514792,0.010066,-0.009656,-0.000292,-118.618774,101.87114,-191.64267,60.187684,24.830135,13.493762,11.06615,-1.0,-1.0,100.61145,-0.845539,-1.276674,0.015209,-1.669264
841495.900982,-9.42006231,-0.37632141,-2.70173286,-0.007337,-0.001449,9.7e-05,-118.553009,101.215424,-191.629715,60.187684,24.830135,13.493762,11.06615,-1.0,-1.0,100.61145,-0.845539,-1.276567,0.015155,-1.668727
841495.920969,-9.36797121,0.06780672,-2.89333197,-0.011091,-0.003943,-0.011267,-118.625244,101.139343,-191.782913,60.187684,24.830135,13.493762,11.06615,-1.0,-1.0,100.61145,-0.845539,-1.276446,0.015105,-1.668739
841495.940955,-9.35778843,0.042065280000000004,-2.9761087500000003,0.024091,-0.001143,0.01301,-118.545288,101.378494,-191.624451,60.187684,24.830135,13.493762,11.06615,-1.0,-1.0,100.61145,-0.845539,-1.276547,0.015226,-1.669121
841495.980928,-9.40898682,-0.16854560999999998,-2.90321064,0.022044,-0.017671,0.000702,-118.74472,101.022293,-191.894241,60.187684,24.830135,13.493762,11.06615,-1.0,-1.0,100.61145,-0.845539,-1.276853,0.015185,-1.668341
841496.000914,-9.4746942,-0.10537902,-2.70443061,0.030379,-0.013759,0.019165,-118.780411,100.99852,-191.438004,60.187684,24.830135,13.493762,11.06615,-1.0,-1.0,100.61145,-0.845539,-1.277542,0.015311,-1.667979
841496.020901,-9.504781470000001,-0.19878984000000002,-2.6355644099999997,0.013123,0.001464,0.009444,-118.869385,100.927231,-191.771408,60.187684,24.830135,13.493762,11.06615,-1.0,-1.0,100.61145,-0.845539,-1.277788,0.01528,-1.667425
841496.040887,-9.23354478,-0.40985199,-2.87701794,-0.016202,-0.033856,-0.006514,-118.695465,101.142975,-191.653641,60.187684,24.830135,13.493762,11.06615,-1.0,-1.0,100.61145,-0.845539,-1.277732,0.015176,-1.667067
841496.060873,-9.174724020000001,-0.32542713,-3.2090275800000003,-0.032166,-0.1518,-0.0022,-118.738724,101.297028,-191.955139,60.187684,24.830135,13.493762,11.06615,-1.0,-1.0,100.61145,-0.845539,-1.278257,0.015176,-1.66734
841496.060873,-9.174724020000001,-0.32542713,-3.2090275800000003,-0.032166,-0.1518,-0.0022,-118.738724,101.297028,-191.955139,60.187684,24.830135,13.493762,11.06615,-1.0,-1.0,100.61145,-0.845539,-1.278257,0.015176,-1.66734
841496.100846,-9.17786322,-0.14340258,-3.1672664100000003,-0.086523,-0.374268,-0.029659,-118.880981,101.533905,-191.531601,60.187684,24.830135,13.493762,11.06615,-1.0,-1.0,100.61145,-0.845539,-1.285507,0.015395,-1.669288
841496.120833,-9.26498583,-0.37646856,-2.76160329,-0.10983,-0.449081,-0.032211,-119.63327,101.203033,-191.78273,60.187684,24.830135,13.493762,11.06615,-1.0,-1.0,100.61145,-0.845539,-1.292443,0.015617,-1.671131
841496.140819,-9.37275849,-0.38230551,-2.8487259,-0.104037,-0.487243,0.017698,-120.305573,100.716858,-191.560745,60.187684,24.830135,13.493762,11.06615,-1.0,-1.0,100.61145,-0.845539,-1.301149,0.015579,-1.673385
841496.140819,-9.37275849,-0.38230551,-2.8487259,-0.104037,-0.487243,0.017698,-120.305573,100.716858,-191.560745,60.187684,24.830135,13.493762,11.06615,-1.0,-1.0,100.61145,-0.845539,-1.301149,0.015579,-1.673385
841496.180792,-9.34072884,-0.45206442,-2.72598318,-0.079855,-0.579344,-0.001291,-120.474075,99.561096,-191.988083,60.187684,24.830135,13.493762,11.06615,-1.0,-1.0,100.61145,-0.845539,-1.321286,0.014639,-1.677488
841496.200778,-9.24238359,-0.33066567,-2.64425607,-0.067353,-0.626854,0.005619,-119.99678,98.756104,-192.071899,60.187684,24.830135,13.493762,11.06615,-1.0,-1.0,100.61145,-0.845539,-1.332428,0.014332,-1.679148
841496.220765,-9.26797788,-0.39936510000000003,-2.48677614,-0.071404,-0.711624,0.009648,-118.492157,98.070343,-191.448868,60.187684,24.830135,13.493762,11.06615,-1.0,-1.0,100.61145,-0.845539,-1.34484,0.01398,-1.68057
841496.220765,-9.26797788,-0.39936510000000003,-2.48677614,-0.071404,-0.711624,0.009648,-118.492157,98.070343,-191.448868,60.187684,24.830135,13.493762,11.06615,-1.0,-1.0,100.61145,-0.845539,-1.34484,0.01398,-1.68057
841496.260737,-9.225912600000001,-0.15507648,-2.55278763,-0.036846,-0.926488,0.015783,-117.172409,101.241669,-188.846619,60.187684,24.830135,13.493762,11.06615,-1.0,-1.0,100.61145,-0.845539,-1.374346,0.013201,-1.68327
841496.280724,-9.33908076,-0.01482291,-2.30445729,0.004557,-1.005089,0.030219,-119.50676,102.714783,-187.487579,60.187684,24.830135,13.493762,11.06615,-1.0,-1.0,100.61145,-0.845539,-1.392238,0.012821,-1.684115
841496.30071,-9.21933009,-0.023347800000000002,-2.15387379,0.027056,-1.104646,0.039305,-122.665894,101.950989,-186.894806,60.187684,24.830135,13.493762,11.06615,-1.0,-1.0,100.61145,-0.845539,-1.411878,0.012359,-1.684196
841496.320697,-9.20390877,0.05927202,-2.00043558,0.039933,-1.201027,0.046638,-124.781326,100.613754,-187.025665,60.187684,24.830135,13.493762,11.06615,-1.0,-1.0,100.61145,-0.845539,-1.43345,0.01175,-1.682868
841496.340683,-9.33248844,0.0606258,-1.5928398900000003,0.057236,-1.2777,0.055216,-124.643753,98.886307,-186.72197,60.187684,24.830135,13.493762,11.06615,-1.0,-1.0,100.61145,-0.845539,-1.457091,0.01104,-1.680776
841496.360669,-9.378301140000001,0.09909081000000002,-1.09152927,0.094916,-1.337589,0.066114,-122.433167,98.80484,-185.666275,60.187684,24.830135,13.493762,11.06615,-1.0,-1.0,100.61145,-0.845539,-1.482371,0.010188,-1.679675
841496.380656,-9.381587490000001,-0.0011968200000000001,-0.98959356,0.118922,-1.407019,0.072215,-120.140823,99.616333,-184.053482,60.187684,24.830135,13.493762,11.06615,-1.0,-1.0,100.61145,-0.845539,-1.50883,0.009094,-1.677961
841496.400642,-9.22756068,0.01482291,-0.75697884,0.142475,-1.483139,0.088609,-119.429779,101.441971,-182.088852,60.187684,24.830135,13.493762,11.06615,-1.0,-1.0,100.61145,-0.845539,-1.536564,0.007859,-1.675706
841496.420628,-9.43831872,1.15095825,-0.44816985000000004,0.248759,-1.26104,0.682074,-120.315323,102.93898,-180.396942,60.187684,24.830135,13.493762,11.06615,-1.0,-1.0,100.61145,-0.845539,-1.565856,0.006289,-1.672979
841496.440615,-13.86326637,-0.60563997,1.5762217500000002,0.273807,-0.999327,0.298679,-120.50705,103.81517,-180.375443,60.187684,24.830135,13.493762,11.06615,-1.0,-1.0,100.61145,-0.845539,-1.593237,-0.001542,-1.669026
841496.460601,-11.331589860000001,-0.5780934900000001,0.5727078,0.235315,-0.630695,0.075189,-120.276367,103.170853,-180.304016,60.187684,24.830135,13.493762,11.06615,-1.0,-1.0,100.61145,-0.845539,-1.612193,-0.010493,-1.663468
841496.480588,-9.65552193,0.05538726,1.51994178,0.272846,-0.437373,0.065523,-120.661301,102.135864,-179.904846,60.187684,24.830135,13.493762,11.06615,-1.0,-1.0,100.61145,-0.845539,-1.627264,-0.012182,-1.658558
841496.500574,-9.6047748,0.40086603,2.3513098500000003,0.291064,-0.361639,0.022498,-120.798538,102.122818,-179.454803,60.187684,24.830135,13.493762,11.06615,-1.0,-1.0,100.61145,-0.845539,-1.639106,-0.013895,-1.653402
841496.520561,-9.67408245,0.47526507,1.6850440800000002,0.267777,-0.388605,-0.001055,-120.592743,102.574661,-178.957825,60.187684,24.830135,13.493762,11.06615,-1.0,-1.0,100.61145,-0.845539,-1.648694,-0.015195,-1.648179
841496.540547,-9.774968490000001,0.3930867,1.53910071,0.229744,-0.56303,-0.025979,-120.935623,102.82338,-178.575714,60.187684,24.830135,13.493762,11.06615,-1.0,-1.0,100.61145,-0.845539,-1.658137,-0.015782,-1.642925
841496.560533,-9.64983213,0.030391380000000003,1.0687798800000001,0.125495,-0.679551,-0.015471,-121.200745,102.389526,-178.312241,60.187684,24.830135,13.493762,11.06615,-1.0,-1.0,100.61145,-0.845539,-1.669283,-0.015788,-1.638385
841496.58052,-9.51930027,0.06811083000000001,0.659232,0.045857,-0.864025,0.015306,-121.49884,101.393188,-177.951752,60.187684,24.830135,13.493762,11.06615,-1.0,-1.0,100.61145,-0.845539,-1.682875,-0.015719,-1.635495
841496.620493,-9.4485015,-0.22708187999999999,1.19526021,-0.097348,-1.167177,0.066075,-123.601395,100.207596,-176.203049,60.187684,24.830135,13.493762,11.06615,-1.0,-1.0,100.61145,-0.845539,-1.719542,-0.016508,-1.634871
841496.620493,-9.4485015,-0.22708187999999999,1.19526021,-0.097348,-1.167177,0.066075,-123.601395,100.207596,-176.203049,60.187684,24.830135,13.493762,11.06615,-1.0,-1.0,100.61145,-0.845539,-1.719542,-0.016508,-1.634871
841496.660465,-9.57827799,0.0925083,1.43072964,-0.080754,-1.297791,0.059418,-128.006104,99.900864,-175.095413,60.187684,24.830135,13.493762,11.06615,-1.0,-1.0,100.61145,-0.845539,-1.766402,-0.018169,-1.638891
841496.660465,-9.57827799,0.0925083,1.43072964,-0.080754,-1.297791,0.059418,-128.006104,99.900864,-175.095413,60.187684,24.830135,13.493762,11.06615,-1.0,-1.0,100.61145,-0.845539,-1.766402,-0.018169,-1.638891
841496.700438,-9.425300850000001,0.20537235,2.0041830000000003,0.00483,-1.373639,0.020192,-130.990479,101.866455,-172.155838,60.187684,24.830135,13.493762,11.06615,-1.0,-1.0,100.61145,-0.845539,-1.818677,-0.019502,-1.64213
841496.720425,-9.85804938,0.46508229,2.5382688300000003,0.088932,-1.242949,0.132619,-130.655396,103.28598,-170.248367,60.187684,24.830135,13.493762,11.06615,-1.0,-1.0,100.61145,-0.845539,-1.846052,-0.01992,-1.642508
841496.740411,-10.203086700000002,-0.74978811,3.88187586,0.063616,-1.185072,-0.084164,-129.952835,103.955231,-168.670624,60.187684,24.830135,13.493762,11.06615,-1.0,-1.0,100.61145,-0.845539,-1.872321,-0.021644,-1.641803
841496.760397,-7.603583850000001,0.03891627,4.24996668,0.033611,-1.179966,0.083517,-127.606537,104.934357,-166.896637,60.187684,24.830135,13.493762,11.06615,-1.0,-1.0,100.61145,-0.845539,-1.897054,-0.022361,-1.640769
841496.780384,-9.59460183,-0.06795387,4.10536728,0.040979,-1.165159,-0.049678,-124.534698,104.820648,-166.002914,60.187684,24.830135,13.493762,11.06615,-1.0,-1.0,100.61145,-0.845539,-1.921524,-0.022957,-1.640205
841496.80037,-8.59946562,0.11630736000000001,3.5124410700000004,0.043483,-1.042898,0.092423,-124.534698,104.820648,-166.002914,60.187684,24.830135,13.493762,11.06615,-1.0,-1.0,100.61145,-0.845539,-1.944668,-0.023103,-1.639822
841496.820357,-9.04538898,-0.29024847,4.03919883,0.053818,-1.137923,-0.035559,-123.776428,103.173447,-164.528534,60.187684,24.830135,13.493762,11.06615,-1.0,-1.0,100.61145,-0.845539,-1.967552,-0.024086,-1.639344
841496.820357,-9.04538898,-0.29024847,4.03919883,0.053818,-1.137923,-0.035559,-123.776428,103.173447,-164.528534,60.187684,24.830135,13.493762,11.06615,-1.0,-1.0,100.61145,-0.845539,-1.967552,-0.024086,-1.639344
841496.860329,-8.43675696,-0.062116920000000006,3.9628574100000002,0.031918,-1.148109,0.000822,-127.298523,100.631256,-164.895981,60.187684,24.830135,13.493762,11.06615,-1.0,-1.0,100.611595,-0.858753,-2.011519,-0.025213,-1.638121
841496.880316,-8.88701634,0.13381821000000002,4.109850450000001,0.024819,-1.131564,0.05675,-129.985901,102.580826,-163.150772,60.187684,24.830135,13.493762,11.06615,-1.0,-1.0,100.611595,-0.858753,-2.034237,-0.025621,-1.637762
841496.900302,-9.0929871,-0.19923129,4.7484225900000006,-0.007165,-1.143647,-0.047126,-129.087265,105.489594,-160.545395,60.187684,24.830135,13.493762,11.06615,-1.0,-1.0,100.611595,-0.858753,-2.057001,-0.026529,-1.637695
841496.920289,-7.09344423,0.51732054,4.46730723,0.00838,-1.106013,0.076435,-125.0923,105.465775,-158.931091,60.187684,24.830135,13.493762,11.06615,-1.0,-1.0,100.611595,-0.858753,-2.08035,-0.026138,-1.637646
841496.940275,-8.64093249,1.19840922,4.4825814,0.181784,-1.406739,-0.06138,-122.505081,102.497025,-157.407822,60.187684,24.830135,13.493762,11.06615,-1.0,-1.0,100.611595,-0.858753,-2.104589,-0.026693,-1.638222
841496.960262,-8.78223573,1.7528508,4.3204613400000005,0.335929,-1.197868,-0.047661,-124.865707,100.566101,-157.02327,60.187684,24.830135,13.493762,11.06615,-1.0,-1.0,100.611595,-0.858753,-2.129005,-0.027398,-1.635958
841496.980248,-7.3489653,1.2006557100000002,4.65127416,0.436189,-1.183013,-0.069972,-127.385696,100.394333,-156.424393,60.187684,24.830135,13.493762,11.06615,-1.0,-1.0,100.611595,-0.858753,-2.154457,-0.029632,-1.630559
841497.000234,-7.89293961,0.84858462,5.801781150000001,0.390588,-1.224366,-0.064734,-128.626099,100.569214,-155.693863,60.187684,24.830135,13.493762,11.06615,-1.0,-1.0,100.611595,-0.858753,-2.177849,-0.033175,-1.62299
841497.020222,-7.13311587,0.69470496,5.995332450000001,0.287481,-1.266522,0.068406,-128.765076,101.207138,-154.787292,60.187684,24.830135,13.493762,11.06615,-1.0,-1.0,100.611595,-0.858753,-2.20234,-0.036367,-1.615493
841497.040208,-7.23700377,1.0837499400000001,6.320455470000001,0.234358,-1.342099,0.024716,-128.323883,101.316284,-153.279984,60.187684,24.830135,13.493762,11.06615,-1.0,-1.0,100.611595,-0.858753,-2.226695,-0.040806,-1.61087
841497.060195,-7.08521364,1.29795129,5.89160151,0.19514,-1.291453,0.123905,-126.074646,100.799423,-151.967316,60.187684,24.830135,13.493762,11.06615,-1.0,-1.0,100.611595,-0.858753,-2.252941,-0.044418,-1.607461
841497.080181,-7.244184690000001,1.14646527,6.086339820000001,0.206747,-1.323956,0.06412,-123.656418,100.812881,-149.991119,60.187684,24.830135,13.493762,11.06615,-1.0,-1.0,100.611595,-0.858753,-2.278884,-0.048311,-1.605461
841497.100168,-6.96861198,1.6304121900000001,6.183341100000001,0.244858,-1.218429,0.124307,-120.596802,102.367126,-148.259872,60.187684,24.830135,13.493762,11.06615,-1.0,-1.0,100.611595,-0.858753,-2.305092,-0.052114,-1.60346
841497.120154,-6.87010977,1.19541717,6.76712439,0.331393,-1.184263,0.098328,-121.196198,104.937378,-146.643753,60.187684,24.830135,13.493762,11.06615,-1.0,-1.0,100.611595,-0.858753,-2.330087,-0.056546,-1.601546
841497.14014,-5.689819620000001,-0.85697217,8.10848493,0.245485,-1.390855,0.089559,-124.012558,106.307922,-146.710861,60.187684,24.830135,13.493762,11.06615,-1.0,-1.0,100.611595,-0.858753,-2.354056,-0.062323,-1.598817
841497.14014,-5.689819620000001,-0.85697217,8.10848493,0.245485,-1.390855,0.089559,-124.012558,106.307922,-146.710861,60.187684,24.830135,13.493762,11.06615,-1.0,-1.0,100.611595,-0.858753,-2.354056,-0.062323,-1.598817
841497.180113,-5.057535690000001,-0.84544542,7.484882850000001,0.186786,-1.34285,0.147442,-124.383347,106.143173,-145.803207,60.187684,24.830135,13.493762,11.06615,-1.0,-1.0,100.611595,-0.858753,-2.405583,-0.072922,-1.594109
841497.2001,-6.1691166,-0.12453795000000001,8.03888298,0.127773,-1.39911,0.1765,-123.557144,106.61319,-144.727264,60.187684,24.830135,13.493762,11.06615,-1.0,-1.0,100.611595,-0.858753,-2.432514,-0.077412,-1.593389
841497.220086,-6.00311178,0.21704625,7.27127991,0.13244,-1.448657,0.111535,-122.531372,107.227386,-143.099472,60.187684,24.830135,13.493762,11.06615,-1.0,-1.0,100.611595,-0.858753,-2.460042,-0.081642,-1.594071
841497.240072,-5.23027017,0.46044216,8.339010120000001,0.097247,-1.649631,0.067049,-120.164688,107.536011,-140.732513,60.187684,24.830135,13.493762,11.06615,-1.0,-1.0,100.611595,-0.858753,-2.488786,-0.085129,-1.594459
841497.260059,-5.95730889,1.62367272,7.707324600000001,0.180507,-1.54623,0.1991,-118.123566,107.099075,-139.195801,60.187684,24.830135,13.493762,11.06615,-1.0,-1.0,100.611595,-0.858753,-2.520499,-0.087231,-1.594304
841497.280045,-4.94840925,1.44704367,7.37007642,0.218483,-1.432127,0.258165,-117.286774,107.973129,-137.92041,60.187684,24.830135,13.493762,11.06615,-1.0,-1.0,100.611595,-0.858753,-2.550877,-0.091528,-1.595274
841497.300032,-4.71728565,0.98974071,8.51594328,0.213076,-1.430547,0.282348,-116.530518,108.472,-136.975601,60.187684,24.830135,13.493762,11.06615,-1.0,-1.0,100.611595,-0.858753,-2.579434,-0.097767,-1.596817
841497.320018,-4.796324820000001,1.05366267,8.66757645,0.228333,-1.393225,0.25181,-116.430374,109.227676,-136.040955,60.187684,24.830135,13.493762,11.06615,-1.0,-1.0,100.611595,-0.858753,-2.608675,-0.104039,-1.599599
841497.340005,-4.60771776,0.9351088200000001,9.09179028,0.169697,-1.41512,0.197733,-115.402542,109.543671,-135.005386,60.187684,24.830135,13.493762,11.06615,-1.0,-1.0,100.611595,-0.858753,-2.636879,-0.110706,-1.601854
841497.359991,-4.55412573,1.33462107,8.74586025,0.152814,-1.429014,0.157211,-114.229736,109.66861,-134.01268,60.187684,24.830135,13.493762,11.06615,-1.0,-1.0,100.611595,-0.858753,-2.6655,-0.115613,-1.603821
841497.379977,-3.7729063800000002,1.75016286,8.62041978,0.156543,-1.401415,0.19299,-113.117584,109.875961,-132.947906,60.187684,24.830135,13.493762,11.06615,-1.0,-1.0,100.611595,-0.858753,-2.694322,-0.11983,-1.605491
841497.399964,-4.004618580000001,1.3882131,9.01230966,0.142253,-1.314418,0.199228,-112.341644,110.315964,-131.547043,60.187684,24.830135,13.493762,11.06615,-1.0,-1.0,100.611595,-0.858753,-2.722829,-0.124018,-1.607456
841497.41995,-3.3464362500000004,0.95067729,10.150240230000001,0.02551,-1.306583,0.197676,-111.260941,110.653076,-130.674957,60.187684,24.830135,13.493762,11.06615,-1.0,-1.0,100.611595,-0.858753,-2.750018,-0.128142,-1.609945
841497.439937,-3.22399764,0.99662733,9.859246200000001,-0.04678,-1.289279,0.177659,-110.125778,110.667053,-129.555038,60.187684,24.830135,13.493762,11.06615,-1.0,-1.0,100.611595,-0.858753,-2.7766,-0.130618,-1.613243
841497.459923,-3.0689211600000004,1.4400099000000002,9.269773110000001,-0.030456,-1.223712,0.190574,-109.225357,110.539246,-128.523773,60.187684,24.830135,13.493762,11.06615,-1.0,-1.0,100.611595,-0.858753,-2.803083,-0.131089,-1.616904
841497.499896,-2.5101337500000005,1.5293691900000002,9.72273024,-0.020645,-1.106069,0.184833,-107.873627,111.031784,-126.860336,60.187684,24.830135,13.493762,11.06615,-1.0,-1.0,100.611595,-0.858753,-2.852308,-0.132146,-1.624201
841497.499896,-2.5101337500000005,1.5293691900000002,9.72273024,-0.020645,-1.106069,0.184833,-107.873627,111.031784,-126.860336,60.187684,24.830135,13.493762,11.06615,-1.0,-1.0,100.611595,-0.858753,-2.852308,-0.132146,-1.624201
841497.539869,-2.0249900100000002,1.3042395000000002,9.901311480000002,-0.096601,-1.021364,0.214007,-107.697021,111.481384,-126.36142,60.187684,24.830135,13.493762,11.06615,-1.0,-1.0,100.611595,-0.858753,-2.897244,-0.132736,-1.631674
841497.539869,-2.0249900100000002,1.3042395000000002,9.901311480000002,-0.096601,-1.021364,0.214007,-107.697021,111.481384,-126.36142,60.187684,24.830135,13.493762,11.06615,-1.0,-1.0,100.611595,-0.858753,-2.897244,-0.132736,-1.631674
841497.579842,-1.6317561600000001,1.4046742800000003,10.00504242,-0.090272,-0.791016,0.301382,-108.273895,111.98703,-125.544769,60.187684,24.830135,13.493762,11.06615,-1.0,-1.0,100.611595,-0.858753,-2.937987,-0.131133,-1.641254
841497.579842,-1.6317561600000001,1.4046742800000003,10.00504242,-0.090272,-0.791016,0.301382,-108.273895,111.98703,-125.544769,60.187684,24.830135,13.493762,11.06615,-1.0,-1.0,100.611595,-0.858753,-2.937987,-0.131133,-1.641254
841497.619815,-0.70039476,1.3796784,9.65492352,-0.111642,-0.686561,0.432921,-107.038651,109.725357,-125.708878,60.187684,24.830135,13.493762,11.06615,-1.0,-1.0,100.611595,-0.858753,-2.970526,-0.129435,-1.654463
841497.639801,-0.84319893,1.76093424,9.5065767,-0.099343,-0.650102,0.470076,-103.61235,109.148071,-124.488632,60.187684,24.830135,13.493762,11.06615,-1.0,-1.0,100.611595,-0.858753,-2.985125,-0.128364,-1.663045
841497.659788,-4.47943239,0.01961019,13.46195889,-0.471625,-0.349817,0.225014,-103.040085,112.002884,-122.717804,60.187684,24.830135,13.493762,11.06615,-1.0,-1.0,100.611595,-0.858753,-2.999456,-0.127566,-1.672376
841497.679774,-0.51059088,3.36784167,9.83320065,-0.453966,-0.558075,0.263125,-104.488785,111.796921,-122.416183,60.187684,24.830135,13.493762,11.06615,-1.0,-1.0,100.611595,-0.858753,-3.007658,-0.122122,-1.678914
841497.69976,-1.84416228,1.37115351,11.128159890000001,-0.315078,-0.429822,0.260451,-105.919708,109.236465,-122.671738,60.187684,24.830135,13.493762,11.06615,-1.0,-1.0,100.611595,-0.858753,-3.02143,-0.108156,-1.6853
841497.719747,-1.1539503,1.08239616,8.91920295,-0.218186,-0.392638,0.043047,-103.369644,107.672684,-122.172394,60.187684,24.830135,13.493762,11.06615,-1.0,-1.0,100.611595,-0.858753,-3.025163,-0.106373,-1.691062
841497.739733,-0.8072747100000001,-0.0015009300000000001,11.49205203,-0.397122,-0.562529,-0.123493,-99.68428,108.368881,-119.908325,60.187684,24.830135,13.493762,11.06615,-1.0,-1.0,100.611595,-0.858753,-3.034081,-0.098633,-1.693932
841497.75972,-0.71281422,1.8826371000000002,9.122632920000001,-0.238344,-0.487107,-0.11386,-98.682831,109.014832,-119.421082,60.187684,24.830135,13.493762,11.06615,-1.0,-1.0,100.611595,-0.858753,-3.042854,-0.092737,-1.693148
841497.779705,-2.03097411,0.91758816,9.17202627,-0.216866,-0.33507,-0.129966,-99.472397,110.108292,-118.845993,60.187684,24.830135,13.493762,11.06615,-1.0,-1.0,100.611595,-0.858753,-3.052312,-0.086951,-1.690941
841497.799693,-0.8928963900000001,1.54658574,8.53615188,-0.147923,-0.24542,-0.086695,-101.739182,110.156067,-119.60907,60.187684,24.830135,13.493762,11.06615,-1.0,-1.0,100.611595,-0.858753,-3.059445,-0.08245,-1.688682
841497.819679,-1.0493168400000001,1.06937829,11.45493099,-0.254441,-0.452871,-0.113646,-104.091858,109.058762,-119.37001,60.187684,24.830135,13.493762,11.06615,-1.0,-1.0,100.611595,-0.858753,-3.066112,-0.078188,-1.686853
841497.839665,-0.7280883899999999,0.40280841,9.82676529,-0.292895,-0.527864,-0.131842,-103.998199,107.008972,-119.988007,60.187684,24.830135,13.493762,11.06615,-1.0,-1.0,100.611595,-0.858753,-3.074026,-0.073158,-1.684953
841497.859652,-0.49591512000000004,0.52315749,8.71337934,-0.300996,-0.526254,-0.134682,-101.434067,105.70224,-119.499207,60.187684,24.830135,13.493762,11.06615,-1.0,-1.0,100.611595,-0.858753,-3.082825,-0.067834,-1.682789
841497.879638,-0.5321434500000001,0.49007817000000004,9.951460200000001,-0.340157,-0.627998,-0.130101,-98.553345,105.173325,-118.316666,60.187684,24.830135,13.493762,11.06615,-1.0,-1.0,100.611595,-0.858753,-3.093366,-0.061669,-1.680353
841497.899625,-0.35730963,0.44068482,9.866731230000001,-0.362,-0.694275,-0.087809,-96.763748,106.141953,-116.907944,60.187684,24.830135,13.493762,11.06615,-1.0,-1.0,100.611595,-0.858753,-3.105807,-0.054754,-1.677843
841497.919611,-0.24249339000000003,0.45984375,9.41212602,-0.350442,-0.678433,-0.030606,-96.366577,107.197052,-115.537369,60.187684,24.830135,13.493762,11.06615,-1.0,-1.0,100.611771,-0.874607,-3.119438,-0.047506,-1.676006
841497.939598,-0.29249496,0.54546543,9.67288563,-0.32889,-0.630907,-0.005349,-96.993637,107.627136,-114.868347,60.187684,24.830135,13.493762,11.06615,-1.0,-1.0,100.611771,-0.874607,-3.133351,-0.040318,-1.67507
841497.959584,-0.76131486,0.36479466,9.55971747,-0.271147,-0.576666,-0.039929,-97.735626,107.725296,-114.067245,60.187684,24.830135,13.493762,11.06615,-1.0,-1.0,100.611771,-0.874607,3.13685,-0.033642,-1.674838
841497.979571,-2.4816847500000003,1.31830704,12.30141627,-0.031947,-0.116221,-0.084519,-99.330505,106.901779,-114.896118,60.187684,24.830135,13.493762,11.06615,-1.0,-1.0,100.611771,-0.874607,3.126409,-0.028546,-1.673849
841497.999556,0.16645608,-0.44951382000000006,11.94770691,-0.109315,-0.40538,-0.336258,-100.881805,105.491486,-115.979507,60.187684,24.830135,13.493762,11.06615,-1.0,-1.0,100.611771,-0.874607,3.128188,-0.029211,-1.672162
841498.019543,2.19652767,0.26030835,7.94532501,-0.039882,-0.122385,-0.032128,-100.709503,104.264175,-116.265366,60.187684,24.830135,13.493762,11.06615,-1.0,-1.0,100.611771,-0.874607,3.127797,-0.02901,-1.666785
841498.039529,0.32991030000000005,-0.41268708000000004,7.74908577,-0.03932,-0.095393,-0.022454,-99.280853,103.725464,-116.230576,60.187684,24.830135,13.493762,11.06615,-1.0,-1.0,100.611771,-0.874607,3.127925,-0.028985,-1.665037
841498.059515,-0.6191091000000001,0.06840513000000001,7.606732860000001,0.008358,0.029327,-0.037971,-98.046768,103.420746,-116.222733,60.187684,24.830135,13.493762,11.06615,-1.0,-1.0,100.611771,-0.874607,3.128245,-0.029163,-1.66439
841498.079502,0.008534700000000001,0.17094906,9.1795113,0.015656,0.009566,-0.075,-96.607025,103.575333,-115.902954,60.187684,24.830135,13.493762,11.06615,-1.0,-1.0,100.611771,-0.874607,3.128414,-0.029285,-1.663714
841498.099488,-0.31629402,0.15387966,10.085278409999999,0.001252,0.009009,-0.110999,-96.328613,103.43457,-116.087158,60.187684,24.830135,13.493762,11.06615,-1.0,-1.0,100.611771,-0.874607,3.12829,-0.029332,-1.662379
841498.119475,0.41777847,0.38319822000000003,9.671983110000001,0.024471,-0.031978,-0.095161,-96.190216,103.503403,-116.16626,60.187684,24.830135,13.493762,11.06615,-1.0,-1.0,100.611771,-0.874607,3.128222,-0.02941,-1.660233
841498.139461,0.16091343000000002,0.01946304,10.03184334,0.002817,-0.019476,-0.09254,-96.170044,103.664825,-115.838989,60.187684,24.830135,13.493762,11.06615,-1.0,-1.0,100.611771,-0.874607,3.128056,-0.029692,-1.658161
841498.179434,0.17258733,0.24519114,9.755368110000001,-0.000764,-0.018984,-0.096213,-95.921738,104.736679,-116.22731,60.187684,24.830135,13.493762,11.06615,-1.0,-1.0,100.611771,-0.874607,3.12788,-0.029977,-1.654481
841498.179434,0.17258733,0.24519114,9.755368110000001,-0.000764,-0.018984,-0.096213,-95.921738,104.736679,-116.22731,60.187684,24.830135,13.493762,11.06615,-1.0,-1.0,100.611771,-0.874607,3.12788,-0.029977,-1.654481
841498.219407,0.07679268,0.35999757000000004,9.831101310000001,0.000664,-0.006549,-0.133559,-95.837234,105.104065,-116.117096,60.187684,24.830135,13.493762,11.06615,-1.0,-1.0,100.611771,-0.874607,3.12789,-0.030063,-1.650258
841498.219407,0.07679268,0.35999757000000004,9.831101310000001,0.000664,-0.006549,-0.133559,-95.837234,105.104065,-116.117096,60.187684,24.830135,13.493762,11.06615,-1.0,-1.0,100.611771,-0.874607,3.12789,-0.030063,-1.650258
841498.25938,0.030685680000000003,0.15163317,9.79562835,0.001712,-0.008166,-0.113986,-95.792099,105.585968,-115.503036,60.187684,24.830135,13.493762,11.06615,-1.0,-1.0,100.611771,-0.874607,3.127733,-0.030195,-1.644993
841498.25938,0.030685680000000003,0.15163317,9.79562835,0.001712,-0.008166,-0.113986,-95.792099,105.585968,-115.503036,60.187684,24.830135,13.493762,11.06615,-1.0,-1.0,100.611771,-0.874607,3.127733,-0.030195,-1.644993
841498.299353,-0.00688662,0.42616602000000003,9.80581113,0.003255,-0.000403,-0.109929,-95.443909,106.145584,-115.006332,60.187684,24.830135,13.493762,11.06615,-1.0,-1.0,100.611771,-0.874607,3.127564,-0.0303,-1.640292
841498.319339,0.0868185,0.40131729000000005,9.846826740000001,-0.000802,-0.009533,-0.108321,-95.390991,106.525528,-115.019379,60.187684,24.830135,13.493762,11.06615,-1.0,-1.0,100.611771,-0.874607,3.127583,-0.030336,-1.637975
841498.339326,0.05403348,0.40325967,9.743988510000001,0.000316,-0.009362,-0.104058,-95.856491,106.669861,-114.847488,60.187684,24.830135,13.493762,11.06615,-1.0,-1.0,100.611771,-0.874607,3.12755,-0.030339,-1.635738
841498.339326,0.05403348,0.40325967,9.743988510000001,0.000316,-0.009362,-0.104058,-95.856491,106.669861,-114.847488,60.187684,24.830135,13.493762,11.06615,-1.0,-1.0,100.611771,-0.874607,3.12755,-0.030339,-1.635738
841498.379299,0.09011466,0.44307846,9.77467419,-0.003319,-0.00953,-0.141006,-97.194,106.421127,-115.333435,60.187684,24.830135,13.493762,11.06615,-1.0,-1.0,100.611771,-0.874607,3.127426,-0.030384,-1.631252
841498.399285,0.12544047,0.40086603,9.65148021,0.000252,-0.001641,-0.152134,-97.986649,106.514725,-115.436478,60.187684,24.830135,13.493762,11.06615,-1.0,-1.0,100.611771,-0.874607,3.127357,-0.030374,-1.628477
841498.419272,0.1272357,0.21061089,9.83470158,0.003968,-0.011954,-0.120265,-99.612076,106.448807,-115.819183,60.187684,24.830135,13.493762,11.06615,-1.0,-1.0,100.611771,-0.874607,3.127273,-0.030383,-1.625403
841498.419272,0.1272357,0.21061089,9.83470158,0.003968,-0.011954,-0.120265,-99.612076,106.448807,-115.819183,60.187684,24.830135,13.493762,11.06615,-1.0,-1.0,100.611771,-0.874607,3.127273,-0.030383,-1.625403
841498.419272,0.1272357,0.21061089,9.83470158,0.003968,-0.011954,-0.120265,-99.612076,106.448807,-115.819183,60.187684,24.830135,13.493762,11.06615,-1.0,-1.0,100.611771,-0.874607,3.127273,-0.030383,-1.625403
841498.479231,-0.15538058999999999,0.14534496,9.775871010000001,0.002853,-0.009913,-0.029525,-102.999893,105.6698,-116.260544,60.187684,24.830135,13.493762,11.06615,-1.0,-1.0,100.611771,-0.874607,3.127068,-0.030508,-1.619977
841498.499217,-0.008829,0.14340258,9.73066653,0.002608,-0.00385,-0.025234,-103.398392,105.141769,-116.419312,60.187684,24.830135,13.493762,11.06615,-1.0,-1.0,100.611771,-0.874607,3.12703,-0.03055,-1.619302
841498.519204,0.09924777,0.08532738,9.699529590000001,0.006912,-0.003779,-0.002234,-103.331284,104.628525,-116.433487,60.187684,24.830135,13.493762,11.06615,-1.0,-1.0,100.611771,-0.874607,3.127012,-0.03062,-1.618695
841498.53919,0.07993188000000001,-0.03023442,9.780511140000002,0.004074,-0.000193,0.017534,-103.181229,104.329849,-116.415512,60.187684,24.830135,13.493762,11.06615,-1.0,-1.0,100.611771,-0.874607,3.127025,-0.030677,-1.61844
841498.559177,0.12259557,-0.11900511,9.74518533,-0.001353,-0.009076,0.01556,-103.069489,104.106949,-116.579132,60.187684,24.830135,13.493762,11.06615,-1.0,-1.0,100.611771,-0.874607,3.126988,-0.030715,-1.618624
841498.579163,-0.00074556,-0.01392039,9.76733631,0.005334,0.002203,0.002461,-102.898499,104.015152,-116.861969,60.187684,24.830135,13.493762,11.06615,-1.0,-1.0,100.611771,-0.874607,3.126777,-0.030657,-1.618871
841498.59915,0.16181595000000001,0.07663572,9.813139200000002,0.002185,-0.000856,0.000148,-103.044083,104.336105,-116.702927,60.187684,24.830135,13.493762,11.06615,-1.0,-1.0,100.611771,-0.874607,3.126639,-0.030638,-1.618926
841498.619136,0.06017454,0.17917965,9.73635633,0.004131,0.000523,0.004813,-103.197296,104.675827,-116.409088,60.187684,24.830135,13.493762,11.06615,-1.0,-1.0,100.611771,-0.874607,3.126585,-0.030669,-1.618893
841498.639123,0.08502327,0.21943989,9.72976401,0.004147,0.002274,0.006644,-102.85405,105.382904,-116.20108,60.187684,24.830135,13.493762,11.06615,-1.0,-1.0,100.611771,-0.874607,3.126566,-0.030701,-1.618907
841498.659109,0.060321690000000004,0.18576216000000004,9.76135221,0.001669,0.002146,0.00724,-102.736969,105.695312,-116.308136,60.187684,24.830135,13.493762,11.06615,-1.0,-1.0,100.611771,-0.874607,3.126573,-0.030736,-1.618955
841498.679096,0.05583852,0.24504399000000002,9.74997261,0.001743,0.003271,0.002213,-102.360764,106.185532,-116.200485,60.187684,24.830135,13.493762,11.06615,-1.0,-1.0,100.611771,-0.874607,3.126598,-0.030732,-1.619021
841498.699082,0.07364367000000001,0.32527017,9.727674480000001,-0.000537,0.006078,-8.2e-05,-101.424606,106.567062,-116.008865,60.187684,24.830135,13.493762,11.06615,-1.0,-1.0,100.611771,-0.874607,3.126634,-0.030724,-1.618999
841498.719069,0.15208443,0.32841918000000003,9.68291145,0.004717,0.001473,0.00789,-100.415497,106.869614,-115.535812,60.187684,24.830135,13.493762,11.06615,-1.0,-1.0,100.611771,-0.874607,3.126702,-0.03069,-1.618922
841498.739055,0.02110131,0.30206952000000004,9.7784118,0.003922,0.010849,-1.4e-05,-99.627197,106.925644,-115.444809,60.187684,24.830135,13.493762,11.06615,-1.0,-1.0,100.611771,-0.874607,3.126715,-0.030691,-1.618947
841498.759042,0.051796800000000004,0.31838355,9.77766624,0.005242,0.008426,0.001993,-98.198166,106.861176,-115.491379,60.187684,24.830135,13.493762,11.06615,-1.0,-1.0,100.611771,-0.874607,3.126765,-0.030704,-1.618912
841498.779028,0.11420802000000001,0.27138384000000004,9.82107549,0.003723,0.00289,0.004776,-97.457809,106.72229,-115.802689,60.187684,24.830135,13.493762,11.06615,-1.0,-1.0,100.611771,-0.874607,3.126763,-0.03072,-1.618858
841498.799014,0.06392196,0.27617112,9.807007950000001,0.001988,0.00065,0.003988,-96.75531,106.441971,-115.561325,60.187684,24.830135,13.493762,11.06615,-1.0,-1.0,100.611771,-0.874607,3.126754,-0.03071,-1.618835
841498.819001,0.07439904,0.28546119000000003,9.767189160000001,0.004403,0.001771,0.007659,-95.788925,106.35437,-115.511887,60.187684,24.830135,13.493762,11.06615,-1.0,-1.0,100.611771,-0.874607,3.126756,-0.030725,-1.618835
841498.858974,0.08038314,0.28546119000000003,9.77601816,0.004313,0.000183,0.004136,-95.138779,105.100388,-116.162552,60.187684,24.830135,13.493762,11.06615,-1.0,-1.0,100.611771,-0.874607,3.126849,-0.030757,-1.618866
841498.87896,0.07035732,0.30117681,9.78844743,0.007043,0.001637,0.004952,-95.1698,104.512985,-116.16066,60.187684,24.830135,13.493762,11.06615,-1.0,-1.0,100.611771,-0.874607,3.126883,-0.0308,-1.618876
841498.898947,0.07858791000000001,0.29578131,9.7869465,0.003257,0.001602,0.003351,-95.354401,103.887405,-116.661285,60.187684,24.830135,13.493762,11.06615,-1.0,-1.0,100.611771,-0.874607,3.126938,-0.030843,-1.618891
841498.898947,0.07858791000000001,0.29578131,9.7869465,0.003257,0.001602,0.003351,-95.354401,103.887405,-116.661285,60.187684,24.830135,13.493762,11.06615,-1.0,-1.0,100.611771,-0.874607,3.126938,-0.030843,-1.618891
841498.93892,0.0811287,0.33006726000000003,9.760155390000001,0.00596,0.002911,0.006937,-96.8228,102.927063,-116.621826,60.187684,24.830135,13.493762,11.06615,-1.0,-1.0,100.611771,-0.874607,3.127049,-0.030924,-1.618876
841498.958906,0.07079877000000001,0.34488036,9.7664436,0.002512,0.003577,0.004138,-96.8228,102.927063,-116.621826,60.187684,24.830135,13.493762,11.06615,-1.0,-1.0,100.611771,-0.874607,3.127091,-0.030981,-1.618893
841498.978893,0.05403348,0.37541889,9.69458535,0.005586,0.001372,0.002412,-97.612152,102.954117,-116.400391,60.187684,24.830135,13.493762,11.06615,-1.0,-1.0,100.611771,-0.874607,3.127128,-0.031031,-1.618923
841498.998879,0.08232552,0.36838512000000007,9.728115930000001,0.003135,0.000707,0.00132,-98.335526,102.931747,-116.443344,60.187684,24.830135,13.493762,11.06615,-1.0,-1.0,100.612213,-0.911598,3.127151,-0.031065,-1.618882
841499.018866,0.07679268,0.38993769,9.705366540000002,0.00277,0.005447,0.003156,-99.181519,102.954315,-116.354767,60.187684,24.830135,13.493762,11.06615,-1.0,-1.0,100.612213,-0.911598,3.127176,-0.031084,-1.618849
841499.018866,0.07679268,0.38993769,9.705366540000002,0.00277,0.005447,0.003156,-99.181519,102.954315,-116.354767,60.187684,24.830135,13.493762,11.06615,-1.0,-1.0,100.612213,-0.911598,3.127176,-0.031084,-1.618849
841499.058839,0.07095573000000001,0.38560167000000006,9.76733631,0.003773,0.004666,0.002068,-100.141907,103.449936,-116.336197,60.187684,24.830135,13.493762,11.066261,-1.0,-1.0,100.612213,-0.911598,3.127221,-0.031123,-1.618803
841499.078825,0.08756406,0.40206285,9.74308599,0.005158,0.00215,0.003452,-100.492325,103.777863,-116.13501,60.187684,24.830135,13.493762,11.066261,-1.0,-1.0,100.612213,-0.911598,3.12725,-0.031139,-1.618769
841499.098812,0.06122421,0.41449212,9.75102228,0.003995,0.002661,0.002043,-100.548126,104.110062,-116.185349,60.187684,24.830135,13.493762,11.066261,-1.0,-1.0,100.612213,-0.911598,3.127257,-0.031155,-1.618748
841499.118798,0.08576883000000002,0.41059755000000003,9.791292330000001,0.001678,0.00117,0.003953,-100.618591,104.28447,-116.455124,60.187684,24.830135,13.493762,11.066261,-1.0,-1.0,100.612213,-0.911598,3.127253,-0.031169,-1.618732
841499.138785,0.07858791000000001,0.40505490000000005,9.76628664,0.003978,0.002674,0.004332,-100.61467,104.698837,-115.813919,60.187684,24.830135,13.493762,11.066261,-1.0,-1.0,100.612213,-0.911598,3.12725,-0.031167,-1.618724
841499.158771,0.07844076,0.42391953000000004,9.743537250000001,0.000703,0.004531,0.003724,-100.729874,104.581223,-115.680054,60.187684,24.830135,13.493762,11.066261,-1.0,-1.0,100.612213,-0.911598,3.127259,-0.031163,-1.618724
841499.178757,0.07768539,0.38993769,9.7784118,0.003037,0.001605,0.003466,-100.733688,104.551559,-115.90979,60.187684,24.830135,13.493762,11.066261,-1.0,-1.0,100.612213,-0.911598,3.127265,-0.031167,-1.61872
841499.198744,0.08517042000000001,0.38964339,9.78201207,0.000791,0.002313,0.00385,-100.777725,104.594589,-115.792511,60.187684,24.830135,13.493762,11.066261,-1.0,-1.0,100.612213,-0.911598,3.127266,-0.03116,-1.618714
841499.21873,0.0691605,0.38125584000000007,9.74593089,0.001861,0.001735,0.00451,-100.752243,104.491257,-115.987244,60.187684,24.830135,13.493762,11.066261,-1.0,-1.0,100.612213,-0.911598,3.127281,-0.031163,-1.618718
841499.238717,0.07933347,0.36374499000000005,9.76764042,0.002998,0.003584,0.004105,-100.655029,104.327515,-115.69278,60.187684,24.830135,13.493762,11.066261,-1.0,-1.0,100.612213,-0.911598,3.12729,-0.031183,-1.618708
841499.258703,0.09684432000000001,0.32751666,9.775419750000001,0.001865,0.0021,0.003572,-100.518448,104.085205,-115.945847,60.187684,24.830135,13.493762,11.066261,-1.0,-1.0,100.612213,-0.911598,3.127305,-0.031182,-1.618705
841499.27869,0.08382645000000001,0.31703958,9.7667379,0.004059,0.002413,0.005564,-100.354919,103.955597,-115.784378,60.187684,24.830135,13.493762,11.066261,-1.0,-1.0,100.612213,-0.911598,3.127311,-0.031186,-1.618701
841499.298676,0.0691605,0.30850488,9.740241090000001,0.002648,0.001766,0.005424,-100.095062,103.701935,-115.769699,60.187684,24.830135,13.493762,11.066261,-1.0,-1.0,100.612213,-0.911598,3.127316,-0.031176,-1.618719
841499.318663,0.08397360000000001,0.29443734,9.76090095,0.003241,0.002741,0.004665,-100.040344,103.373093,-115.960953,60.187684,24.830135,13.493762,11.066261,-1.0,-1.0,100.612213,-0.911598,3.127297,-0.031168,-1.618726
841499.338649,0.06301944000000001,0.29623257000000003,9.74533248,0.003959,0.000598,0.005356,-99.530884,103.578262,-116.152481,60.187684,24.830135,13.493762,11.066261,-1.0,-1.0,100.612213,-0.911598,3.127295,-0.031177,-1.618717
841499.338649,0.06301944000000001,0.29623257000000003,9.74533248,0.003959,0.000598,0.005356,-99.530884,103.578262,-116.152481,60.187684,24.830135,13.493762,11.066261,-1.0,-1.0,100.612213,-0.911598,3.127295,-0.031177,-1.618717
841499.338649,0.06301944000000001,0.29623257000000003,9.74533248,0.003959,0.000598,0.005356,-99.530884,103.578262,-116.152481,60.187684,24.830135,13.493762,11.066261,-1.0,-1.0,100.612213,-0.911598,3.127295,-0.031177,-1.618717
841499.398609,0.08592579,0.27078543,9.75700638,0.00365,0.001842,0.003013,-99.072372,103.059814,-116.639282,60.187684,24.830135,13.493762,11.066261,-1.0,-1.0,100.612213,-0.911598,3.127291,-0.031157,-1.618723
841499.418595,0.08741691000000001,0.27153099,9.77797035,0.001981,0.003256,0.00379,-98.573868,103.101562,-116.226517,60.187684,24.830135,13.493762,11.066261,-1.0,-1.0,100.612213,-0.911598,3.127294,-0.031151,-1.618714
841499.458568,0.07724394000000001,0.27108954,9.75431844,0.001683,0.004552,0.004291,-98.421539,103.2556,-116.666519,60.187684,24.830135,13.493762,11.066261,-1.0,-1.0,100.612213,-0.911598,3.12729,-0.03112,-1.61871
841499.458568,0.07724394000000001,0.27108954,9.75431844,0.001683,0.004552,0.004291,-98.421539,103.2556,-116.666519,60.187684,24.830135,13.493762,11.066261,-1.0,-1.0,100.612213,-0.911598,3.12729,-0.03112,-1.61871
841499.498541,0.07933347,0.26794053,9.76300029,0.002063,0.002494,0.004303,-98.643539,103.033035,-116.516342,60.187684,24.830135,13.493762,11.066261,-1.0,-1.0,100.612213,-0.911598,3.127307,-0.031102,-1.618699
841499.498541,0.07933347,0.26794053,9.76300029,0.002063,0.002494,0.004303,-98.643539,103.033035,-116.516342,60.187684,24.830135,13.493762,11.066261,-1.0,-1.0,100.612213,-0.911598,3.127307,-0.031102,-1.618699
841499.538514,0.08308089000000002,0.27437589,9.7610481,0.004204,0.002328,0.003194,-98.735336,103.192902,-116.444931,60.187684,24.830135,13.493762,11.066261,-1.0,-1.0,100.612213,-0.911598,3.12734,-0.031111,-1.618718
841499.558501,0.06856209,0.27977139,9.77976558,0.002035,0.004078,0.005038,-98.770508,103.127029,-116.415344,60.187684,24.830135,13.493762,11.066261,-1.0,-1.0,100.612213,-0.911598,3.127344,-0.031098,-1.618721
841499.578487,0.07110288000000001,0.2803698,9.74547963,0.005252,0.003446,0.005151,-98.706787,103.11554,-116.730042,60.187684,24.830135,13.493762,11.066261,-1.0,-1.0,100.612213,-0.911598,3.12735,-0.031099,-1.61873
841499.598474,0.07948062,0.30955455000000004,9.740093940000001,0.003343,0.004117,0.002731,-98.734497,103.21431,-116.345963,60.187684,24.830135,13.493762,11.066261,-1.0,-1.0,100.612213,-0.911598,3.127356,-0.031106,-1.618748
841499.61846,0.07529175,0.31134978,9.78889869,0.001226,0.001814,0.004832,-98.783142,103.29509,-116.368134,60.187684,24.830135,13.493762,11.066261,-1.0,-1.0,100.612213,-0.911598,3.12737,-0.031104,-1.618741
841499.638447,0.06526593,0.31449879,9.756113670000001,0.00496,0.001769,0.004614,-98.892731,103.305145,-116.107986,60.187684,24.830135,13.493762,11.066261,-1.0,-1.0,100.612213,-0.911598,3.127364,-0.031099,-1.618749
841499.658433,0.07903917,0.33186249,9.74324295,0.001715,0.00535,0.00498,-98.987366,103.4151,-116.510208,60.187684,24.830135,13.493762,11.066261,-1.0,-1.0,100.612213,-0.911598,3.127379,-0.031105,-1.618747
841499.658433,0.07903917,0.33186249,9.74324295,0.001715,0.00535,0.00498,-98.987366,103.4151,-116.510208,60.187684,24.830135,13.493762,11.066261,-1.0,-1.0,100.612213,-0.911598,3.127379,-0.031105,-1.618747
841499.698406,0.06541308000000001,0.33275520000000003,9.75011976,0.000495,0.001559,0.002844,-98.841873,103.456299,-116.478607,60.187684,24.830135,13.493762,11.066261,-1.0,-1.0,100.612213,-0.911598,3.127399,-0.031083,-1.618721
841499.698406,0.06541308000000001,0.33275520000000003,9.75011976,0.000495,0.001559,0.002844,-98.841873,103.456299,-116.478607,60.187684,24.830135,13.493762,11.066261,-1.0,-1.0,100.612213,-0.911598,3.127399,-0.031083,-1.618721
841499.718393,0.08352234000000001,0.33410898,9.7263207,0.002732,0.003916,0.004228,-99.126556,103.375504,-116.401062,60.187684,24.830135,13.493762,11.066261,-1.0,-1.0,100.612213,-0.911598,3.127411,-0.031074,-1.618724
841499.758366,0.07244685000000001,0.32198382,9.763294590000001,0.002117,0.004593,0.004685,-98.980362,103.623947,-116.318665,60.187684,24.830135,13.493762,11.066261,-1.0,-1.0,100.612213,-0.911598,3.127408,-0.03108,-1.618708
841499.778352,0.08741691000000001,0.32991030000000005,9.739642680000001,0.004688,0.003707,0.004833,-98.937485,103.604462,-115.957062,60.187684,24.830135,13.493762,11.066261,-1.0,-1.0,100.612213,-0.911598,3.127414,-0.031083,-1.618705
841499.798339,0.07199559,0.32033574000000004,9.74248758,0.004032,0.003892,0.003851,-98.956543,103.56311,-116.391815,60.187684,24.830135,13.493762,11.066261,-1.0,-1.0,100.612213,-0.911598,3.127424,-0.031091,-1.618704
841499.818325,0.07529175,0.29189655000000003,9.76419711,0.002162,0.005184,0.005538,-99.021103,103.642151,-116.479858,60.187684,24.830135,13.493762,11.066261,-1.0,-1.0,100.612213,-0.911598,3.127437,-0.031078,-1.618703
841499.838312,0.08023599000000001,0.28919880000000003,9.74308599,0.004416,0.002946,0.005021,-98.988403,103.483795,-116.197006,60.187684,24.830135,13.493762,11.066261,-1.0,-1.0,100.612213,-0.911598,3.127451,-0.031082,-1.618697
841499.858298,0.06856209,0.29563416000000003,9.751169430000001,0.00317,0.003225,0.004087,-98.711044,103.383484,-116.087082,60.187684,24.830135,13.493762,11.066261,-1.0,-1.0,100.612213,-0.911598,3.127456,-0.031084,-1.618706
841499.878285,0.08188407,0.28575549,9.75027672,0.004924,0.004369,0.004457,-98.679321,103.525787,-116.309677,60.187684,24.830135,13.493762,11.066261,-1.0,-1.0,100.612213,-0.911598,3.127449,-0.031086,-1.618697
841499.898271,0.07844076,0.29264211,9.74698056,0.004434,0.003163,0.00296,-98.685013,103.242508,-116.41748,60.187684,24.830135,13.493762,11.066261,-1.0,-1.0,100.612213,-0.911598,3.12745,-0.031091,-1.618691
841499.918258,0.07918631999999999,0.28829628,9.771682140000001,0.002711,0.004421,0.004673,-98.573151,103.386124,-116.33783,60.187684,24.830135,13.493762,11.066261,-1.0,-1.0,100.612213,-0.911598,3.127449,-0.031089,-1.618688
841499.938244,0.07619427,0.28934595,9.751473540000001,0.004757,0.004312,0.004352,-98.661636,103.375977,-115.883362,60.187684,24.830135,13.493762,11.066261,-1.0,-1.0,100.612213,-0.911598,3.127442,-0.031095,-1.61869
841499.958231,0.08382645000000001,0.30266793,9.74219328,0.003972,0.004327,0.003199,-98.532837,103.519608,-115.90802,60.187684,24.830135,13.493762,11.066261,-1.0,-1.0,100.612213,-0.911598,3.12747,-0.031099,-1.618693
841499.978217,0.08457201,0.30761217,9.759409830000001,0.005016,0.003665,0.00378,-98.772995,103.444595,-116.120758,60.187684,24.830135,13.493762,11.066261,-1.0,-1.0,100.612213,-0.911598,3.127477,-0.03111,-1.618698
841499.998204,0.07784234999999999,0.30386475,9.76030254,0.002535,0.00389,0.004629,-98.939713,103.539734,-116.284653,60.187684,24.830135,13.493762,11.066261,-1.0,-1.0,100.612213,-0.911598,3.127484,-0.031119,-1.618696
841500.01819,0.06691401,0.32242527000000004,9.75836016,0.0039,0.003572,0.005612,-98.929413,103.479523,-116.106125,60.187684,24.830135,13.493762,11.066261,-1.0,-1.0,100.612213,-0.911598,3.127498,-0.03111,-1.618698
841500.058163,0.07978473,0.30192237,9.75700638,0.001373,0.004003,0.003955,-98.995941,103.444565,-115.993668,60.187684,24.830135,13.493762,11.066261,-1.0,-1.0,100.612213,-0.911598,3.127495,-0.031125,-1.6187
841500.058163,0.07978473,0.30192237,9.75700638,0.001373,0.004003,0.003955,-98.995941,103.444565,-115.993668,60.187684,24.830135,13.493762,11.066261,-1.0,-1.0,100.612213,-0.911598,3.127495,-0.031125,-1.6187
841500.098136,0.07634142000000001,0.32722236,9.755966520000001,0.004854,0.002279,0.003415,-99.164642,103.322998,-116.133286,60.187684,24.830135,13.493762,11.066261,-1.0,-1.0,100.612816,-0.95916,3.127517,-0.031125,-1.618685
841500.098136,0.07634142000000001,0.32722236,9.755966520000001,0.004854,0.002279,0.003415,-99.164642,103.322998,-116.133286,60.187684,24.830135,13.493762,11.066261,-1.0,-1.0,100.612816,-0.95916,3.127517,-0.031125,-1.618685
841500.138109,0.07304526,0.32527017,9.73979964,0.004312,0.001357,0.003494,-99.156982,103.17244,-116.441986,60.187684,24.830135,13.493762,11.066261,-1.0,-1.0,100.612816,-0.95916,3.127532,-0.031135,-1.618655
841500.138109,0.07304526,0.32527017,9.73979964,0.004312,0.001357,0.003494,-99.156982,103.17244,-116.441986,60.187684,24.830135,13.493762,11.066261,-1.0,-1.0,100.612816,-0.95916,3.127532,-0.031135,-1.618655
841500.178082,0.07693983,0.29129814000000004,9.767787570000001,0.003535,0.002754,0.004644,-99.056549,103.265182,-115.888763,60.187684,24.830135,13.493762,11.066261,-1.0,-1.0,100.612816,-0.95916,3.127568,-0.031136,-1.61864
841500.198069,0.08007903000000001,0.32122845000000005,9.7348554,0.003349,0.001653,0.002156,-98.980743,103.328903,-116.399979,60.187684,24.830135,13.493762,11.066261,-1.0,-1.0,100.612816,-0.95916,3.127602,-0.031143,-1.618644
841500.218055,0.07424208,0.30311919,9.76060665,0.001887,0.003215,0.004474,-99.109955,103.252045,-116.260834,60.187684,24.830135,13.493762,11.066261,-1.0,-1.0,100.612816,-0.95916,3.127619,-0.031138,-1.618641
841500.238042,0.07784234999999999,0.29548701,9.767934720000001,0.003099,0.000149,0.005436,-98.827362,103.177307,-116.167755,60.187684,24.830135,13.493762,11.066261,-1.0,-1.0,100.612816,-0.95916,3.127623,-0.03113,-1.618641
841500.258028,0.07844076,0.31434183000000004,9.74069235,0.002192,0.005015,0.00451,-98.836212,103.241501,-116.518326,60.187684,24.830135,13.493762,11.066261,-1.0,-1.0,100.612816,-0.95916,3.127639,-0.031124,-1.618636
841500.278015,0.07380063,0.29608542000000004,9.7667379,0.00155,0.002437,0.005078,-98.836349,103.178864,-116.419708,60.187684,24.830135,13.493762,11.066261,-1.0,-1.0,100.612816,-0.95916,3.127674,-0.031123,-1.61863
841500.298001,0.08172711,0.29084688000000003,9.76599234,0.003569,0.003289,0.005062,-99.189255,103.206238,-116.504684,60.187684,24.830135,13.493762,11.066261,-1.0,-1.0,100.612816,-0.95916,3.127671,-0.031119,-1.618636
841500.317988,0.08248248000000001,0.31090833,9.7377003,0.002453,0.006121,0.004424,-98.957291,103.157471,-116.517929,60.187684,24.830135,13.493762,11.066261,-1.0,-1.0,100.612816,-0.95916,3.127676,-0.031122,-1.618643
841500.337974,0.07244685000000001,0.30866184,9.767934720000001,0.006414,0.003861,0.004277,-99.250565,103.113358,-116.567276,60.187684,24.830135,13.493762,11.066261,-1.0,-1.0,100.612816,-0.95916,3.127701,-0.031129,-1.618654
841500.357961,0.07079877000000001,0.29878317000000004,9.78110955,0.001933,0.004663,0.004234,-99.146759,103.222473,-116.385345,60.187684,24.830135,13.493762,11.066261,-1.0,-1.0,100.612816,-0.95916,3.127714,-0.031135,-1.618648
841500.377947,0.09729558,0.30835773000000005,9.7607538,0.00254,0.00164,0.003612,-99.009415,103.155899,-116.386276,60.187684,24.830135,13.493762,11.066261,-1.0,-1.0,100.612816,-0.95916,3.127736,-0.031125,-1.618639
841500.397934,0.07978473,0.30402171,9.77960862,0.003952,0.002226,0.00355,-99.009415,103.155899,-116.386276,60.187684,24.830135,13.493762,11.066261,-1.0,-1.0,100.612816,-0.95916,3.12773,-0.031134,-1.618632
841500.41792,0.08217837000000001,0.31404753,9.787093650000001,0.003627,0.005293,0.003704,-98.969315,103.16333,-116.5112,60.187684,24.830135,13.493762,11.066261,-1.0,-1.0,100.612816,-0.95916,3.127748,-0.031133,-1.618623
841500.437907,0.06795387,0.30625839,9.771829290000001,0.00517,0.001702,0.002723,-99.101395,103.1586,-116.091721,60.187684,24.830135,13.493762,11.066261,-1.0,-1.0,100.612816,-0.95916,3.127773,-0.031142,-1.618616
841500.457893,0.07978473,0.3008727,9.76180347,0.004056,0.003253,0.002435,-98.97905,103.055786,-116.161575,60.187684,24.830135,13.493762,11.066261,-1.0,-1.0,100.612816,-0.95916,3.127795,-0.031146,-1.61861
841500.47788,0.08053028999999999,0.30926025,9.77063247,0.003139,0.00337,0.003409,-98.939316,103.263229,-116.657715,60.187684,24.830135,13.493762,11.066261,-1.0,-1.0,100.612816,-0.95916,3.127826,-0.031155,-1.61861
841500.497866,0.07813665,0.31449879,9.77048532,0.004541,0.002206,0.004682,-98.781189,103.219254,-116.368973,60.187684,24.830135,13.493762,11.066261,-1.0,-1.0,100.612816,-0.95916,3.127899,-0.031154,-1.618616
841500.517853,0.09236115,0.30895614000000005,9.771230880000001,0.002614,0.004462,0.003047,-98.910629,103.241623,-116.312256,60.187684,24.830135,13.493762,11.066261,-1.0,-1.0,100.612816,-0.95916,3.127968,-0.031165,-1.618622
841500.537839,0.07260381,0.30775932,9.79802199,0.005694,0.002042,0.003722,-99.130783,103.154984,-116.632858,60.187684,24.830135,13.493762,11.066261,-1.0,-1.0,100.612816,-0.95916,3.128066,-0.031158,-1.618608
841500.557826,0.07918631999999999,0.30551283,9.76613949,0.003261,0.003346,0.003988,-99.047119,103.222015,-116.476303,60.187684,24.830135,13.493762,11.066261,-1.0,-1.0,100.612816,-0.95916,3.128132,-0.031169,-1.618598
841500.577812,0.07289811,0.31030011,9.76404996,0.003294,0.001913,0.00165,-99.053131,103.182999,-116.311981,60.187684,24.830135,13.493762,11.066261,-1.0,-1.0,100.612816,-0.95916,3.12822,-0.03117,-1.618596
841500.597799,0.07499745000000001,0.30357045,9.79038981,0.004441,0.000606,0.004768,-98.981842,103.161224,-116.068665,60.187684,24.830135,13.493762,11.066261,-1.0,-1.0,100.612816,-0.95916,3.128296,-0.031176,-1.618585
841500.617785,0.06795387,0.31299785999999996,9.76120506,0.000464,0.003933,0.004106,-99.022568,102.983932,-116.582764,60.187684,24.830135,13.493762,11.066261,-1.0,-1.0,100.612816,-0.95916,3.128356,-0.031181,-1.61859
841500.657759,0.07768539,0.31464594,9.768690090000002,0.003533,0.001534,0.002596,-98.822617,103.125931,-116.197586,60.187684,24.830135,13.493762,11.066261,-1.0,-1.0,100.612816,-0.95916,3.128503,-0.031161,-1.618567
841500.657759,0.07768539,0.31464594,9.768690090000002,0.003533,0.001534,0.002596,-98.822617,103.125931,-116.197586,60.187684,24.830135,13.493762,11.066261,-1.0,-1.0,100.612816,-0.95916,3.128503,-0.031161,-1.618567
841500.697732,0.09624591,0.30775932,9.78275763,0.004977,0.001217,0.001858,-98.929184,103.250427,-116.646317,60.187684,24.830135,13.493762,11.066261,-1.0,-1.0,100.612816,-0.95916,3.128629,-0.031153,-1.618568
841500.697732,0.09624591,0.30775932,9.78275763,0.004977,0.001217,0.001858,-98.929184,103.250427,-116.646317,60.187684,24.830135,13.493762,11.066261,-1.0,-1.0,100.612816,-0.95916,3.128629,-0.031153,-1.618568
841500.737705,0.07724394000000001,0.31134978,9.77692068,0.005932,0.002089,0.005537,-98.984619,103.220093,-116.367462,60.187684,24.830135,13.493762,11.066261,-1.0,-1.0,100.612816,-0.95916,3.128783,-0.031168,-1.618575
841500.737705,0.07724394000000001,0.31134978,9.77692068,0.005932,0.002089,0.005537,-98.984619,103.220093,-116.367462,60.187684,24.830135,13.493762,11.066261,-1.0,-1.0,100.612816,-0.95916,3.128783,-0.031168,-1.618575
841500.777678,0.06421626,0.30910329000000003,9.78634809,0.003188,0.002917,0.003969,-99.124191,103.118256,-116.087845,60.187684,24.830135,13.493762,11.066261,-1.0,-1.0,100.612816,-0.95916,3.128926,-0.03117,-1.618568
841500.797664,0.07559586,0.3094074,9.791586630000001,0.004101,0.002011,0.004332,-99.074081,103.188187,-116.201508,60.187684,24.830135,13.493762,11.066261,-1.0,-1.0,100.612816,-0.95916,3.128989,-0.031177,-1.618568
841500.817651,0.07858791000000001,0.32258223,9.76434426,0.002119,0.00336,0.003971,-99.080185,103.169495,-116.255325,60.187684,24.830135,13.493762,11.066261,-1.0,-1.0,100.612816,-0.95916,3.129057,-0.031172,-1.618547
841500.817651,0.07858791000000001,0.32258223,9.76434426,0.002119,0.00336,0.003971,-99.080185,103.169495,-116.255325,60.187684,24.830135,13.493762,11.066261,-1.0,-1.0,100.612816,-0.95916,3.129057,-0.031172,-1.618547
841500.857624,0.07679268,0.30072555,9.79248915,0.002948,0.004099,0.002752,-99.051712,103.033325,-116.085236,60.187684,24.830135,13.493762,11.066261,-1.0,-1.0,100.612816,-0.95916,3.129226,-0.031181,-1.618549
841500.87761,0.08412075,0.31658832000000003,9.75895857,0.00348,0.003525,0.003438,-99.158234,103.244125,-116.404053,60.187684,24.830135,13.493762,11.066261,-1.0,-1.0,100.612816,-0.95916,3.129329,-0.031173,-1.61852
841500.897597,0.06271533,0.30565998000000005,9.787996170000001,0.004919,0.001682,0.002468,-98.99971,103.244919,-115.967819,60.187684,24.830135,13.493762,11.066261,-1.0,-1.0,100.612816,-0.95916,3.129408,-0.031181,-1.618519
841500.917583,0.08143281,0.29697813,9.77706783,0.002698,0.002973,0.004322,-99.04306,103.259079,-116.387772,60.187684,24.830135,13.493762,11.066261,-1.0,-1.0,100.612816,-0.95916,3.129493,-0.031191,-1.618499
841500.93757,0.07304526,0.3210813,9.74877579,0.003958,0.001883,0.004371,-99.288849,103.189804,-116.417374,60.187684,24.830135,13.493762,11.066261,-1.0,-1.0,100.612816,-0.95916,3.129579,-0.03118,-1.618501
841500.957556,0.07364367000000001,0.30386475,9.784405710000001,0.003669,0.003256,0.002731,-99.305832,103.189468,-116.58754,60.187684,24.830135,13.493762,11.066261,-1.0,-1.0,100.612816,-0.95916,3.129662,-0.031179,-1.618507
841500.977543,0.08172711,0.30506157,9.78215922,0.001124,0.003355,0.003944,-99.229294,102.964615,-116.289841,60.187684,24.830135,13.493762,11.066261,-1.0,-1.0,100.612816,-0.95916,3.129744,-0.031172,-1.618485
841500.977543,0.08172711,0.30506157,9.78215922,0.001124,0.003355,0.003944,-99.229294,102.964615,-116.289841,60.187684,24.830135,13.493762,11.066261,-1.0,-1.0,100.612816,-0.95916,3.129744,-0.031172,-1.618485
841500.997529,0.07050447,0.31419468,9.759409830000001,0.005342,0.000687,0.004276,-99.307983,103.114151,-116.159363,60.187684,24.830135,13.493762,11.066261,-1.0,-1.0,100.612816,-0.95916,3.129841,-0.031171,-1.618473
841501.037502,0.08188407,0.30386475,9.783650340000001,0.003555,0.000273,0.005685,-99.221481,103.232468,-116.450714,60.187684,24.830135,13.493762,11.066261,-1.0,-1.0,100.612816,-0.95916,3.130009,-0.031174,-1.61848
841501.057489,0.07454619,0.30297204000000005,9.76554108,0.004206,0.002101,0.005013,-99.272522,103.243851,-116.139862,60.187684,24.830135,13.493762,11.066261,-1.0,-1.0,100.612816,-0.95916,3.130091,-0.031162,-1.618491
841501.077476,0.07349652000000001,0.30880899,9.74817738,0.003957,0.002918,0.0048,-99.238632,103.147202,-116.394562,60.187684,24.830135,13.493762,11.066261,-1.0,-1.0,100.612816,-0.95916,3.130182,-0.031168,-1.618492
841501.097462,0.06795387,0.30416886,9.771829290000001,0.004553,0.001908,0.004759,-99.143463,103.25769,-115.968216,60.187684,24.830135,13.493762,11.066261,-1.0,-1.0,100.612816,-0.95916,3.130276,-0.03119,-1.618486
841501.117449,0.07229970000000001,0.31194819,9.759252870000001,0.003327,0.003683,0.00259,-99.143463,103.25769,-115.968216,60.187684,24.830135,13.493762,11.066261,-1.0,-1.0,100.612816,-0.95916,3.130371,-0.031182,-1.618493
841501.137435,0.07275096,0.30476727000000003,9.76704201,0.004392,0.00217,0.002973,-99.203613,103.181564,-116.137512,60.187684,24.830135,13.493762,11.066261,-1.0,-1.0,100.612816,-0.95916,3.130453,-0.031191,-1.618486
841501.137435,0.07275096,0.30476727000000003,9.76704201,0.004392,0.00217,0.002973,-99.203613,103.181564,-116.137512,60.187684,24.830135,13.493762,11.066261,-1.0,-1.0,100.612816,-0.95916,3.130453,-0.031191,-1.618486
841501.177408,0.07110288000000001,0.3008727,9.75731049,0.003289,0.004146,0.002784,-99.039352,103.205124,-116.147263,60.187684,24.830135,13.493762,11.066261,-1.0,-1.0,100.613243,-0.996155,3.1306,-0.031168,-1.618478
841501.197395,0.07784234999999999,0.31778514,9.75745764,0.006025,0.003584,0.005116,-99.386887,103.150665,-116.329361,60.187684,24.830135,13.493762,11.066261,-1.0,-1.0,100.613243,-0.996155,3.130692,-0.031183,-1.618479
841501.217381,0.08143281,0.31434183000000004,9.783954450000001,0.002885,0.0023,0.002037,-99.171036,103.268509,-116.498016,60.187684,24.830135,13.493762,11.066261,-1.0,-1.0,100.613243,-0.996155,3.130771,-0.0312,-1.618489
841501.237368,0.07035732,0.31075136999999997,9.77257485,0.005441,0.004212,0.004641,-99.095139,103.175598,-116.009369,60.187684,24.830135,13.493762,11.066261,-1.0,-1.0,100.613243,-0.996155,3.13083,-0.031203,-1.618482
841501.257354,0.0754389,0.32048288999999996,9.764795520000002,0.005441,0.004212,0.004641,-98.979568,103.229935,-115.982468,60.187684,24.830135,13.493762,11.066261,-1.0,-1.0,100.613243,-0.996155,3.130912,-0.03123,-1.618481
841501.297327,0.08562168,0.31854051,9.77856876,0.005691,0.002558,0.005732,-99.115616,103.209595,-116.09404,60.187684,24.830135,13.493762,11.066261,-1.0,-1.0,100.613243,-0.996155,3.131055,-0.031221,-1.61849
841501.297327,0.08562168,0.31854051,9.77856876,0.005691,0.002558,0.005732,-99.115616,103.209595,-116.09404,60.187684,24.830135,13.493762,11.066261,-1.0,-1.0,100.613243,-0.996155,3.131055,-0.031221,-1.61849
841501.3373,0.08337519,0.29847906,9.78649524,0.002878,0.002063,0.003679,-98.928162,103.04982,-115.887955,60.187684,24.830135,13.493762,11.066261,-1.0,-1.0,100.613243,-0.996155,3.131215,-0.031228,-1.618507
841501.3373,0.08337519,0.29847906,9.78649524,0.002878,0.002063,0.003679,-98.928162,103.04982,-115.887955,60.187684,24.830135,13.493762,11.066261,-1.0,-1.0,100.613243,-0.996155,3.131215,-0.031228,-1.618507
841501.377273,0.0754389,0.3153915,9.759704130000001,0.001756,0.003369,0.003894,-98.931229,103.324066,-115.836273,60.187684,24.830135,13.493762,11.066261,-1.0,-1.0,100.613243,-0.996155,3.131366,-0.031223,-1.618505
841501.377273,0.0754389,0.3153915,9.759704130000001,0.001756,0.003369,0.003894,-98.931229,103.324066,-115.836273,60.187684,24.830135,13.493762,11.066261,-1.0,-1.0,100.613243,-0.996155,3.131366,-0.031223,-1.618505
841501.417246,0.08622009,0.29878317000000004,9.78021684,0.003027,0.004255,0.004679,-98.844009,103.546066,-115.920792,60.187684,24.830135,13.493762,11.066261,-1.0,-1.0,100.613243,-0.996155,3.131502,-0.031222,-1.618484
841501.417246,0.08622009,0.29878317000000004,9.78021684,0.003027,0.004255,0.004679,-98.844009,103.546066,-115.920792,60.187684,24.830135,13.493762,11.066261,-1.0,-1.0,100.613243,-0.996155,3.131502,-0.031222,-1.618484
841501.45722,0.07844076,0.30716091,9.79727643,0.004447,-6.5e-05,0.001097,-99.079941,103.205261,-116.209457,60.187684,24.830135,13.493762,11.066261,-1.0,-1.0,100.613243,-0.996155,3.131668,-0.031221,-1.618483
841501.477206,0.07215255000000001,0.2980278,9.768690090000002,0.001316,0.002741,0.004291,-99.029678,103.17923,-116.120285,60.187684,24.830135,13.493762,11.066261,-1.0,-1.0,100.613243,-0.996155,3.131725,-0.031227,-1.618466
841501.497193,0.08502327,0.32167971,9.787692060000001,0.005042,0.00126,0.004219,-99.137909,103.23674,-116.123795,60.187684,24.830135,13.493762,11.066261,-1.0,-1.0,100.613243,-0.996155,3.131802,-0.031222,-1.618457
841501.517179,0.07858791000000001,0.3097017,9.76149936,0.003159,0.004329,0.002611,-99.074905,103.362289,-116.289764,60.187684,24.830135,13.493762,11.066261,-1.0,-1.0,100.613243,-0.996155,3.131881,-0.031216,-1.618449
841501.537166,0.07768539,0.30625839,9.76434426,0.001072,0.003797,0.003377,-99.14122,103.217606,-116.083496,60.187684,24.830135,13.493762,11.066261,-1.0,-1.0,100.613243,-0.996155,3.131986,-0.031217,-1.618438
841501.537166,0.07768539,0.30625839,9.76434426,0.001072,0.003797,0.003377,-99.14122,103.217606,-116.083496,60.187684,24.830135,13.493762,11.066261,-1.0,-1.0,100.613243,-0.996155,3.131986,-0.031217,-1.618438
841501.577139,0.0868185,0.30402171,9.77482134,0.002739,0.003237,0.002573,-99.115906,103.312912,-116.189392,60.187684,24.830135,13.493762,11.066261,-1.0,-1.0,100.613243,-0.996155,3.132146,-0.03122,-1.61843
841501.597125,0.05867361000000001,0.30835773000000005,9.78574968,0.004912,0.001905,0.003022,-99.122086,103.087967,-116.108307,60.187684,24.830135,13.493762,11.066261,-1.0,-1.0,100.613243,-0.996155,3.132213,-0.03123,-1.618418
841501.617112,0.08053028999999999,0.30701375999999997,9.76120506,0.002173,0.003775,0.004653,-99.073257,103.299301,-116.212418,60.187684,24.830135,13.493762,11.066261,-1.0,-1.0,100.613243,-0.996155,3.132285,-0.031239,-1.618414
841501.637098,0.07693983,0.30266793,9.76688505,0.004319,0.003137,0.004085,-99.137939,103.259155,-116.450775,60.187684,24.830135,13.493762,11.066261,-1.0,-1.0,100.613243,-0.996155,3.132376,-0.031235,-1.618423
841501.657085,0.07948062,0.29952873,9.80940159,0.006058,0.001732,0.003154,-99.102737,103.277588,-116.278076,60.187684,24.830135,13.493762,11.066261,-1.0,-1.0,100.613243,-0.996155,3.132446,-0.031242,-1.618423
841501.677071,0.09205704,0.31030011,9.772133400000001,0.001354,0.005014,0.003633,-99.223572,103.354309,-116.233032,60.187684,24.830135,13.493762,11.066261,-1.0,-1.0,100.613243,-0.996155,3.132507,-0.031243,-1.618435
841501.697058,0.08532738,0.32063004,9.76224492,0.007357,0.002707,0.003947,-99.147034,103.510544,-116.395859,60.187684,24.830135,13.493762,11.066261,-1.0,-1.0,100.613243,-0.996155,3.132587,-0.031243,-1.618435
841501.717044,0.057633750000000004,0.29982303,9.7926363,0.0035,0.002005,0.004491,-98.796188,103.43605,-116.222565,60.187684,24.830135,13.493762,11.066261,-1.0,-1.0,100.613243,-0.996155,3.132666,-0.031259,-1.61844
841501.737031,0.08337519,0.30266793,9.78185511,0.002989,0.004202,0.003283,-99.164078,103.56543,-116.306946,60.187684,24.830135,13.493762,11.066261,-1.0,-1.0,100.613243,-0.996155,3.132728,-0.031258,-1.618441
841501.757018,0.08442486000000002,0.31494024000000004,9.77362452,0.006424,0.000949,0.004153,-99.038513,103.347351,-116.378387,60.187684,24.830135,13.493762,11.066261,-1.0,-1.0,100.613243,-0.996155,3.132807,-0.031264,-1.618438
841501.777004,0.07693983,0.30297204000000005,9.787397760000001,0.002366,0.002406,0.003609,-98.90744,103.471466,-116.235764,60.187684,24.830135,13.493762,11.066261,-1.0,-1.0,100.613243,-0.996155,3.132854,-0.031284,-1.618428
841501.796991,0.07574301000000001,0.3125466,9.791292330000001,0.004025,0.002132,0.005414,-99.042496,103.368561,-116.058716,60.187684,24.830135,13.493762,11.066261,-1.0,-1.0,100.613243,-0.996155,3.132919,-0.031289,-1.618423
841501.816977,0.08921214,0.31344912,9.79383312,0.004074,0.002899,0.002959,-99.129593,103.311111,-115.82663,60.187684,24.830135,13.493762,11.066261,-1.0,-1.0,100.613243,-0.996155,3.132985,-0.031294,-1.618428
841501.836964,0.06571719000000001,0.30565998000000005,9.78170796,0.002446,0.002817,0.002086,-99.129593,103.311111,-115.82663,60.187684,24.830135,13.493762,11.066261,-1.0,-1.0,100.613243,-0.996155,3.133057,-0.031288,-1.618422
841501.85695,0.08143281,0.30716091,9.783503190000001,0.005278,0.001939,0.003062,-99.325272,103.21138,-115.892822,60.187684,24.830135,13.493762,11.066261,-1.0,-1.0,100.613243,-0.996155,3.133122,-0.031293,-1.618415
841501.876937,0.07918631999999999,0.30446316,9.80266212,0.002587,0.003401,0.006344,-99.216614,103.268814,-116.357437,60.187684,24.830135,13.493762,11.066261,-1.0,-1.0,100.613243,-0.996155,3.133181,-0.031297,-1.618408
841501.896923,0.07559586,0.30866184,9.771976440000001,0.005927,0.00199,0.004449,-99.183441,103.143311,-116.348236,60.187684,24.830135,13.493762,11.066261,-1.0,-1.0,100.613243,-0.996155,3.133252,-0.031294,-1.618424
841501.91691,0.0751446,0.30686661000000004,9.771230880000001,0.004483,0.00258,0.00246,-99.049042,103.301987,-116.416855,60.187684,24.830135,13.493762,11.066261,-1.0,-1.0,100.613243,-0.996155,3.133314,-0.031314,-1.618423
841501.936896,0.08622009,0.31629402,9.783954450000001,0.002527,0.001383,0.003586,-98.920197,103.314026,-116.267899,60.187684,24.830135,13.493762,11.066261,-1.0,-1.0,100.613243,-0.996155,3.133394,-0.031321,-1.618417
841501.976869,0.0751446,0.31150674,9.77871591,0.001899,0.00371,0.003079,-99.180817,103.213348,-116.451324,60.187684,24.830135,13.493762,11.066261,-1.0,-1.0,100.613243,-0.996155,3.133517,-0.031352,-1.618416
841501.976869,0.0751446,0.31150674,9.77871591,0.001899,0.00371,0.003079,-99.180817,103.213348,-116.451324,60.187684,24.830135,13.493762,11.066261,-1.0,-1.0,100.613243,-0.996155,3.133517,-0.031352,-1.618416
841502.016842,0.08038314,0.29697813,9.75745764,0.004345,0.00379,0.002517,-99.062637,102.982147,-116.581161,60.187684,24.830135,13.493762,11.066261,-1.0,-1.0,100.613243,-0.996155,3.133642,-0.031377,-1.618396
841502.016842,0.08038314,0.29697813,9.75745764,0.004345,0.00379,0.002517,-99.062637,102.982147,-116.581161,60.187684,24.830135,13.493762,11.066261,-1.0,-1.0,100.613243,-0.996155,3.133642,-0.031377,-1.618396
841502.056816,0.07409493,0.31075136999999997,9.755368110000001,0.005112,0.001178,0.003282,-99.038391,103.200562,-116.215057,60.187684,24.830135,13.493762,11.066261,-1.0,-1.0,100.613243,-0.996155,3.133763,-0.031403,-1.618411
841502.076802,0.08067744,0.3122523,9.764491410000002,0.002656,0.002613,0.003385,-98.906357,103.255524,-116.677811,60.187684,24.830135,13.493762,11.066261,-1.0,-1.0,100.613243,-0.996155,3.133821,-0.031417,-1.618413
841502.096789,0.07439904,0.30565998000000005,9.78964425,0.002994,0.002351,0.005781,-98.859695,102.968353,-116.223175,60.187684,24.830135,13.493762,11.066261,-1.0,-1.0,100.613243,-0.996155,3.133886,-0.03143,-1.618406
841502.096789,0.07439904,0.30565998000000005,9.78964425,0.002994,0.002351,0.005781,-98.859695,102.968353,-116.223175,60.187684,24.830135,13.493762,11.066261,-1.0,-1.0,100.613243,-0.996155,3.133886,-0.03143,-1.618406
841502.136762,0.0779895,0.30625839,9.763294590000001,0.004997,0.003817,0.002421,-99.030045,103.094315,-116.294846,60.187684,24.830135,13.493762,11.066261,-1.0,-1.0,100.613243,-0.996155,3.134001,-0.031452,-1.618412
841502.156748,0.08143281,0.30880899,9.78515127,0.005105,0.001312,0.003635,-99.090714,102.983627,-116.229416,60.187684,24.830135,13.493762,11.066261,-1.0,-1.0,100.613243,-0.996155,3.134047,-0.03145,-1.618408
841502.176735,0.08607294000000001,0.31658832000000003,9.78620094,0.002704,0.002649,0.003016,-98.961319,103.312241,-116.343109,60.187684,24.830135,13.493762,11.066261,-1.0,-1.0,100.613243,-0.996155,3.134088,-0.031456,-1.618406
841502.196721,0.07260381,0.30596409,9.7812567,0.004589,0.002915,0.004131,-99.097641,103.05896,-116.314911,60.187684,24.830135,13.493762,11.066261,-1.0,-1.0,100.613243,-0.996155,3.13415,-0.03147,-1.618403
841502.216708,0.06675705000000001,0.30955455000000004,9.78156081,0.003206,0.001042,0.002469,-99.097443,102.962631,-116.254471,60.187684,24.830135,13.493762,11.066261,-1.0,-1.0,100.613243,-0.996155,3.1342,-0.031485,-1.618405
841502.236694,0.07155414,0.30147111000000004,9.78649524,0.000735,0.004626,0.002364,-98.970642,103.010986,-116.178131,60.187684,24.830135,13.493762,11.066261,-1.0,-1.0,100.613808,-1.043716,3.134241,-0.031471,-1.618409
841502.256681,0.08143281,0.30431601,9.793087560000002,0.005891,6e-06,0.002416,-99.122208,103.103302,-116.2202,60.187684,24.830135,13.493762,11.066261,-1.0,-1.0,100.613808,-1.043716,3.134308,-0.031477,-1.618397
841502.256681,0.08143281,0.30431601,9.793087560000002,0.005891,6e-06,0.002416,-99.122208,103.103302,-116.2202,60.187684,24.830135,13.493762,11.066261,-1.0,-1.0,100.613808,-1.043716,3.134308,-0.031477,-1.618397
841502.276667,0.0896634,0.31658832000000003,9.78455286,0.0036,0.001425,0.004461,-99.129105,103.051147,-116.040298,60.187684,24.830135,13.493762,11.066261,-1.0,-1.0,100.613808,-1.043716,3.134342,-0.031486,-1.618382
841502.316641,0.07394778,0.32482872,9.78230637,0.003087,0.001302,0.004126,-99.067886,103.004105,-116.413986,60.187684,24.830135,13.493762,11.066261,-1.0,-1.0,100.613808,-1.043716,3.134465,-0.031515,-1.618386
841502.336627,0.07394778,0.31120263000000004,9.771829290000001,0.003341,0.000625,0.00413,-99.109268,103.001282,-116.071777,60.187684,24.830135,13.493762,11.066261,-1.0,-1.0,100.613808,-1.043716,3.134521,-0.031505,-1.618369
841502.356614,0.08172711,0.3150972,9.816141060000001,0.004631,0.001929,0.003253,-98.829605,103.252625,-116.175812,60.187684,24.830135,13.493762,11.066261,-1.0,-1.0,100.613808,-1.043716,3.134564,-0.031511,-1.618363
841502.3766,0.08696565,0.3005784,9.7664436,0.001946,0.001066,0.002679,-98.811279,103.301819,-116.320724,60.187684,24.830135,13.493762,11.066261,-1.0,-1.0,100.613808,-1.043716,3.134603,-0.031517,-1.618362
841502.396587,0.07079877000000001,0.31943322,9.755515260000001,0.005539,0.003663,0.003895,-98.932831,103.034317,-116.21463,60.187684,24.830135,13.493762,11.066261,-1.0,-1.0,100.613808,-1.043716,3.134648,-0.031516,-1.618364
841502.416573,0.08801532000000001,0.31045707000000006,9.79353882,0.003969,0.002195,0.00381,-99.037598,103.045975,-116.328766,60.187684,24.830135,13.493762,11.066261,-1.0,-1.0,100.613808,-1.043716,3.134708,-0.031538,-1.618351
841502.43656,0.08756406,0.30821058,9.7784118,0.002089,0.002927,0.005274,-99.038177,103.148285,-116.280716,60.187684,24.830135,13.493762,11.066261,-1.0,-1.0,100.613808,-1.043716,3.134772,-0.031543,-1.618351
841502.456546,0.08562168,0.3122523,9.77677353,0.005698,0.002501,0.005013,-99.040543,103.129288,-116.451691,60.187684,24.830135,13.493762,11.066261,-1.0,-1.0,100.613808,-1.043716,3.134822,-0.031549,-1.618372
841502.476533,0.07484049000000001,0.29233800000000004,9.78560253,0.002393,0.001931,0.003295,-99.08403,103.07991,-116.035416,60.187684,24.830135,13.493762,11.066261,-1.0,-1.0,100.613808,-1.043716,3.134866,-0.03156,-1.618359
841502.496519,0.08382645000000001,0.31718673000000003,9.7695828,0.003478,0.003552,0.002618,-99.125244,103.183151,-116.241226,60.187684,24.830135,13.493762,11.066261,-1.0,-1.0,100.613808,-1.043716,3.134922,-0.031565,-1.61835
841502.516506,0.08007903000000001,0.29967588,9.7869465,0.004643,0.002843,0.002256,-99.140579,103.219574,-116.409561,60.187684,24.830135,13.493762,11.066261,-1.0,-1.0,100.613808,-1.043716,3.134984,-0.031585,-1.618334
841502.536492,0.0868185,0.30611124,9.78170796,0.0022,0.002595,0.003794,-99.177765,103.045944,-116.526932,60.187684,24.830135,13.493762,11.066261,-1.0,-1.0,100.613808,-1.043716,3.135025,-0.031581,-1.618316
841502.556479,0.08726976,0.31105548,9.78215922,0.006347,0.00127,0.003359,-99.177765,103.045944,-116.526932,60.187684,24.830135,13.493762,11.066261,-1.0,-1.0,100.613808,-1.043716,3.135057,-0.031579,-1.61831
841502.576466,0.08098155,0.30252078000000004,9.78335604,0.003027,0.001739,0.004274,-98.898163,103.484375,-116.063385,60.187684,24.830135,13.493762,11.066261,-1.0,-1.0,100.613808,-1.043716,3.135111,-0.031592,-1.618292
841502.596452,0.07380063,0.29833191000000003,9.80820477,0.004267,0.0001,0.004305,-98.974411,103.428513,-116.706696,60.187684,24.830135,13.493762,11.066261,-1.0,-1.0,100.613808,-1.043716,3.13515,-0.031593,-1.618288
841502.616439,0.08172711,0.30506157,9.783807300000001,0.004268,0.001908,0.003251,-98.969879,103.090317,-116.486801,60.187684,24.830135,13.493762,11.066261,-1.0,-1.0,100.613808,-1.043716,3.13519,-0.031601,-1.618287
841502.656412,0.08831943,0.31000581,9.80131815,0.005636,0.000425,0.004443,-99.042221,103.065109,-116.360214,60.187684,24.830135,13.493762,11.066261,-1.0,-1.0,100.613808,-1.043716,3.135279,-0.031608,-1.618281
841502.656412,0.08831943,0.31000581,9.80131815,0.005636,0.000425,0.004443,-99.042221,103.065109,-116.360214,60.187684,24.830135,13.493762,11.066261,-1.0,-1.0,100.613808,-1.043716,3.135279,-0.031608,-1.618281
841502.676398,0.08412075,0.31000581,9.81538569,0.003729,0.001721,0.004964,-98.999405,103.39003,-116.518768,60.187684,24.830135,13.493762,11.066261,-1.0,-1.0,100.613808,-1.043716,3.135313,-0.031615,-1.618281
841502.696385,0.08337519,0.31060422000000004,9.79189074,0.002092,0.001225,0.003309,-99.034515,103.148132,-116.41861,60.187684,24.830135,13.493762,11.066261,-1.0,-1.0,100.613808,-1.043716,3.135373,-0.031626,-1.618296
841502.736358,0.07320222,0.29069973,9.795029940000001,0.000202,0.001315,0.00516,-99.014557,103.125122,-116.302399,60.187684,24.830135,13.493762,11.066261,-1.0,-1.0,100.613808,-1.043716,3.135484,-0.03163,-1.618297
841502.736358,0.07320222,0.29069973,9.795029940000001,0.000202,0.001315,0.00516,-99.014557,103.125122,-116.302399,60.187684,24.830135,13.493762,11.066261,-1.0,-1.0,100.613808,-1.043716,3.135484,-0.03163,-1.618297
841502.776331,0.0666099,0.30386475,9.77766624,0.002997,0.000989,0.002734,-99.190964,103.070923,-116.357178,60.187684,24.830135,13.493762,11.066261,-1.0,-1.0,100.613808,-1.043716,3.135576,-0.031655,-1.618289
841502.776331,0.0666099,0.30386475,9.77766624,0.002997,0.000989,0.002734,-99.190964,103.070923,-116.357178,60.187684,24.830135,13.493762,11.066261,-1.0,-1.0,100.613808,-1.043716,3.135576,-0.031655,-1.618289
841502.816304,0.07918631999999999,0.31270356000000005,9.771829290000001,0.003944,0.000354,0.004098,-99.254288,102.98645,-116.252808,60.187684,24.830135,13.493762,11.066261,-1.0,-1.0,100.613808,-1.043716,3.135688,-0.03168,-1.61827
841502.816304,0.07918631999999999,0.31270356000000005,9.771829290000001,0.003944,0.000354,0.004098,-99.254288,102.98645,-116.252808,60.187684,24.830135,13.493762,11.066261,-1.0,-1.0,100.613808,-1.043716,3.135688,-0.03168,-1.61827
841502.856277,0.07963758,0.29683098,9.80940159,0.002918,-0.000344,0.004055,-99.163696,103.128845,-116.278198,60.187684,24.830135,13.493762,11.066261,-1.0,-1.0,100.613808,-1.043716,3.135764,-0.031687,-1.618254
841502.876264,0.0754389,0.31614687,9.76195062,0.00308,0.00174,0.004076,-99.214828,103.186066,-116.372131,60.187684,24.830135,13.493762,11.066261,-1.0,-1.0,100.613808,-1.043716,3.135791,-0.03167,-1.61826
841502.89625,0.0754389,0.31838355,9.764942670000002,0.002441,0.001965,0.005555,-99.284546,103.077515,-116.085678,60.187684,24.830135,13.493762,11.066261,-1.0,-1.0,100.613808,-1.043716,3.135817,-0.03168,-1.618259
841502.916237,0.06541308000000001,0.3008727,9.807007950000001,0.005683,0.002171,0.005274,-99.255371,103.166565,-116.028885,60.187684,24.830135,13.493762,11.066261,-1.0,-1.0,100.613808,-1.043716,3.135854,-0.031689,-1.618263
841502.916237,0.06541308000000001,0.3008727,9.807007950000001,0.005683,0.002171,0.005274,-99.255371,103.166565,-116.028885,60.187684,24.830135,13.493762,11.066261,-1.0,-1.0,100.613808,-1.043716,3.135854,-0.031689,-1.618263
841502.936223,0.07275096,0.30072555,9.78275763,0.00212,0.004807,0.002898,-99.262466,103.425644,-116.136505,60.187684,24.830135,13.493762,11.066261,-1.0,-1.0,100.613808,-1.043716,3.135908,-0.031714,-1.618267
841502.95621,0.06466752,0.30985866000000006,9.768690090000002,0.004675,0.000508,0.004177,-99.132233,103.365479,-116.314255,60.187684,24.830135,13.493762,11.066261,-1.0,-1.0,100.613808,-1.043716,3.135959,-0.031699,-1.618265
841502.996183,0.08951625,0.29893032,9.80985285,0.002327,0.004139,0.003723,-99.096909,103.26825,-116.164337,60.187694,24.830148,12.569951,10.508665,-1.0,-1.0,100.613808,-1.043716,3.136024,-0.031705,-1.618265
841503.016169,0.06856209,0.29907747,9.77617512,0.007602,0.000433,0.003507,-99.113953,103.390533,-116.411026,60.187694,24.830148,12.569951,10.508665,-1.0,-1.0,100.613808,-1.043716,3.136071,-0.031718,-1.618254
841503.036156,0.07289811,0.3122523,9.79069392,0.000595,0.003934,0.003569,-99.1987,103.351898,-116.46965,60.187694,24.830148,12.569951,10.508665,-1.0,-1.0,100.613808,-1.043716,3.136101,-0.031725,-1.618241
841503.056143,0.07903917,0.31045707000000006,9.7784118,0.004575,0.001361,0.004313,-99.161987,103.372391,-116.450333,60.187694,24.830148,12.569951,10.508665,-1.0,-1.0,100.613808,-1.043716,3.136155,-0.031714,-1.618238
841503.076129,0.07619427,0.31060422000000004,9.77422293,0.005056,0.001011,0.003679,-99.208984,103.124222,-116.437897,60.187694,24.830148,12.569951,10.508665,-1.0,-1.0,100.613808,-1.043716,3.136194,-0.031715,-1.61824
841503.096116,0.09504909,0.30506157,9.81269775,0.001873,0.003675,0.002639,-99.199707,103.294357,-116.369415,60.187694,24.830148,12.569951,10.508665,-1.0,-1.0,100.613808,-1.043716,3.136224,-0.031724,-1.618245
841503.116102,0.07634142000000001,0.31194819,9.79069392,0.00541,0.000331,0.004752,-99.104675,103.301498,-116.427109,60.187694,24.830148,12.569951,10.508665,-1.0,-1.0,100.613808,-1.043716,3.13627,-0.031712,-1.618216
841503.136089,0.07813665,0.31404753,9.79189074,0.003259,0.001943,0.003571,-99.234833,103.289093,-116.206604,60.187694,24.830148,12.569951,10.508665,-1.0,-1.0,100.613808,-1.043716,3.136306,-0.031718,-1.618213
841503.156075,0.0896634,0.31419468,9.78185511,0.004569,0.000462,0.003304,-99.187469,103.509705,-116.811676,60.187694,24.830148,12.569951,10.508665,-1.0,-1.0,100.613808,-1.043716,3.136334,-0.031713,-1.618205
841503.176062,0.08067744,0.29938158000000004,9.79189074,0.003152,0.000557,0.002806,-99.053757,103.197983,-116.474976,60.187694,24.830148,12.569951,10.508665,-1.0,-1.0,100.613808,-1.043716,3.136369,-0.031725,-1.618205
841503.196048,0.07888221,0.30985866000000006,9.7812567,0.003001,0.002505,0.003621,-99.068085,103.40329,-116.811584,60.187694,24.830148,12.569951,10.508665,-1.0,-1.0,100.613808,-1.043716,3.136403,-0.031723,-1.618198
841503.216035,0.07559586,0.29458449000000003,9.78485697,0.004927,-0.000226,0.00274,-98.979935,103.558228,-116.68132,60.187694,24.830148,12.569951,10.508665,-1.0,-1.0,100.613808,-1.043716,3.136437,-0.031728,-1.618192
841503.256008,0.06960195,0.30357045,9.77092677,0.005393,0.000187,0.004574,-99.305557,103.355942,-116.592682,60.187694,24.830148,12.569951,10.508665,-1.0,-1.0,100.613808,-1.043716,3.136498,-0.031723,-1.618177
841503.256008,0.06960195,0.30357045,9.77092677,0.005393,0.000187,0.004574,-99.305557,103.355942,-116.592682,60.187694,24.830148,12.569951,10.508665,-1.0,-1.0,100.613808,-1.043716,3.136498,-0.031723,-1.618177
841503.275995,0.05598567000000001,0.30446316,9.78634809,0.003638,0.00032,0.00179,-99.305557,103.355942,-116.592682,60.187694,24.830148,12.569951,10.508665,-1.0,-1.0,100.613808,-1.043716,3.136528,-0.031744,-1.618175
841503.295981,0.08726976,0.30072555,9.79727643,0.001412,0.001373,0.003304,-99.114426,103.582016,-116.552124,60.187694,24.830148,12.569951,10.508665,-1.0,-1.0,100.613808,-1.043716,3.136548,-0.031736,-1.618163
841503.335954,0.07948062,0.30402171,9.79877736,0.00197,0.000265,0.003843,-99.232758,103.306473,-116.319244,60.187694,24.830148,12.569951,10.508665,-1.0,-1.0,100.614212,-1.078064,3.136614,-0.031749,-1.618152
841503.335954,0.07948062,0.30402171,9.79877736,0.00197,0.000265,0.003843,-99.232758,103.306473,-116.319244,60.187694,24.830148,12.569951,10.508665,-1.0,-1.0,100.614212,-1.078064,3.136614,-0.031749,-1.618152
841503.375927,0.07334937000000001,0.30806343,9.791586630000001,0.004083,0.002415,0.003772,-98.958908,103.488739,-116.453873,60.187694,24.830148,12.569951,10.508665,-1.0,-1.0,100.614212,-1.078064,3.136649,-0.031772,-1.618133
841503.375927,0.07334937000000001,0.30806343,9.791586630000001,0.004083,0.002415,0.003772,-98.958908,103.488739,-116.453873,60.187694,24.830148,12.569951,10.508665,-1.0,-1.0,100.614212,-1.078064,3.136649,-0.031772,-1.618133
841503.4159,0.06706116000000001,0.30746502000000003,9.77407578,0.004876,-0.000286,0.003274,-99.07428,103.511139,-116.366745,60.187694,24.830148,12.569951,10.508665,-1.0,-1.0,100.614212,-1.078064,3.136711,-0.031794,-1.618126
841503.435887,0.07065162,0.30775932,9.79203789,0.00186,0.001928,0.003748,-98.874161,103.482285,-116.416321,60.187694,24.830148,12.569951,10.508665,-1.0,-1.0,100.614212,-1.078064,3.136732,-0.031799,-1.618119
841503.455873,0.07619427,0.31210515000000005,9.791292330000001,0.002086,-5.2e-05,0.003702,-99.034882,103.320908,-116.420792,60.187694,24.830148,12.569951,10.508665,-1.0,-1.0,100.614212,-1.078064,3.13676,-0.031793,-1.618108
841503.455873,0.07619427,0.31210515000000005,9.791292330000001,0.002086,-5.2e-05,0.003702,-99.034882,103.320908,-116.420792,60.187694,24.830148,12.569951,10.508665,-1.0,-1.0,100.614212,-1.078064,3.13676,-0.031793,-1.618108
841503.495847,0.09131148000000001,0.2977335,9.78859458,0.002054,0.002352,0.003518,-98.830322,103.300171,-116.527969,60.187694,24.830148,12.569951,10.508665,-1.0,-1.0,100.614212,-1.078064,3.136793,-0.031795,-1.618084
841503.515833,0.0953532,0.30775932,9.79338186,0.004888,-0.000971,0.004747,-98.96373,103.398438,-116.377304,60.187694,24.830148,12.569951,10.508665,-1.0,-1.0,100.614212,-1.078064,3.136816,-0.0318,-1.618078
841503.53582,0.08188407,0.29997999,9.79218504,0.00303,0.002589,0.002962,-99.082916,103.279434,-116.588303,60.187694,24.830148,12.569951,10.508665,-1.0,-1.0,100.614212,-1.078064,3.136835,-0.031791,-1.618083
841503.53582,0.08188407,0.29997999,9.79218504,0.00303,0.002589,0.002962,-99.082916,103.279434,-116.588303,60.187694,24.830148,12.569951,10.508665,-1.0,-1.0,100.614212,-1.078064,3.136835,-0.031791,-1.618083
841503.53582,0.08188407,0.29997999,9.79218504,0.00303,0.002589,0.002962,-99.082916,103.279434,-116.588303,60.187694,24.830148,12.569951,10.508665,-1.0,-1.0,100.614212,-1.078064,3.136835,-0.031791,-1.618083
841503.575793,0.07679268,0.3122523,9.795334050000001,0.004417,-0.000972,0.004052,-99.018417,103.252594,-116.280045,60.187694,24.830148,12.569951,10.508665,-1.0,-1.0,100.614212,-1.078064,3.136861,-0.031797,-1.61808
841503.615766,0.06795387,0.3034233,9.7869465,0.004712,-0.001678,0.002946,-98.995682,103.35643,-116.065506,60.187694,24.830148,12.569951,10.508665,-1.0,-1.0,100.614212,-1.078064,3.136877,-0.031795,-1.618111
841503.635752,0.08696565,0.30686661000000004,9.79727643,0.003553,8.6e-05,0.002541,-98.890564,103.312759,-116.065704,60.187694,24.830148,12.569951,10.508665,-1.0,-1.0,100.614212,-1.078064,3.136889,-0.031793,-1.618105
841503.655739,0.06496182,0.31030011,9.76539393,0.003511,0.001152,0.003547,-98.957291,103.341583,-116.068924,60.187694,24.830148,12.569951,10.508665,-1.0,-1.0,100.614212,-1.078064,3.136913,-0.031793,-1.618106
841503.675726,0.07304526,0.30237363,9.78574968,0.005382,-0.000124,0.00403,-98.894287,103.379395,-116.075348,60.187694,24.830148,12.569951,10.508665,-1.0,-1.0,100.614212,-1.078064,3.136944,-0.031814,-1.618114
841503.695712,0.07663572,0.30132396,9.79398027,0.001796,0.000987,0.001696,-99.158539,103.27124,-116.187836,60.187694,24.830148,12.569951,10.508665,-1.0,-1.0,100.614212,-1.078064,3.136961,-0.03183,-1.618115
841503.715699,0.06466752,0.30446316,9.771682140000001,0.004224,0.001505,0.005331,-98.910538,103.361465,-116.23468,60.187694,24.830148,12.569951,10.508665,-1.0,-1.0,100.614212,-1.078064,3.136975,-0.031833,-1.6181
841503.735685,0.08801532000000001,0.31270356000000005,9.763147440000001,0.002564,-0.000502,0.003553,-99.110138,103.1745,-116.236191,60.187694,24.830148,12.569951,10.508665,-1.0,-1.0,100.614212,-1.078064,3.136992,-0.031849,-1.618115
841503.755672,0.07364367000000001,0.30431601,9.75776175,0.00094,-0.000221,0.00407,-99.184799,103.25824,-116.342087,60.187694,24.830148,12.569951,10.508665,-1.0,-1.0,100.614212,-1.078064,3.137002,-0.03185,-1.618114
841503.775658,0.06452037000000001,0.30072555,9.77946147,0.004625,0.000652,0.00199,-99.333572,103.184494,-116.281403,60.187694,24.830148,12.569951,10.508665,-1.0,-1.0,100.614212,-1.078064,3.137002,-0.031842,-1.618123
841503.795645,0.0868185,0.30237363,9.76733631,0.000477,0.002472,0.00479,-99.186813,103.223038,-116.103333,60.187694,24.830148,12.569951,10.508665,-1.0,-1.0,100.614212,-1.078064,3.137027,-0.031828,-1.618106
841503.815631,0.06706116000000001,0.28201788,9.76972995,0.005281,0.001361,0.00431,-99.300583,103.231522,-115.765442,60.187694,24.830148,12.569951,10.508665,-1.0,-1.0,100.614212,-1.078064,3.137052,-0.031826,-1.618124
841503.835618,0.08592579,0.31674527999999996,9.774968490000001,0.003639,0.002311,0.003298,-99.214935,103.148651,-116.011871,60.187694,24.830148,12.569951,10.508665,-1.0,-1.0,100.614212,-1.078064,3.137065,-0.031832,-1.618127
841503.855604,0.07634142000000001,0.29398608000000004,9.787544910000001,0.003304,0.002996,0.005438,-99.18129,103.273239,-115.990616,60.187694,24.830148,12.569951,10.508665,-1.0,-1.0,100.614212,-1.078064,3.13708,-0.031828,-1.618125
841503.875591,0.08831943,0.30866184,9.77257485,0.004541,0.000497,0.00451,-99.372803,103.239502,-116.2901,60.187694,24.830148,12.569951,10.508665,-1.0,-1.0,100.614212,-1.078064,3.137095,-0.031844,-1.618131
841503.895578,0.07844076,0.29728224000000003,9.7866522,0.000897,0.001425,0.003586,-99.280762,103.111771,-116.447159,60.187694,24.830148,12.569951,10.508665,-1.0,-1.0,100.614212,-1.078064,3.137105,-0.031839,-1.618125
841503.935551,0.07409493,0.30446316,9.78170796,0.00246,0.000841,0.005024,-99.195862,103.318756,-116.162354,60.187694,24.830148,12.569951,10.508665,-1.0,-1.0,100.614212,-1.078064,3.137119,-0.031839,-1.618106
841503.935551,0.07409493,0.30446316,9.78170796,0.00246,0.000841,0.005024,-99.195862,103.318756,-116.162354,60.187694,24.830148,12.569951,10.508665,-1.0,-1.0,100.614212,-1.078064,3.137119,-0.031839,-1.618106
841503.975524,0.07903917,0.30282489,9.796678020000002,0.005517,0.002113,0.006167,-99.237,103.25354,-116.159897,60.187694,24.830148,12.569951,10.508665,-1.0,-1.0,100.614212,-1.078064,3.137123,-0.03183,-1.618093
841503.975524,0.07903917,0.30282489,9.796678020000002,0.005517,0.002113,0.006167,-99.237,103.25354,-116.159897,60.187694,24.830148,12.569951,10.508665,-1.0,-1.0,100.614212,-1.078064,3.137123,-0.03183,-1.618093
841504.015497,0.07199559,0.30491442,9.77960862,0.004467,0.000639,0.003949,-99.031876,103.467819,-116.0439,60.187694,24.830148,12.569951,10.508665,-1.0,-1.0,100.614212,-1.078064,3.137145,-0.031826,-1.618107
841504.015497,0.07199559,0.30491442,9.77960862,0.004467,0.000639,0.003949,-99.031876,103.467819,-116.0439,60.187694,24.830148,12.569951,10.508665,-1.0,-1.0,100.614212,-1.078064,3.137145,-0.031826,-1.618107
841504.05547,0.07948062,0.29878317000000004,9.784101600000001,0.003904,0.00209,0.005054,-99.340286,103.368607,-115.945724,60.187694,24.830148,12.569951,10.508665,-1.0,-1.0,100.614212,-1.078064,3.137138,-0.031824,-1.6181
841504.05547,0.07948062,0.29878317000000004,9.784101600000001,0.003904,0.00209,0.005054,-99.340286,103.368607,-115.945724,60.187694,24.830148,12.569951,10.508665,-1.0,-1.0,100.614212,-1.078064,3.137138,-0.031824,-1.6181
841504.095443,0.07155414,0.30206952000000004,9.783954450000001,0.003006,0.000878,0.002771,-99.325699,103.252701,-116.265854,60.187694,24.830148,12.569951,10.508665,-1.0,-1.0,100.614212,-1.078064,3.137146,-0.031841,-1.6181
841504.095443,0.07155414,0.30206952000000004,9.783954450000001,0.003006,0.000878,0.002771,-99.325699,103.252701,-116.265854,60.187694,24.830148,12.569951,10.508665,-1.0,-1.0,100.614212,-1.078064,3.137146,-0.031841,-1.6181
841504.135416,0.07020036,0.31285071000000003,9.79218504,0.002833,0.001007,0.004944,-99.399811,103.258316,-116.631622,60.187694,24.830148,12.569951,10.508665,-1.0,-1.0,100.614212,-1.078064,3.137169,-0.031855,-1.618071
841504.135416,0.07020036,0.31285071000000003,9.79218504,0.002833,0.001007,0.004944,-99.399811,103.258316,-116.631622,60.187694,24.830148,12.569951,10.508665,-1.0,-1.0,100.614212,-1.078064,3.137169,-0.031855,-1.618071
841504.135416,0.07020036,0.31285071000000003,9.79218504,0.002833,0.001007,0.004944,-99.399811,103.258316,-116.631622,60.187694,24.830148,12.569951,10.508665,-1.0,-1.0,100.614212,-1.078064,3.137169,-0.031855,-1.618071
841504.175389,0.07050447,0.31210515000000005,9.7866522,0.004902,0.000463,0.002861,-99.195862,103.2117,-116.186295,60.187694,24.830148,12.569951,10.508665,-1.0,-1.0,100.614212,-1.078064,3.13718,-0.031852,-1.618089
841504.215362,0.07215255000000001,0.30926025,9.780962400000002,0.002607,0.000498,0.003251,-99.181641,103.292068,-116.386856,60.187694,24.830148,12.569951,10.508665,-1.0,-1.0,100.614212,-1.078064,3.137186,-0.031856,-1.618095
841504.235349,0.08337519,0.30790647,9.763147440000001,0.004162,0.000556,0.004571,-99.236694,103.282425,-116.192886,60.187694,24.830148,12.569951,10.508665,-1.0,-1.0,100.614212,-1.078064,3.137196,-0.031866,-1.618093
841504.255336,0.08337519,0.29578131,9.78874173,0.002627,0.001302,0.004243,-99.00209,103.29425,-116.184921,60.187694,24.830148,12.569951,10.508665,-1.0,-1.0,100.614212,-1.078064,3.137201,-0.031876,-1.618095
841504.275322,0.08592579,0.30491442,9.78874173,0.005278,0.000568,0.005957,-99.391403,103.122284,-116.526062,60.187694,24.830148,12.569951,10.508665,-1.0,-1.0,100.614212,-1.078064,3.137203,-0.031884,-1.618081
841504.295309,0.07784234999999999,0.30551283,9.78993855,0.002177,0.002423,0.003412,-99.212753,103.21994,-116.365158,60.187694,24.830148,12.569951,10.508665,-1.0,-1.0,100.614212,-1.078064,3.137216,-0.031888,-1.618083
841504.315295,0.06856209,0.30551283,9.79727643,0.00451,-0.000597,0.002784,-99.235107,103.138077,-116.438751,60.187694,24.830148,12.569951,10.508665,-1.0,-1.0,100.614212,-1.078064,3.137227,-0.031888,-1.618073
841504.335282,0.08007903000000001,0.31689243,9.78305193,0.003966,0.001387,0.00463,-99.154449,103.375885,-116.183395,60.187694,24.830148,12.569951,10.508665,-1.0,-1.0,100.614212,-1.078064,3.13722,-0.031896,-1.618071
841504.355268,0.07229970000000001,0.29309337,9.79009551,0.002035,0.001361,0.003121,-99.126404,103.378082,-116.317688,60.187694,24.830148,12.569951,10.508665,-1.0,-1.0,100.614212,-1.078064,3.137228,-0.031893,-1.618083
841504.375255,0.08308089000000002,0.29862621,9.80505576,0.005626,0.000566,0.004825,-99.165863,103.184326,-116.141098,60.187694,24.830148,12.569951,10.508665,-1.0,-1.0,100.614677,-1.117699,3.137216,-0.031886,-1.618065
841504.395241,0.08292393,0.29893032,9.81643536,0.003317,0.001656,0.004421,-99.380417,103.137253,-116.188919,60.187694,24.830148,12.569951,10.508665,-1.0,-1.0,100.614677,-1.117699,3.137217,-0.031879,-1.618074
841504.415228,0.08337519,0.30297204000000005,9.79562835,0.004613,-0.0018,0.005324,-99.302612,103.04216,-116.082977,60.187694,24.830148,12.569951,10.508665,-1.0,-1.0,100.614677,-1.117699,3.137235,-0.031876,-1.618083
841504.435215,0.07170129,0.30686661000000004,9.78005988,0.005066,0.002488,0.002426,-99.247864,103.159225,-116.17012,60.187694,24.830148,12.569951,10.508665,-1.0,-1.0,100.614677,-1.117699,3.137239,-0.031871,-1.618095
841504.455201,0.09040896000000001,0.29593827,9.80162226,0.001864,-0.001065,0.004994,-99.106689,103.342209,-116.414246,60.187694,24.830148,12.569951,10.508665,-1.0,-1.0,100.614677,-1.117699,3.137267,-0.031882,-1.618081
841504.475188,0.07364367000000001,0.3034233,9.799375770000001,0.005618,0.000972,0.003064,-99.296692,103.24202,-116.374344,60.187694,24.830148,12.569951,10.508665,-1.0,-1.0,100.614677,-1.117699,3.137267,-0.031885,-1.618083
841504.495174,0.07170129,0.31030011,9.77661657,0.003129,-0.000921,0.003725,-99.345993,103.217529,-116.279327,60.187694,24.830148,12.569951,10.508665,-1.0,-1.0,100.614677,-1.117699,3.137292,-0.03189,-1.618078
841504.515161,0.06870924,0.30297204000000005,9.77512545,0.003929,-0.001462,0.003988,-99.288528,103.036804,-116.227951,60.187694,24.830148,12.569951,10.508665,-1.0,-1.0,100.614677,-1.117699,3.137304,-0.031899,-1.618075
841504.535147,0.08457201,0.29309337,9.80191656,0.004465,-0.001395,0.003906,-99.3255,103.069916,-116.540375,60.187694,24.830148,12.569951,10.508665,-1.0,-1.0,100.614677,-1.117699,3.13732,-0.031913,-1.618084
841504.57512,0.06675705000000001,0.30835773000000005,9.75401433,0.005119,0.000138,0.006019,-99.440521,103.24205,-116.056519,60.187694,24.830148,12.569951,10.508665,-1.0,-1.0,100.614677,-1.117699,3.137335,-0.031919,-1.61809
841504.57512,0.06675705000000001,0.30835773000000005,9.75401433,0.005119,0.000138,0.006019,-99.440521,103.24205,-116.056519,60.187694,24.830148,12.569951,10.508665,-1.0,-1.0,100.614677,-1.117699,3.137335,-0.031919,-1.61809
841504.615094,0.07394778,0.29938158000000004,9.774968490000001,0.002892,0.00059,0.005063,-99.200287,103.290298,-116.35704,60.187694,24.830148,12.569951,10.508665,-1.0,-1.0,100.614677,-1.117699,3.137348,-0.031931,-1.618094
841504.615094,0.07394778,0.29938158000000004,9.774968490000001,0.002892,0.00059,0.005063,-99.200287,103.290298,-116.35704,60.187694,24.830148,12.569951,10.508665,-1.0,-1.0,100.614677,-1.117699,3.137348,-0.031931,-1.618094
841504.655067,0.07079877000000001,0.29668383,9.787692060000001,0.001434,0.001842,0.002903,-99.469467,103.09819,-116.132538,60.187694,24.830148,12.569951,10.508665,-1.0,-1.0,100.614677,-1.117699,3.137374,-0.031953,-1.618091
841504.655067,0.07079877000000001,0.29668383,9.787692060000001,0.001434,0.001842,0.002903,-99.469467,103.09819,-116.132538,60.187694,24.830148,12.569951,10.508665,-1.0,-1.0,100.614677,-1.117699,3.137374,-0.031953,-1.618091
841504.69504,0.06646275,0.29683098,9.76374585,0.002446,0.001417,0.004284,-99.328018,103.061615,-116.604614,60.187694,24.830148,12.569951,10.508665,-1.0,-1.0,100.614677,-1.117699,3.137382,-0.031956,-1.618106
841504.69504,0.06646275,0.29683098,9.76374585,0.002446,0.001417,0.004284,-99.328018,103.061615,-116.604614,60.187694,24.830148,12.569951,10.508665,-1.0,-1.0,100.614677,-1.117699,3.137382,-0.031956,-1.618106
841504.735013,0.07125003,0.30565998000000005,9.78005988,0.005094,-0.000655,0.004019,-99.384888,103.27562,-116.343445,60.187694,24.830148,12.569951,10.508665,-1.0,-1.0,100.614677,-1.117699,3.137388,-0.03196,-1.618109
841504.735013,0.07125003,0.30565998000000005,9.78005988,0.005094,-0.000655,0.004019,-99.384888,103.27562,-116.343445,60.187694,24.830148,12.569951,10.508665,-1.0,-1.0,100.614677,-1.117699,3.137388,-0.03196,-1.618109
841504.774986,0.0782838,0.27886887000000005,9.80206371,0.003916,0.001134,0.00292,-99.422134,103.248688,-116.383255,60.187694,24.830148,12.569951,10.508665,-1.0,-1.0,100.614677,-1.117699,3.137421,-0.031999,-1.618107
841504.774986,0.0782838,0.27886887000000005,9.80206371,0.003916,0.001134,0.00292,-99.422134,103.248688,-116.383255,60.187694,24.830148,12.569951,10.508665,-1.0,-1.0,100.614677,-1.117699,3.137421,-0.031999,-1.618107
841504.814959,0.07079877000000001,0.2920437,9.80760636,0.003495,0.000933,0.004236,-99.311569,103.137741,-116.406143,60.187694,24.830148,12.569951,10.508665,-1.0,-1.0,100.614677,-1.117699,3.137423,-0.03201,-1.618102
841504.834946,0.08607294000000001,0.30147111000000004,9.79772769,0.005151,-0.000911,0.004349,-99.347382,103.055237,-116.403442,60.187694,24.830148,12.569951,10.508665,-1.0,-1.0,100.614677,-1.117699,3.137408,-0.032012,-1.618112
841504.834946,0.08607294000000001,0.30147111000000004,9.79772769,0.005151,-0.000911,0.004349,-99.347382,103.055237,-116.403442,60.187694,24.830148,12.569951,10.508665,-1.0,-1.0,100.614677,-1.117699,3.137408,-0.032012,-1.618112
841504.874919,0.07978473,0.29233800000000004,9.80191656,0.004228,-0.001419,0.004101,-99.168701,103.015564,-116.353439,60.187694,24.830148,12.569951,10.508665,-1.0,-1.0,100.614677,-1.117699,3.137435,-0.032005,-1.618116
841504.894905,0.08143281,0.30821058,9.77661657,0.002737,-0.000255,0.004657,-99.112961,103.291733,-116.352356,60.187694,24.830148,12.569951,10.508665,-1.0,-1.0,100.614677,-1.117699,3.137427,-0.032014,-1.618108
841504.914892,0.07918631999999999,0.31644117000000005,9.79802199,0.003838,-0.000822,0.003149,-99.46347,103.232162,-116.229324,60.187694,24.830148,12.569951,10.508665,-1.0,-1.0,100.614677,-1.117699,3.137443,-0.03201,-1.618105
841504.934878,0.07125003,0.29818476,9.80041563,0.00314,-0.002075,0.003138,-99.111084,103.176926,-115.984009,60.187694,24.830148,12.569951,10.508665,-1.0,-1.0,100.614677,-1.117699,3.137445,-0.032013,-1.618102
841504.954865,0.08232552,0.31000581,9.77661657,0.00165,-0.000252,0.003797,-99.246429,103.160736,-116.324005,60.187694,24.830148,12.569951,10.508665,-1.0,-1.0,100.614677,-1.117699,3.137449,-0.031999,-1.618094
841504.974852,0.08442486000000002,0.30446316,9.78230637,0.005132,0.000133,0.004943,-99.225128,103.210999,-116.266983,60.187694,24.830148,12.569951,10.508665,-1.0,-1.0,100.614677,-1.117699,3.137459,-0.032003,-1.618096
841504.994838,0.07304526,0.30147111000000004,9.775723860000001,0.002256,-0.002661,0.003053,-99.447479,103.224808,-116.551651,60.187694,24.830148,12.569951,10.508665,-1.0,-1.0,100.614677,-1.117699,3.137468,-0.032012,-1.618101
841505.014826,0.07663572,0.30565998000000005,9.74982546,0.003713,0.000266,0.00454,-99.374588,103.134018,-116.325653,60.187694,24.830148,12.569951,10.508665,-1.0,-1.0,100.614677,-1.117699,3.137463,-0.032006,-1.61809
841505.034811,0.06571719000000001,0.29952873,9.78679935,0.004143,-0.001906,0.002477,-99.256531,103.5,-116.513824,60.187694,24.830148,12.569951,10.508665,-1.0,-1.0,100.614677,-1.117699,3.137456,-0.032013,-1.618086
841505.054799,0.0577809,0.30701375999999997,9.759252870000001,0.000243,-0.000513,0.003836,-99.39624,103.314667,-116.130753,60.187694,24.830148,12.569951,10.508665,-1.0,-1.0,100.614677,-1.117699,3.137458,-0.032022,-1.618069
841505.094772,0.07993188000000001,0.30012714,9.78919299,0.003051,-0.001742,0.004895,-99.358566,103.133408,-116.505356,60.187694,24.830148,12.569951,10.508665,-1.0,-1.0,100.614677,-1.117699,3.137475,-0.032029,-1.618052
841505.114758,0.06825798,0.30596409,9.78185511,0.000193,-0.000573,0.00334,-99.405441,103.111908,-116.333908,60.187694,24.830148,12.569951,10.508665,-1.0,-1.0,100.614677,-1.117699,3.137463,-0.032022,-1.618056
841505.134745,0.06720831000000001,0.31239945,9.77048532,0.004568,-0.001281,0.003749,-99.418579,103.010605,-116.369034,60.187694,24.830148,12.569951,10.508665,-1.0,-1.0,100.614677,-1.117699,3.137478,-0.032024,-1.618034
841505.154732,0.08053028999999999,0.30402171,9.7781175,0.002882,1.9e-05,0.003998,-99.3582,103.043198,-116.279724,60.187694,24.830148,12.569951,10.508665,-1.0,-1.0,100.614677,-1.117699,3.13748,-0.032015,-1.618039
841505.174718,0.07170129,0.30297204000000005,9.77692068,0.002948,0.000276,0.004305,-99.409256,103.029266,-116.09198,60.187694,24.830148,12.569951,10.508665,-1.0,-1.0,100.614677,-1.117699,3.137492,-0.03203,-1.618036
841505.214691,0.07903917,0.29233800000000004,9.78829047,0.001119,0.000365,0.005344,-99.34584,103.144394,-116.358032,60.187694,24.830148,12.569951,10.508665,-1.0,-1.0,100.614677,-1.117699,3.137504,-0.032029,-1.618038
841505.214691,0.07903917,0.29233800000000004,9.78829047,0.001119,0.000365,0.005344,-99.34584,103.144394,-116.358032,60.187694,24.830148,12.569951,10.508665,-1.0,-1.0,100.614677,-1.117699,3.137504,-0.032029,-1.618038
841505.254664,0.09400923,0.31015296,9.796530870000002,0.00271,0.00055,0.003088,-99.47937,103.102936,-116.187454,60.187694,24.830148,12.569951,10.508665,-1.0,-1.0,100.614677,-1.117699,3.13749,-0.032048,-1.618024
841505.274651,0.07125003,0.29623257000000003,9.78874173,0.002828,-0.0002,0.003262,-99.35878,103.16893,-116.528946,60.187694,24.830148,12.569951,10.508665,-1.0,-1.0,100.614677,-1.117699,3.137482,-0.032049,-1.61802
841505.294637,0.08053028999999999,0.30551283,9.763893,0.003661,-0.000323,0.006028,-99.411072,103.24231,-116.708694,60.187694,24.830148,12.569951,10.508665,-1.0,-1.0,100.614677,-1.117699,3.137471,-0.032053,-1.618011
841505.314624,0.08517042000000001,0.30910329000000003,9.77437008,0.000513,-0.000977,0.003409,-99.18811,103.256271,-116.186371,60.187694,24.830148,12.569951,10.508665,-1.0,-1.0,100.614677,-1.117699,3.137459,-0.032038,-1.618019
841505.334611,0.07619427,0.28874754,9.77632227,0.003719,-6e-06,0.0046,-99.190933,103.346588,-116.359543,60.187694,24.830148,12.569951,10.508665,-1.0,-1.0,100.614677,-1.117699,3.137445,-0.03203,-1.618004
841505.354597,0.07215255000000001,0.2920437,9.795775500000001,0.002715,-0.000489,0.004426,-99.413467,103.277374,-116.3685,60.187694,24.830148,12.569951,10.508665,-1.0,-1.0,100.614677,-1.117699,3.137447,-0.032023,-1.617998
841505.374584,0.062116920000000006,0.29997999,9.7954812,0.003651,-0.000675,0.002104,-99.281433,103.182449,-116.16922,60.187694,24.830148,12.569951,10.508665,-1.0,-1.0,100.614677,-1.117699,3.137458,-0.032017,-1.617993
841505.39457,0.0751446,0.31419468,9.780658290000002,0.004398,-0.000908,0.005338,-99.317612,103.063614,-116.132217,60.187694,24.830148,12.569951,10.508665,-1.0,-1.0,100.614677,-1.117699,3.137441,-0.032021,-1.617987
841505.414557,0.0896634,0.3008727,9.796678020000002,-0.000633,-0.000244,0.004622,-99.438599,103.116058,-116.098953,60.187694,24.830148,12.569951,10.508665,-1.0,-1.0,100.614677,-1.117699,3.137436,-0.032027,-1.617993
841505.434543,0.07304526,0.30611124,9.77482134,0.004004,-0.001935,0.003794,-99.438599,103.116058,-116.098953,60.187694,24.830148,12.569951,10.508665,-1.0,-1.0,100.614677,-1.117699,3.13743,-0.032026,-1.618005
841505.45453,0.06496182,0.31285071000000003,9.780815250000002,0.001748,4e-06,0.003539,-99.389435,103.224121,-116.126221,60.187694,24.830148,12.569951,10.508665,-1.0,-1.0,100.614983,-1.141479,3.137432,-0.032027,-1.618006
841505.494503,0.0865242,0.30117681,9.77856876,0.006156,-0.002197,0.004501,-99.410736,103.19429,-115.998703,60.187694,24.830148,12.569951,10.508665,-1.0,-1.0,100.614983,-1.141479,3.137442,-0.032047,-1.618006
841505.494503,0.0865242,0.30117681,9.77856876,0.006156,-0.002197,0.004501,-99.410736,103.19429,-115.998703,60.187694,24.830148,12.569951,10.508665,-1.0,-1.0,100.614983,-1.141479,3.137442,-0.032047,-1.618006
841505.534475,0.08143281,0.30402171,9.78245352,0.005532,-0.000765,0.003541,-99.324768,103.230484,-115.940125,60.187694,24.830148,12.569951,10.508665,-1.0,-1.0,100.614983,-1.141479,3.137432,-0.032044,-1.618004
841505.554463,0.07603731000000001,0.29233800000000004,9.7784118,0.00289,-0.000379,0.004546,-99.528687,103.144821,-116.031387,60.187694,24.830148,12.569951,10.508665,-1.0,-1.0,100.614983,-1.141479,3.137429,-0.032053,-1.617993
841505.574449,0.07454619,0.2977335,9.78589683,0.001961,0.000513,0.003902,-99.468933,103.314651,-115.929733,60.187694,24.830148,12.569951,10.508665,-1.0,-1.0,100.614983,-1.141479,3.137424,-0.032056,-1.617993
841505.594436,0.08427771,0.29907747,9.764942670000002,0.006419,-0.000474,0.002741,-99.302902,103.319458,-116.007919,60.187694,24.830148,12.569951,10.508665,-1.0,-1.0,100.614983,-1.141479,3.137422,-0.032043,-1.617985
841505.614422,0.07529175,0.30491442,9.77826465,0.002192,0.000442,0.003567,-99.325851,103.371933,-115.928207,60.187694,24.830148,12.569951,10.508665,-1.0,-1.0,100.614983,-1.141479,3.137422,-0.032056,-1.617975
841505.634409,0.06301944000000001,0.30027429,9.77797035,0.005103,-0.000534,0.0051,-99.363403,103.068344,-115.957382,60.187694,24.830148,12.569951,10.508665,-1.0,-1.0,100.614983,-1.141479,3.137418,-0.032056,-1.61797
841505.654395,0.08248248000000001,0.30985866000000006,9.765246780000002,0.004028,-0.000893,0.003354,-99.174454,103.585602,-115.78331,60.187694,24.830148,12.569951,10.508665,-1.0,-1.0,100.614983,-1.141479,3.137417,-0.032061,-1.617983
841505.674381,0.06242103,0.3008727,9.767787570000001,0.003779,0.001442,0.00469,-99.329391,103.443298,-115.917801,60.187694,24.830148,12.569951,10.508665,-1.0,-1.0,100.614983,-1.141479,3.137416,-0.032064,-1.617981
841505.694369,0.06735546,0.30625839,9.775272600000001,0.006329,-0.00246,0.003351,-99.397552,103.19249,-115.759293,60.187694,24.830148,12.569951,10.508665,-1.0,-1.0,100.614983,-1.141479,3.137409,-0.032063,-1.617984
841505.714355,0.05927202,0.3034233,9.80131815,0.001772,0.000708,0.004296,-99.197128,103.19606,-116.29332,60.187694,24.830148,12.569951,10.508665,-1.0,-1.0,100.614983,-1.141479,3.137402,-0.032081,-1.617985
841505.734342,0.07110288000000001,0.30506157,9.76464837,0.003339,-0.000402,0.004131,-99.396805,103.191406,-115.92865,60.187694,24.830148,12.569951,10.508665,-1.0,-1.0,100.614983,-1.141479,3.137409,-0.032074,-1.617988
841505.754328,0.07139718,0.30311919,9.79353882,0.003894,-0.000899,0.003658,-99.211212,103.312622,-116.31218,60.187694,24.830148,12.569951,10.508665,-1.0,-1.0,100.614983,-1.141479,3.137397,-0.032072,-1.617985
841505.774315,0.07394778,0.30072555,9.79682517,0.001761,-3.8e-05,0.004524,-99.448547,103.384354,-116.198318,60.187694,24.830148,12.569951,10.508665,-1.0,-1.0,100.614983,-1.141479,3.137397,-0.032066,-1.617974
841505.814288,0.07394778,0.3008727,9.77467419,0.001574,0.001388,0.002713,-99.326797,103.268143,-116.486557,60.187694,24.830148,12.569951,10.508665,-1.0,-1.0,100.614983,-1.141479,3.137388,-0.032073,-1.617981
841505.814288,0.07394778,0.3008727,9.77467419,0.001574,0.001388,0.002713,-99.326797,103.268143,-116.486557,60.187694,24.830148,12.569951,10.508665,-1.0,-1.0,100.614983,-1.141479,3.137388,-0.032073,-1.617981
841505.854261,0.08471916,0.29952873,9.77632227,0.005111,-0.002542,0.002354,-99.425323,103.173309,-116.465469,60.187694,24.830148,12.569951,10.508665,-1.0,-1.0,100.614983,-1.141479,3.137392,-0.032067,-1.617983
841505.874248,0.06691401,0.32736951,9.76030254,0.002263,0.000583,0.004797,-99.317383,103.126083,-116.283722,60.187694,24.830148,12.569951,10.508665,-1.0,-1.0,100.614983,-1.141479,3.137389,-0.032082,-1.617971
841505.894234,0.07559586,0.29713509,9.77273181,0.003406,-0.003768,0.004896,-99.378494,103.225861,-116.248291,60.187694,24.830148,12.569951,10.508665,-1.0,-1.0,100.614983,-1.141479,3.137384,-0.032085,-1.617982
841505.914221,0.07619427,0.29429019,9.77976558,0.001029,-0.000915,0.005456,-99.442062,103.311478,-115.780807,60.187694,24.830148,12.569951,10.508665,-1.0,-1.0,100.614983,-1.141479,3.137369,-0.032088,-1.61798
841505.934207,0.07424208,0.31689243,9.76120506,0.004385,0.000332,0.005047,-99.420364,103.22316,-116.373642,60.187694,24.830148,12.569951,10.508665,-1.0,-1.0,100.614983,-1.141479,3.137355,-0.032074,-1.617984
841505.954194,0.06571719000000001,0.29414304,9.79712928,0.003041,-0.001089,0.003882,-99.434219,103.313034,-116.320877,60.187694,24.830148,12.569951,10.508665,-1.0,-1.0,100.614983,-1.141479,3.13736,-0.032072,-1.617988
841505.954194,0.06571719000000001,0.29414304,9.79712928,0.003041,-0.001089,0.003882,-99.434219,103.313034,-116.320877,60.187694,24.830148,12.569951,10.508665,-1.0,-1.0,100.614983,-1.141479,3.13736,-0.032072,-1.617988
841505.994167,0.07574301000000001,0.29938158000000004,9.77646942,0.005132,-0.001026,0.003378,-99.409256,103.244339,-116.567902,60.187694,24.830148,12.569951,10.508665,-1.0,-1.0,100.614983,-1.141479,3.137342,-0.032065,-1.617987
841506.014153,0.07499745000000001,0.31210515000000005,9.774968490000001,0.002309,-0.000691,0.004798,-99.299713,103.233765,-116.449722,60.187694,24.830148,12.569951,10.508665,-1.0,-1.0,100.614983,-1.141479,3.137325,-0.03208,-1.617988
841506.034139,0.07858791000000001,0.29474145,9.75910572,0.004471,-0.000222,0.003616,-99.507126,103.100082,-116.267914,60.187694,24.830148,12.569951,10.508665,-1.0,-1.0,100.614983,-1.141479,3.137325,-0.032081,-1.617986
841506.054126,0.07364367000000001,0.29099403,9.808499070000002,0.003728,-0.000599,0.00509,-99.36554,103.198212,-116.407974,60.187694,24.830148,12.569951,10.508665,-1.0,-1.0,100.614983,-1.141479,3.137335,-0.03209,-1.617976
841506.074112,0.07903917,0.29967588,9.77407578,0.001205,0.001104,0.003875,-99.460251,103.152161,-116.108414,60.187694,24.830148,12.569951,10.508665,-1.0,-1.0,100.614983,-1.141479,3.137333,-0.032093,-1.617986
841506.094099,0.0606258,0.30101985000000003,9.7695828,0.005555,-0.000583,0.004044,-99.469315,103.226547,-116.038101,60.187694,24.830148,12.569951,10.508665,-1.0,-1.0,100.614983,-1.141479,3.137345,-0.032096,-1.617991
841506.094099,0.0606258,0.30101985000000003,9.7695828,0.005555,-0.000583,0.004044,-99.469315,103.226547,-116.038101,60.187694,24.830148,12.569951,10.508665,-1.0,-1.0,100.614983,-1.141479,3.137345,-0.032096,-1.617991
841506.134072,0.08397360000000001,0.30565998000000005,9.78634809,0.002548,-0.00187,0.001725,-99.54805,103.198257,-116.429001,60.187694,24.830148,12.569951,10.508665,-1.0,-1.0,100.614983,-1.141479,3.137337,-0.032107,-1.617972
841506.174045,0.07139718,0.29728224000000003,9.793087560000002,0.001106,0.001031,0.006367,-99.493881,103.082016,-116.123749,60.187694,24.830148,12.569951,10.508665,-1.0,-1.0,100.614983,-1.141479,3.137316,-0.032104,-1.617961
841506.174045,0.07139718,0.29728224000000003,9.793087560000002,0.001106,0.001031,0.006367,-99.493881,103.082016,-116.123749,60.187694,24.830148,12.569951,10.508665,-1.0,-1.0,100.614983,-1.141479,3.137316,-0.032104,-1.617961
841506.214018,0.08801532000000001,0.29907747,9.77632227,0.003101,0.000568,0.003352,-99.578079,103.234619,-116.427277,60.187694,24.830148,12.569951,10.508665,-1.0,-1.0,100.614983,-1.141479,3.137322,-0.032117,-1.617971
841506.234005,0.07155414,0.30252078000000004,9.78574968,0.001849,0.000587,0.00487,-99.441025,103.334427,-116.414337,60.187694,24.830148,12.569951,10.508665,-1.0,-1.0,100.614983,-1.141479,3.137321,-0.032113,-1.617974
841506.253991,0.08935929000000001,0.30311919,9.77706783,0.005489,-0.00221,0.004618,-99.429321,103.233688,-116.27742,60.187694,24.830148,12.569951,10.508665,-1.0,-1.0,100.614983,-1.141479,3.137316,-0.032111,-1.617995
841506.273978,0.07708698000000001,0.31299785999999996,9.76209777,0.001972,0.00119,0.004824,-99.565811,103.280884,-116.087448,60.187694,24.830148,12.569951,10.508665,-1.0,-1.0,100.614983,-1.141479,3.137315,-0.032121,-1.617998
841506.293964,0.06436341000000001,0.30117681,9.78335604,0.004607,-0.00082,0.005071,-99.661209,103.374298,-116.484192,60.187694,24.830148,12.569951,10.508665,-1.0,-1.0,100.614983,-1.141479,3.137318,-0.03212,-1.617999
841506.313951,0.08846658,0.29503575000000004,9.77646942,0.002152,-0.000991,0.003606,-99.501099,103.177917,-116.179916,60.187694,24.830148,12.569951,10.508665,-1.0,-1.0,100.614983,-1.141479,3.137303,-0.032118,-1.618
841506.333938,0.0751446,0.30311919,9.76060665,0.002559,0.000589,0.004975,-99.387375,103.323776,-116.307785,60.187694,24.830148,12.569951,10.508665,-1.0,-1.0,100.614983,-1.141479,3.137288,-0.032111,-1.617987
841506.353924,0.07619427,0.30357045,9.783208890000001,0.003872,-0.001336,0.003227,-99.46759,103.341614,-116.487015,60.187694,24.830148,12.569951,10.508665,-1.0,-1.0,100.614983,-1.141479,3.137285,-0.032132,-1.617995
841506.373911,0.08038314,0.30686661000000004,9.76419711,0.000985,0.000891,0.003519,-99.424347,103.325668,-116.620789,60.187694,24.830148,12.569951,10.508665,-1.0,-1.0,100.614983,-1.141479,3.137269,-0.032123,-1.617986
841506.413884,0.08921214,0.2894931,9.7724277,0.003976,-0.000648,0.003869,-99.588272,103.115829,-116.407608,60.187694,24.830148,12.569951,10.508665,-1.0,-1.0,100.614983,-1.141479,3.137255,-0.032084,-1.617977
