timestamp,time_rel,x,y,theta,vx,vy,accel_x,accel_y,accel_z,gyro_x,gyro_y,gyro_z
0.0,0.0,0.0,0.0,2.8282556584899545,0.0,0.0,-9.48172797,0.05627997,-2.8759682700000004,0.003198,-0.016351,0.005153
0.05995599995367229,0.05995599995367229,0.0,0.0,2.734815437380788,0.0,0.0,-9.458380170000002,0.04281084,-2.8163921400000005,0.002189,0.001104,0.006369
0.11991299991495907,0.11991299991495907,0.0,0.0,2.6571144548291876,0.0,0.0,-9.44700057,0.00958437,-2.7981357300000003,-0.000334,0.005118,0.005986
0.13989899994339794,0.13989899994339794,0.0,0.0,2.592477199725545,0.0,0.0,-9.40164894,-0.0056898,-2.80651347,0.004639,-0.003047,0.002661
0.1598839999642223,0.1598839999642223,0.0,0.0,2.5386872742122506,0.0,0.0,-9.43008813,0.01886463,-2.81055519,0.007557,-0.001666,0.006634
0.17986999999266118,0.17986999999266118,0.0,0.0,2.4934491963327687,0.0,0.0,-9.43487541,-0.00164808,-2.78929692,-0.000322,0.004304,0.004885
0.19985500001348555,0.19985500001348555,0.0,0.0,2.493468068947763,0.0,0.0,-9.41602059,0.00628821,-2.8240243200000004,0.005744,-0.006368,0.00154
0.2198409999255091,0.2198409999255091,0.0,0.0,2.4935708411256456,0.0,0.0,-9.43548363,0.02484873,-2.80127493,0.002367,0.003573,0.005002
0.23982599994633347,0.23982599994633347,0.0,0.0,2.4936195012610973,0.0,0.0,-9.42125913,-0.01257642,-2.78690328,-0.000531,0.000854,0.002605
0.25981199997477233,0.25981199997477233,0.0,0.0,2.4937126891075767,0.0,0.0,-9.41212602,-0.00014715,-2.8196883,0.007558,-0.006789,0.004614
0.2797980000032112,0.2797980000032112,0.0,0.0,2.4938281579235433,0.0,0.0,-9.44476389,0.01182105,-2.81325294,0.00163,0.006411,0.005702
0.2997830000240356,0.2997830000240356,0.0,0.0,2.493883782896308,0.0,0.0,-9.41931675,0.01047708,-2.78884566,0.005746,-0.003473,0.002816
0.3197689999360591,0.3197689999360591,0.0,0.0,2.493969069842631,0.0,0.0,-9.42425118,0.02634966,-2.82641796,0.003625,-0.003644,0.004267
0.3197689999360591,0.3197689999360591,0.0,0.0,2.493971867227083,0.0,0.0,-9.42425118,0.02634966,-2.82641796,0.003625,-0.003644,0.004267
0.35973999998532236,0.35973999998532236,0.0,0.0,2.4941110720611466,0.0,0.0,-9.41033079,0.00373761,-2.80785744,0.00574,-0.008894,0.002794
0.3797260000137612,0.3797260000137612,0.0,0.0,2.4941828947046627,0.0,0.0,-9.43668045,0.01107549,-2.81265453,0.002268,0.003046,0.003577
0.41969699994660914,0.41969699994660914,0.0,0.0,2.4943030725257938,0.0,0.0,-9.41915979,0.00703377,-2.80785744,0.006837,-0.005858,0.002197
0.4396819999674335,0.4396819999674335,0.0,0.0,2.494401480016718,0.0,0.0,-9.42470244,0.00928026,-2.8163921400000005,-0.001455,0.003863,0.004898
0.4596679999958724,0.4596679999958724,0.0,0.0,2.494493943695952,0.0,0.0,-9.42994098,0.00942741,-2.7906507,0.007483,-0.002303,0.004626
0.47965300001669675,0.47965300001669675,0.0,0.0,2.494551714871215,0.0,0.0,-9.4223088,-0.008829,-2.80756314,0.004528,-0.003343,0.002873
0.4996389999287203,0.4996389999287203,0.0,0.0,2.49461534455119,0.0,0.0,-9.41871834,0.00748503,-2.7981357300000003,1.4e-05,0.005749,0.003164
0.5196249999571592,0.5196249999571592,0.0,0.0,2.49467077211402,0.0,0.0,-9.42694893,0.02095416,-2.79244593,0.009523,-0.007294,0.00273
0.5396099999779835,0.5396099999779835,0.0,0.0,2.494764665121762,0.0,0.0,-9.44221329,0.01002582,-2.8291157100000004,0.001017,0.004391,0.004765
0.5595960000064224,0.5595960000064224,0.0,0.0,2.4948527695505405,0.0,0.0,-9.43383555,0.0056898,-2.79993096,0.002375,0.000676,0.004456
0.5795810000272468,0.5795810000272468,0.0,0.0,2.4949116757320215,0.0,0.0,-9.4194639,-0.00179523,-2.80142208,0.008434,-0.005318,0.002877
0.5995669999392703,0.5995669999392703,0.0,0.0,2.4950127512786775,0.0,0.0,-9.42200469,0.00942741,-2.8101039300000004,-0.001418,0.003711,0.005178
0.6195529999677092,0.6195529999677092,0.0,0.0,2.495093097332065,0.0,0.0,-9.41856138,0.01122264,-2.79513387,0.007445,-0.003167,0.004032
0.6195529999677092,0.6195529999677092,0.0,0.0,2.495094977733878,0.0,0.0,-9.41856138,0.01122264,-2.79513387,0.007445,-0.003167,0.004032
0.6595250000245869,0.6595250000245869,0.0,0.0,2.4952553088048868,0.0,0.0,-9.42963687,0.0173637,-2.80606221,0.000848,0.005533,0.004112
0.679509999928996,0.679509999928996,0.0,0.0,2.4953278205242055,0.0,0.0,-9.43308018,0.00373761,-2.8051695,0.008352,-0.006567,0.00359
0.6994959999574348,0.6994959999574348,0.0,0.0,2.495386124474763,0.0,0.0,-9.4311378,-0.00777933,-2.8062191700000003,0.000797,0.004659,0.002797
0.7194809999782592,0.7194809999782592,0.0,0.0,2.4954630177969985,0.0,0.0,-9.42754734,-0.00194238,-2.8116048600000005,0.002357,-0.001021,0.003859
0.7394670000066981,0.7394670000066981,0.0,0.0,2.4955347165938875,0.0,0.0,-9.42919542,0.00643536,-2.8168434,0.006494,-0.005289,0.003564
0.7594520000275224,0.7594520000275224,0.0,0.0,2.495611939457209,0.0,0.0,-9.42994098,0.00973152,-2.8009708200000003,-0.002327,0.005163,0.00388
0.779437999939546,0.779437999939546,0.0,0.0,2.4957227288311685,0.0,0.0,-9.42245595,-0.00090252,-2.80725903,0.00759,-0.004234,0.005782
0.7994239999679849,0.7994239999679849,0.0,0.0,2.4957896704097635,0.0,0.0,-9.42559515,0.02170953,-2.80785744,0.003497,-0.000409,0.003257
0.8194089999888092,0.8194089999888092,0.0,0.0,2.495830182308593,0.0,0.0,-9.40583781,-0.01556847,-2.81653929,-0.00049,0.006284,0.001765
0.8393950000172481,0.8393950000172481,0.0,0.0,2.495870055349627,0.0,0.0,-9.3932712,0.09116433,-2.79633069,-0.00049,0.006284,0.001765
0.8593799999216571,0.8593799999216571,0.0,0.0,2.4956966778118836,0.0,0.0,-9.54819072,-0.3005784,-2.6195544900000005,-0.0197,0.014506,-0.01038
0.879365999950096,0.879365999950096,0.0,0.0,2.496103553726897,0.0,0.0,-9.15286734,0.10628154,-2.77508223,7e-06,0.007034,0.023037
0.8993519999785349,0.8993519999785349,0.0,0.0,2.496077896117651,0.0,0.0,-9.64669293,0.07993188,-2.86429437,0.003608,-0.007301,-0.002102
0.9193369999993593,0.9193369999993593,0.0,0.0,2.496074869694562,0.0,0.0,-9.37410246,-0.08248248,-2.79364275,-0.008925,0.007491,-0.000687
0.9193369999993593,0.9193369999993593,0.0,0.0,2.496018156003304,0.0,0.0,-9.37410246,-0.08248248,-2.79364275,-0.008925,0.007491,-0.000687
0.9593079999322072,0.9593079999322072,0.0,0.0,2.496102408070815,0.0,0.0,-9.533828880000002,0.09729558,-2.8451354400000004,0.002503,-0.006077,0.001517
0.979293999960646,0.979293999960646,0.0,0.0,2.496299499311534,0.0,0.0,-9.35135307,0.0805302899999999,-2.8086128100000005,0.005957,0.001825,0.010982
0.9992799999890849,0.9992799999890849,0.0,0.0,2.4963892337266973,0.0,0.0,-9.47320308,-0.02634966,-2.83255902,0.016987,-0.007393,0.004628
1.0192650000099093,1.0192650000099093,0.0,0.0,2.496496328732766,0.0,0.0,-9.46242189,-0.04685256,-2.74873257,0.00079,0.004003,0.005606
1.0392509999219328,1.0392509999219328,0.0,0.0,2.4966156941009334,0.0,0.0,-9.39566484,0.0056898,-2.8851013800000005,0.002938,-0.004555,0.006274
1.0592359999427572,1.0592359999427572,0.0,0.0,2.4966641280517052,0.0,0.0,-9.49430439,0.08562168,-2.8074159900000004,0.003146,-0.002019,0.002146
1.0992069999920204,1.0992069999920204,0.0,0.0,2.4968540832852213,0.0,0.0,-9.32380659,-0.02350476,-2.9168367300000004,0.013652,-0.004234,0.005566
1.1191930000204593,1.1191930000204593,0.0,0.0,2.4970477857500306,0.0,0.0,-9.46212759,-0.01092834,-2.7713348100000004,0.010042,0.002594,0.009949
1.1391789999324828,1.1391789999324828,0.0,0.0,2.4970688991737493,0.0,0.0,-9.47080944,0.04386051,-2.7369115200000005,-0.006437,-0.001572,0.000821
1.1591639999533072,1.1591639999533072,0.0,0.0,2.4971943532820315,0.0,0.0,-9.39490947,0.01676529,-2.85111954,0.01229,-0.001239,0.006405
1.179149999981746,1.179149999981746,0.0,0.0,2.49733986027352,0.0,0.0,-9.41018364,-0.03113694,-2.790945,0.003617,0.001149,0.007484
1.1991350000025705,1.1991350000025705,0.0,0.0,2.4973427026004096,0.0,0.0,-9.46197063,0.00837774,-2.75277429,-0.000952,-0.002736,-0.000294
1.219120999914594,1.219120999914594,0.0,0.0,2.4974692526432714,0.0,0.0,-9.45763461,0.03322647,-2.82777174,0.009906,0.001864,0.00652
1.219120999914594,1.219120999914594,0.0,0.0,2.4974992068800903,0.0,0.0,-9.45763461,0.03322647,-2.82777174,0.009906,0.001864,0.00652
1.219120999914594,1.219120999914594,0.0,0.0,2.4975228135867233,0.0,0.0,-9.45763461,0.03322647,-2.82777174,0.009906,0.001864,0.00652
1.2590919999638572,1.2590919999638572,0.0,0.0,2.4976588884693456,0.0,0.0,-9.47589102,0.03996594,-2.76040647,0.005002,-0.006807,0.000997
1.2990630000131205,1.2990630000131205,0.0,0.0,2.4978658388926753,0.0,0.0,-9.37710432,-0.19968255,-2.85456285,0.004364,-0.002018,0.00594
1.319048999925144,1.319048999925144,0.0,0.0,2.497921483346964,0.0,0.0,-9.5410098,0.01946304,-2.7952908300000003,0.017873,0.012624,0.002589
1.3390349999535829,1.3390349999535829,0.0,0.0,2.498045551777108,0.0,0.0,-9.50537988,0.210915,-2.6867628000000003,0.004517,0.00688,0.006395
1.3590199999744073,1.3590199999744073,0.0,0.0,2.4981101657597318,0.0,0.0,-9.31662567,0.17633475,-2.85831027,0.003969,-0.000349,0.00307
1.3590199999744073,1.3590199999744073,0.0,0.0,2.498087803902081,0.0,0.0,-9.31662567,0.17633475,-2.85831027,0.003969,-0.000349,0.00307
1.3989910000236705,1.3989910000236705,0.0,0.0,2.4984633938580725,0.0,0.0,-9.55643112,-0.01946304,-2.74319973,0.012766,0.00535,0.015738
1.418976999935694,1.418976999935694,0.0,0.0,2.498385519259477,0.0,0.0,-9.37694736,-0.10942074,-2.77058925,-0.003363,-0.008876,-0.005135
1.438962999964133,1.438962999964133,0.0,0.0,2.498427282894694,0.0,0.0,-9.37754577,0.01646118,-2.83660074,-0.005047,-0.006645,0.001793
1.4589479999849573,1.4589479999849573,0.0,0.0,2.4986720595603717,0.0,0.0,-9.51316902,0.09295956,-2.76968673,0.008913,0.008116,0.013329
1.4789340000133961,1.4789340000133961,0.0,0.0,2.4986856069441554,0.0,0.0,-9.47170215,0.04955031,-2.73930516,0.001094,0.004051,6.1e-05
1.4989189999178052,1.4989189999178052,0.0,0.0,2.498743089634104,0.0,0.0,-9.2865384,-0.02798793,-2.82342591,-0.005184,-0.001448,0.002644
1.518904999946244,1.518904999946244,0.0,0.0,2.498764295925529,0.0,0.0,-9.43757316,-0.01542132,-2.8475290800000006,-0.004609,-0.004127,0.000611
1.518904999946244,1.518904999946244,0.0,0.0,2.4987143379426,0.0,0.0,-9.43757316,-0.01542132,-2.8475290800000006,-0.004609,-0.004127,0.000611
1.5588759999955073,1.5588759999955073,0.0,0.0,2.499102329808868,0.0,0.0,-9.30689415,-0.08322804,-2.89692243,0.009596,0.002467,0.017776
1.5788620000239462,1.5788620000239462,0.0,0.0,2.499666129645532,0.0,0.0,-9.1908909,-0.00224649,-2.97670716,0.02423,-0.020669,0.031531
1.5988469999283552,1.5988469999283552,0.0,0.0,2.500145322697602,0.0,0.0,-9.5378706,0.10463346,-2.97371511,0.04341,-0.026073,0.026174
1.618832999956794,1.618832999956794,0.0,0.0,2.500682428809366,0.0,0.0,-9.446559120000002,0.0525423599999999,-2.89916892,0.043074,-0.04115,0.029163
1.638818999985233,1.638818999985233,0.0,0.0,2.501054506021333,0.0,0.0,-9.13849569,0.0028449,-2.95201539,0.019583,-0.092368,0.019349
1.6588040000060573,1.6588040000060573,0.0,0.0,2.5014618416046197,0.0,0.0,-9.49221486,0.11975067,-2.9056042800000004,0.024499,-0.124222,0.021264
1.6787899999180809,1.6787899999180809,0.0,0.0,2.5017737141859913,0.0,0.0,-9.30809097,-0.05373918,-2.8834533,0.000243,-0.180894,0.015649
1.6987749999389052,1.6987749999389052,0.0,0.0,2.501730141487661,0.0,0.0,-9.21289473,-0.23291883,-2.8193841900000005,-0.041667,-0.244381,-0.004776
1.718760999967344,1.718760999967344,0.0,0.0,2.5014668958934028,0.0,0.0,-9.34521201,-0.04969746,-3.0139851600000003,-0.061511,-0.336488,-0.017012
1.738746999995783,1.738746999995783,0.0,0.0,2.5011053602976396,0.0,0.0,-9.01904913,-0.05463189,-2.98074888,-0.113216,-0.448654,-0.022087
1.7587320000166073,1.7587320000166073,0.0,0.0,2.501119903647674,0.0,0.0,-9.25585272,0.16630893,-2.74918383,-0.074464,-0.514705,0.000137
1.7787179999286309,1.7787179999286309,0.0,0.0,2.5010804725281917,0.0,0.0,-8.96111127,-0.14654178,-2.99182437,-0.081162,-0.569876,-0.002879
1.7987029999494553,1.7987029999494553,0.0,0.0,2.50150888959487,0.0,0.0,-9.23354478,0.14429529,-2.85561252,-0.019555,-0.672649,0.024172
1.8186889999778941,1.8186889999778941,0.0,0.0,2.502133365405758,0.0,0.0,-9.07891956,-0.20118348,-2.95350651,0.010208,-0.741616,0.035042
1.8186889999778941,1.8186889999778941,0.0,0.0,2.5025213308836243,0.0,0.0,-9.07891956,-0.20118348,-2.95350651,0.010208,-0.741616,0.035042
1.878645999939181,1.878645999939181,0.0,0.0,2.5037069671801078,0.0,0.0,-9.15870429,-0.05718249,-2.09040309,-0.029944,-1.015729,0.035
1.8986319999676198,1.8986319999676198,0.0,0.0,2.504292022787862,0.0,0.0,-9.39970656,-0.02754648,-1.75959027,-0.060027,-1.088439,0.030113
1.9186169999884441,1.9186169999884441,0.0,0.0,2.504828690035403,0.0,0.0,-9.58561587,-0.05912487,-1.3867121700000002,-0.062102,-1.125032,0.027496
1.938603000016883,1.938603000016883,0.0,0.0,2.505508935378849,0.0,0.0,-9.27575721,0.09295956,-1.75165398,-0.041951,-1.223748,0.035239
1.958587999921292,1.958587999921292,0.0,0.0,2.5062663424548433,0.0,0.0,-9.35464923,0.13187583,-1.35274014,-0.026819,-1.313152,0.039368
1.978573999949731,1.978573999949731,0.0,0.0,2.5071926075338293,0.0,0.0,-9.55852065,0.20671632,-0.59650686,-0.017051,-1.322901,0.048519
1.978573999949731,1.978573999949731,0.0,0.0,2.5075312185380882,0.0,0.0,-9.55852065,0.20671632,-0.59650686,-0.017051,-1.322901,0.048519
2.018544999998994,2.018544999998994,0.0,0.0,2.5096240362988276,0.0,0.0,-9.54864198,0.60399189,-0.33634566,0.007337,-1.372662,0.079886
2.038531000027433,2.038531000027433,0.0,0.0,2.5159046573457697,0.0,0.0,-11.630961630000002,1.5024211200000002,0.8978308200000001,0.164087,-0.868242,0.346916
2.058515999931842,2.058515999931842,0.0,0.0,2.517315925467715,0.0,0.0,-11.84381901,0.2803698,1.68549534,0.161161,-0.755665,0.069593
2.058515999931842,2.058515999931842,0.0,0.0,2.5171876783928298,0.0,0.0,-11.84381901,0.2803698,1.68549534,0.161161,-0.755665,0.069593
2.09848799998872,2.09848799998872,0.0,0.0,2.5198636750981755,0.0,0.0,-10.48284828,0.21046374,0.4770603,0.150124,-0.579675,0.054498
2.118473000009544,2.118473000009544,0.0,0.0,2.519983459330737,0.0,0.0,-10.49781834,0.48634056,1.0135397700000002,0.139221,-0.531623,-0.00309
2.118473000009544,2.118473000009544,0.0,0.0,2.5189534507815425,0.0,0.0,-10.49781834,0.48634056,1.0135397700000002,0.139221,-0.531623,-0.00309
2.1584449999500066,2.1584449999500066,0.0,0.0,2.520255873686601,0.0,0.0,-9.64369107,-0.01601973,1.20154842,0.031986,-0.532022,0.003341
2.178429999970831,2.178429999970831,0.0,0.0,2.5207037732870425,0.0,0.0,-9.66749994,-0.2547657,1.13988276,-0.016674,-0.592794,0.018741
2.19841599999927,2.19841599999927,0.0,0.0,2.5214190789505455,0.0,0.0,-9.60088023,-0.19938825,1.1425707,-0.045051,-0.636936,0.034589
2.218401000020094,2.218401000020094,0.0,0.0,2.5220195350172396,0.0,0.0,-9.70791714,-0.00404172,1.16413308,-0.045472,-0.693629,0.0282
2.2383869999321178,2.2383869999321178,0.0,0.0,2.5226186936875923,0.0,0.0,-9.75011976,0.07424208,0.96684417,-0.046807,-0.746118,0.028399
2.2583729999605566,2.2583729999605566,0.0,0.0,2.523048911357286,0.0,0.0,-9.65222577,0.24773193,1.23942483,-0.051379,-0.814232,0.018955
2.278357999981381,2.278357999981381,0.0,0.0,2.523693185321795,0.0,0.0,-9.6136038,0.29907747,1.3349251800000002,-0.059703,-0.884307,0.03161
2.29834400000982,2.29834400000982,0.0,0.0,2.524404055582467,0.0,0.0,-9.60971904,0.31030011,1.36186344,-0.053951,-0.971657,0.035521
2.3183299999218434,2.3183299999218434,0.0,0.0,2.5250037337477105,0.0,0.0,-9.51900597,0.24249339,1.56005487,-0.031262,-1.048312,0.029147
2.338314999942668,2.338314999942668,0.0,0.0,2.525534535563688,0.0,0.0,-9.44550945,0.19938825,1.85195142,-0.015094,-1.082753,0.025322
2.3583009999711066,2.3583009999711066,0.0,0.0,2.525849903475468,0.0,0.0,-9.42290721,0.24189498,2.29113531,0.002503,-1.094911,0.01313
2.378285999991931,2.378285999991931,0.0,0.0,2.525796717731117,0.0,0.0,-9.2777094,0.25611948,2.3185248300000003,0.029861,-1.166901,-0.007651
2.39827200002037,2.39827200002037,0.0,0.0,2.527740970721423,0.0,0.0,-9.89726976,0.36568737,2.48228316,0.092709,-1.107808,0.107908
2.4182579999323934,2.4182579999323934,0.0,0.0,2.527021423857117,0.0,0.0,-9.66315411,-0.49038228,3.65360697,0.061394,-1.170549,-0.046847
2.4182579999323934,2.4182579999323934,0.0,0.0,2.5259070705244184,0.0,0.0,-9.66315411,-0.49038228,3.65360697,0.061394,-1.170549,-0.046847
2.4582289999816567,2.4582289999816567,0.0,0.0,2.525592061525149,0.0,0.0,-9.75671208,0.03338343,4.04698797,-0.014993,-1.144574,-0.04074
2.4782150000100955,2.4782150000100955,0.0,0.0,2.5269475852412997,0.0,0.0,-8.721315630000001,0.457146,3.7510497,-0.027935,-1.087937,0.076793
2.4981999999145046,2.4981999999145046,0.0,0.0,2.5266514137205736,0.0,0.0,-9.12696894,0.7493368499999999,3.8637666,0.032275,-1.108793,-0.019902
2.5181859999429435,2.5181859999429435,0.0,0.0,2.5266156025929956,0.0,0.0,-8.56743597,1.36410993,3.81646278,0.101807,-1.069435,-0.004094
2.5181859999429435,2.5181859999429435,0.0,0.0,2.526384668406335,0.0,0.0,-8.56743597,1.36410993,3.81646278,0.101807,-1.069435,-0.004094
2.5581569999922067,2.5581569999922067,0.0,0.0,2.5260909559843414,0.0,0.0,-8.40875922,0.89393625,3.99818322,0.223212,-0.994648,-0.029104
2.5781430000206456,2.5781430000206456,0.0,0.0,2.525685210629348,0.0,0.0,-8.788671090000001,0.48229884,4.57672797,0.240368,-0.94184,-0.024074
2.618112999945879,2.618112999945879,0.0,0.0,2.5258670169533675,0.0,0.0,-8.50126752,-0.29278926,5.56887213,0.163705,-1.031723,0.009183
2.638098999974318,2.638098999974318,0.0,0.0,2.5269496720961335,0.0,0.0,-8.2626687,-0.16495515,4.86952704,0.125074,-1.124569,0.056692
2.638098999974318,2.638098999974318,0.0,0.0,2.527735784439564,0.0,0.0,-8.2626687,-0.16495515,4.86952704,0.125074,-1.124569,0.056692
2.678070000023581,2.678070000023581,0.0,0.0,2.529109133460998,0.0,0.0,-8.00894286,0.76311009,5.01592167,0.078216,-1.33902,0.056021
2.6980559999356046,2.6980559999356046,0.0,0.0,2.530219636927887,0.0,0.0,-7.61331537,0.32811507,5.32053198,0.07833,-1.441342,0.058392
2.718040999956429,2.718040999956429,0.0,0.0,2.53170571936111,0.0,0.0,-7.560027450000001,0.26255484,5.6248578,0.093926,-1.473582,0.078688
2.718040999956429,2.718040999956429,0.0,0.0,2.5324313819387063,0.0,0.0,-7.560027450000001,0.26255484,5.6248578,0.093926,-1.473582,0.078688
2.718040999956429,2.718040999956429,0.0,0.0,2.5330002855569465,0.0,0.0,-7.560027450000001,0.26255484,5.6248578,0.093926,-1.473582,0.078688
2.777997999917716,2.777997999917716,0.0,0.0,2.5360573341861965,0.0,0.0,-6.73763553,0.5174775,6.78524346,0.1538,-1.407228,0.06895
2.7979839999461547,2.7979839999461547,0.0,0.0,2.5371726735244273,0.0,0.0,-6.70785237,0.46718163,7.07069484,0.169198,-1.405139,0.056878
2.7979839999461547,2.7979839999461547,0.0,0.0,2.537304458410375,0.0,0.0,-6.70785237,0.46718163,7.07069484,0.169198,-1.405139,0.056878
2.837954999995418,2.837954999995418,0.0,0.0,2.538667483755381,0.0,0.0,-6.49439658,0.81610371,7.106471910000001,0.227628,-1.365572,0.014667
2.8579410000238568,2.8579410000238568,0.0,0.0,2.539549928130562,0.0,0.0,-6.14471913,0.77298876,7.19538975,0.252972,-1.34156,0.044095
2.8779269999358803,2.8779269999358803,0.0,0.0,2.540841805536491,0.0,0.0,-5.805224460000001,0.43035489,7.418871360000001,0.246758,-1.378768,0.067353
2.897912999964319,2.897912999964319,0.0,0.0,2.543294223730989,0.0,0.0,-5.200781310000001,0.33889626,7.556132880000001,0.230014,-1.479629,0.132948
2.9178979999851435,2.9178979999851435,0.0,0.0,2.547020631814741,0.0,0.0,-5.270236110000001,0.6514428600000001,7.47395451,0.233818,-1.543191,0.204007
2.9378840000135824,2.9378840000135824,0.0,0.0,2.550484292328883,0.0,0.0,-5.3133510600000005,0.7695454500000001,7.64595324,0.238827,-1.627516,0.186492
2.957869999925606,2.957869999925606,0.0,0.0,2.5538594342044485,0.0,0.0,-5.05574046,1.015335,8.03603808,0.243102,-1.699833,0.179536
2.9778549999464303,2.9778549999464303,0.0,0.0,2.5566507626239634,0.0,0.0,-5.13148347,0.91744101,7.82961606,0.256078,-1.744597,0.144644
2.997840999974869,2.997840999974869,0.0,0.0,2.560155834097543,0.0,0.0,-4.01090679,0.9225324,8.354578590000001,0.2485,-1.818689,0.184736
3.017827000003308,3.017827000003308,0.0,0.0,2.563551152092276,0.0,0.0,-4.04983287,1.1091970800000002,8.85902841,0.226781,-1.830138,0.177091
3.017827000003308,3.017827000003308,0.0,0.0,2.564317269748015,0.0,0.0,-4.04983287,1.1091970800000002,8.85902841,0.226781,-1.830138,0.177091
3.057797999936156,3.057797999936156,0.0,0.0,2.569253887339727,0.0,0.0,-3.5341506000000003,1.05171048,9.35809254,0.121855,-1.858424,0.110848
3.077783999964595,3.077783999964595,0.0,0.0,2.5717871701236374,0.0,0.0,-2.9606972400000005,1.21247676,9.56930184,0.068789,-1.839528,0.126236
3.097768999985419,3.097768999985419,0.0,0.0,2.576108988590301,0.0,0.0,-1.84640877,1.46589849,9.69878403,0.005474,-1.760695,0.229211
3.117755000013858,3.117755000013858,0.0,0.0,2.580601417067678,0.0,0.0,-2.3336518500000003,1.15844328,10.35097245,-0.067913,-1.691543,0.237017
3.1377409999258816,3.1377409999258816,0.0,0.0,2.5855048540704964,0.0,0.0,-1.80644283,1.1883834,10.176442740000002,-0.138943,-1.597791,0.258785
3.1577269999543205,3.1577269999543205,0.0,0.0,2.590990537481362,0.0,0.0,-1.85883804,1.50422616,9.99831276,-0.123234,-1.456582,0.290232
3.177711999975145,3.177711999975145,0.0,0.0,2.597151131000775,0.0,0.0,-1.87350399,1.5989711400000002,9.94472073,-0.10712,-1.265667,0.326681
3.1976980000035837,3.1976980000035837,0.0,0.0,2.6014427577064865,0.0,0.0,-1.88936676,1.56739275,10.23975648,-0.185078,-0.981864,0.216336
3.2176839999156073,3.2176839999156073,0.0,0.0,2.604065122621863,0.0,0.0,-2.46836277,-0.39727557,22.591321470000004,-1.473942,-1.082319,0.12003
3.2376689999364316,3.2376689999364316,0.0,0.0,2.609723895664943,0.0,0.0,0.6692578200000001,2.70517617,-5.80388049,-0.44904,-0.611753,0.296494
3.2576549999648705,3.2576549999648705,0.0,0.0,2.615264499670344,0.0,0.0,0.39352815,1.7441689500000002,4.56385725,-0.297695,-0.413978,0.287664
3.2776409999933094,3.2776409999933094,0.0,0.0,2.617841698301735,0.0,0.0,0.83930436,0.8071177500000001,9.15540813,-0.297507,-0.566219,0.115485
3.2976270000217482,3.2976270000217482,0.0,0.0,2.617642411203322,0.0,0.0,-0.7831715400000001,-0.10492776,11.88169542,-0.397096,-0.600508,-0.042339
3.3176119999261573,3.3176119999261573,0.0,0.0,2.6178025388341224,0.0,0.0,-0.12349809,1.7098928100000002,9.93334113,-0.291521,-0.573908,-0.016744
3.337597999954596,3.337597999954596,0.0,0.0,2.618205745051159,0.0,0.0,-0.61147692,1.20409902,10.09650105,-0.254474,-0.512655,0.000987
3.357583999983035,3.357583999983035,0.0,0.0,2.6186645723877033,0.0,0.0,-0.30926025,0.58289058,10.09485297,-0.282701,-0.51036,0.007091
3.397554999915883,3.397554999915883,0.0,0.0,2.6201523491803513,0.0,0.0,-0.63527598,0.6168626100000001,10.14186249,-0.245335,-0.464299,-0.042843
3.417540999944322,3.417540999944322,0.0,0.0,2.5001261793436633,0.0,0.0,-0.48993102,0.75413394,9.60073308,-0.185934,-0.383403,-0.058851
3.4375269999727607,3.4375269999727607,0.0,0.0,2.378037076745251,0.0,0.0,-0.2459367,0.41389371,9.6136038,-0.15989,-0.339425,-0.061701
3.457511999993585,3.457511999993585,0.0,0.0,2.3776188732058428,0.0,0.0,-1.2467529000000002,0.98719992,10.34498835,-0.064237,-0.017218,-0.02853
3.477498000022024,3.477498000022024,0.0,0.0,2.376534163429392,0.0,0.0,0.18427104,-0.06885639,8.873547210000002,-0.012616,-0.086979,-0.064773
3.4974839999340475,3.4974839999340475,0.0,0.0,2.376660857021199,0.0,0.0,1.14302196,-0.13831119,8.983870470000001,0.007366,0.002311,0.004185
3.517468999954872,3.517468999954872,0.0,0.0,2.3773184378014838,0.0,0.0,0.4047606,0.00359046,9.16977978,0.009131,0.018039,0.034232
3.5374549999833107,3.5374549999833107,0.0,0.0,2.3773081182027047,0.0,0.0,-0.1793268,-0.29024847,9.41871834,0.013311,-0.008322,-0.003526
3.5574410000117496,3.5574410000117496,0.0,0.0,2.377894095555525,0.0,0.0,0.37960776,-0.42721569,9.8478666,0.008322,-0.016265,0.030517
3.577426999923773,3.577426999923773,0.0,0.0,2.378121276535105,0.0,0.0,0.01466595,-0.38335518,9.87691401,0.00102,-0.008363,0.010057
3.5974119999445975,3.5974119999445975,0.0,0.0,2.3783498467679873,0.0,0.0,0.1303749,-0.20252745,9.96103476,0.001106,-0.008631,0.010312
3.617398999980651,3.617398999980651,0.0,0.0,2.3783819272907687,0.0,0.0,-0.008829,-0.07184844,9.90325386,0.000147,-0.003931,-0.000703
3.617398999980651,3.617398999980651,0.0,0.0,2.3781216247212917,0.0,0.0,-0.008829,-0.07184844,9.90325386,0.000147,-0.003931,-0.000703
3.6573709999211133,3.6573709999211133,0.0,0.0,2.378233470226501,0.0,0.0,0.07020036,0.31359627,9.746235,0.005572,-0.001823,-0.011742
3.6773559999419376,3.6773559999419376,0.0,0.0,2.378160147194314,0.0,0.0,0.14010642,0.44367687,9.75910572,0.002514,-0.01405,-0.005726
3.697340999962762,3.697340999962762,0.0,0.0,2.378346971830325,0.0,0.0,0.16884972,0.36987624,9.79158663,0.00152,-0.015327,0.009487
3.7173279999988154,3.7173279999988154,0.0,0.0,2.3786849245971933,0.0,0.0,0.16211025,0.3097017,9.82062423,0.000655,-0.012325,0.018127
3.7373130000196397,3.7373130000196397,0.0,0.0,2.3789358556457163,0.0,0.0,0.16615197,0.34024023,9.79697232,0.002425,-0.001769,0.012956
3.7572989999316633,3.7572989999316633,0.0,0.0,2.3789641022049306,0.0,0.0,0.08487612,0.37347651,9.80895033,0.004478,-0.005002,0.00012
3.777284999960102,3.777284999960102,0.0,0.0,2.3789747392032403,0.0,0.0,0.08308089,0.4257147599999999,9.80341749,0.005373,0.000282,-0.000698
3.797270999988541,3.797270999988541,0.0,0.0,2.3789837847569633,0.0,0.0,0.15373251,0.51851736,9.76030254,0.001111,-0.001865,-0.000606
3.8172560000093654,3.8172560000093654,0.0,0.0,2.3791794880556285,0.0,0.0,0.27857457,0.48783168,9.84113694,0.002787,-0.001887,0.010275
3.837241999921389,3.837241999921389,0.0,0.0,2.379375634195318,0.0,0.0,0.11032326,0.48858705,9.71644203,0.003333,-0.003973,0.010228
3.857227999949828,3.857227999949828,0.0,0.0,2.3794096502464885,0.0,0.0,0.02858634,0.34862778,9.79533405,0.003873,0.001511,0.000846
3.8772139999782667,3.8772139999782667,0.0,0.0,2.379425508163054,0.0,0.0,0.15253569,0.28905165,9.82241946,0.002721,-0.00516,-7e-05
3.897198999999091,3.897198999999091,0.0,0.0,2.379565889356539,0.0,0.0,0.19414971,0.32751666,9.74219328,0.003019,0.004547,0.007222
3.91718500002753,3.91718500002753,0.0,0.0,2.3796671786210553,0.0,0.0,0.11451213,0.27647523,9.81538569,0.000679,-0.005077,0.004943
3.91718500002753,3.91718500002753,0.0,0.0,2.379654386425484,0.0,0.0,0.11451213,0.27647523,9.81538569,0.000679,-0.005077,0.004943
3.9371709999395534,3.9371709999395534,0.0,0.0,2.379718478292201,0.0,0.0,0.11106882,0.27243351,9.81134397,0.002567,0.002035,0.002504
3.9771419999888167,3.9771419999888167,0.0,0.0,2.3799614985684876,0.0,0.0,0.13472073,0.26105391,9.80041563,0.005287,-0.00072,0.007079
3.9971280000172555,3.9971280000172555,0.0,0.0,2.380053024184079,0.0,0.0,0.11211849,0.25611948,9.78470001,0.000356,-0.002702,0.004445
4.0370989999501035,4.0370989999501035,0.0,0.0,2.380291467502766,0.0,0.0,0.12977649,0.23096664,9.77646942,0.003614,-0.00644,0.006563
4.0370989999501035,4.0370989999501035,0.0,0.0,2.3803083621882806,0.0,0.0,0.12977649,0.23096664,9.77646942,0.003614,-0.00644,0.006563
4.077071000006981,4.077071000006981,0.0,0.0,2.380533629815421,0.0,0.0,0.12498921,0.21809592,9.77392863,0.003978,-0.004239,0.005566
4.097056999919005,4.097056999919005,0.0,0.0,2.3806461918350905,0.0,0.0,0.12034908,0.19310004,9.78141366,0.004505,0.000696,0.005629
4.117041999939829,4.117041999939829,0.0,0.0,2.380739476600384,0.0,0.0,0.13187583,0.21584943,9.78021684,0.001121,-0.000837,0.004593
4.1370269999606535,4.1370269999606535,0.0,0.0,2.380819451561546,0.0,0.0,0.12948219,0.20147778,9.76149936,0.004922,-7.1e-05,0.003875
4.157013999996707,4.157013999996707,0.0,0.0,2.380918031959429,0.0,0.0,0.11630736,0.19564083,9.78365034,0.002345,-0.000166,0.004899
4.177000000025146,4.177000000025146,0.0,0.0,2.3809975655472737,0.0,0.0,0.13142457,0.20941407,9.75776175,0.002058,0.000897,0.003855
4.196984999929555,4.196984999929555,0.0,0.0,2.381100885226277,0.0,0.0,0.14400099,0.21450546,9.76568823,0.005304,-0.002409,0.005182
4.216970999957994,4.216970999957994,0.0,0.0,2.381188955311085,0.0,0.0,0.12663729,0.23216346,9.77377167,0.002121,0.005074,0.004333
4.216970999957994,4.216970999957994,0.0,0.0,2.381178800096766,0.0,0.0,0.12663729,0.23216346,9.77377167,0.002121,0.005074,0.004333
4.256943000014871,4.256943000014871,0.0,0.0,2.3813804534435725,0.0,0.0,0.1332198,0.27662238,9.77751909,0.003919,0.002247,0.005229
4.27692799991928,4.27692799991928,0.0,0.0,2.3814739544354593,0.0,0.0,0.12962934,0.27707364,9.77482134,0.001382,-0.000612,0.004645
4.296913999947719,4.296913999947719,0.0,0.0,2.3815714136446484,0.0,0.0,0.13831119,0.31000581,9.77617512,0.003661,-0.001775,0.004873
4.316899999976158,4.316899999976158,0.0,0.0,2.381648321020588,0.0,0.0,0.13337676,0.30850488,9.77661657,0.002711,-0.000234,0.003709
4.3368849999969825,4.3368849999969825,0.0,0.0,2.381726174169577,0.0,0.0,0.14804271,0.31554846,9.77692068,0.003285,-0.000184,0.003782
4.356871000025421,4.356871000025421,0.0,0.0,2.38181442839418,0.0,0.0,0.1360647,0.3034233,9.77587101,0.004177,-0.00339,0.004389
4.376856999937445,4.376856999937445,0.0,0.0,2.3819069002606117,0.0,0.0,0.14190165,0.29893032,9.77541975,0.003311,0.002184,0.004633
4.396842999965884,4.396842999965884,0.0,0.0,2.3819902892591065,0.0,0.0,0.11975067,0.29278926,9.77182929,0.002729,-0.002935,0.004114
4.416827999986708,4.416827999986708,0.0,0.0,2.3814886201223153,0.0,0.0,-0.05299362,0.12948219,9.55942317,-0.014423,0.03199,-0.029294
4.436814000015147,4.436814000015147,0.0,0.0,2.3813429549108722,0.0,0.0,0.16974243,0.37871505,9.04464342,0.015679,-0.018736,-0.008337
4.456799999927171,4.456799999927171,0.0,0.0,2.382028634221534,0.0,0.0,0.40117014,0.28979721,9.90550035,0.00794,0.008965,0.039397
4.476785999955609,4.476785999955609,0.0,0.0,2.382671787294692,0.0,0.0,0.14833701,0.24444558,10.09410741,-0.012037,0.002839,0.036222
4.496770999976434,4.496770999976434,0.0,0.0,2.3830368487437683,0.0,0.0,0.12469491,0.56088675,9.40659318,0.016838,-0.003055,0.01969
4.516757000004873,4.516757000004873,0.0,0.0,2.3829688063897,0.0,0.0,-0.03682674,0.23381154,10.1194074,0.002603,0.000871,-0.005365
4.516757000004873,4.516757000004873,0.0,0.0,2.382763697983272,0.0,0.0,-0.03682674,0.23381154,10.1194074,0.002603,0.000871,-0.005365
4.556728999945335,4.556728999945335,0.0,0.0,2.382990169117745,0.0,0.0,0.24923286,0.3501189,9.68156748,0.010259,0.000464,0.004706
4.5767139999661595,4.5767139999661595,0.0,0.0,2.3832115961576434,0.0,0.0,0.25925868,0.17139051,9.98258733,-0.001581,-0.005819,0.011824
4.596699999994598,4.596699999994598,0.0,0.0,2.383470472199601,0.0,0.0,0.18112203,0.292338,9.7317162,0.004189,-0.000164,0.013864
4.616685000015423,4.616685000015423,0.0,0.0,2.383453297176157,0.0,0.0,-0.08188407,0.1966905,9.82856052,0.005182,0.002639,-0.002176
4.636670999927446,4.636670999927446,0.0,0.0,2.3835125004863134,0.0,0.0,0.27273762,0.23007393,9.84577707,0.001307,-0.003914,0.002425
4.656655999948271,4.656655999948271,0.0,0.0,2.383653763537798,0.0,0.0,0.14280417,0.25222491,9.75940983,0.003639,-0.001914,0.007233
4.6766419999767095,4.6766419999767095,0.0,0.0,2.3837346002979434,0.0,0.0,0.07439904,0.23096664,9.81074556,0.006057,-0.0003,0.003728
4.696628000005148,4.696628000005148,0.0,0.0,2.383811630183218,0.0,0.0,0.1910007,0.25207776,9.81389457,-0.000202,0.000774,0.003557
4.736598999937996,4.736598999937996,0.0,0.0,2.384017731257403,0.0,0.0,0.13127742,0.25207776,9.84592422,0.001292,-0.002725,0.004763
4.756584999966435,4.756584999966435,0.0,0.0,2.3841299972703585,0.0,0.0,0.12888378,0.3198844799999999,9.73844586,0.00306,0.001663,0.005627
4.776570999994874,4.776570999994874,0.0,0.0,2.384218072867654,0.0,0.0,0.12544047,0.28965006,9.80086689,0.005406,-0.000902,0.004345
4.796556000015698,4.796556000015698,0.0,0.0,2.3843301593753985,0.0,0.0,0.14804271,0.2951829,9.80865603,0.001513,-0.001325,0.005631
4.816541999927722,4.816541999927722,0.0,0.0,2.3844325675139446,0.0,0.0,0.1067328,0.32167971,9.75671208,0.003347,0.000256,0.005107
4.816541999927722,4.816541999927722,0.0,0.0,2.384429341486694,0.0,0.0,0.1067328,0.32167971,9.75671208,0.003347,0.000256,0.005107
4.816541999927722,4.816541999927722,0.0,0.0,2.384426807127128,0.0,0.0,0.1067328,0.32167971,9.75671208,0.003347,0.000256,0.005107
4.8765000000130385,4.8765000000130385,0.0,0.0,2.3847477397823873,0.0,0.0,0.1064286899999999,0.29697813,9.75416148,0.004323,-0.002946,0.005563
4.896484999917448,4.896484999917448,0.0,0.0,2.3848230575541685,0.0,0.0,0.12993345,0.26629245,9.77646942,0.005193,-0.000216,0.00359
4.916470999945886,4.916470999945886,0.0,0.0,2.3849228052416187,0.0,0.0,0.14654178,0.28829628,9.75446559,0.002655,7.1e-05,0.004982
4.936456999974325,4.936456999974325,0.0,0.0,2.385002994492986,0.0,0.0,0.13307265,0.24578955,9.80041563,0.005865,-0.002187,0.003884
4.95644199999515,4.95644199999515,0.0,0.0,2.385087296612449,0.0,0.0,0.12693159,0.24773193,9.80176941,0.002262,0.001051,0.004133
4.9764280000235885,4.9764280000235885,0.0,0.0,2.385162640314399,0.0,0.0,0.13876245,0.26255484,9.77003406,0.003221,-0.000126,0.003638
4.996413999935612,4.996413999935612,0.0,0.0,2.385251339116097,0.0,0.0,0.13651596,0.24160068,9.79443153,0.00453,-0.002014,0.004412
5.016399999964051,5.016399999964051,0.0,0.0,2.385310736969493,0.0,0.0,0.12498921,0.26030835,9.7784118,0.002082,0.001708,0.002753
5.036384999984875,5.036384999984875,0.0,0.0,2.3853903399345837,0.0,0.0,0.12903093,0.2650956299999999,9.75970413,0.00434,-0.002651,0.003932
5.056371000013314,5.056371000013314,0.0,0.0,2.385447429891432,0.0,0.0,0.12993345,0.26210358,9.78725061,0.005049,-0.000513,0.002657
5.076356999925338,5.076356999925338,0.0,0.0,2.3855190042867527,0.0,0.0,0.13950801,0.27797616,9.79712928,0.001402,0.001433,0.003511
5.096342999953777,5.096342999953777,0.0,0.0,2.3856205108136255,0.0,0.0,0.13696722,0.2894931,9.78170796,0.00539,-0.003387,0.00523
5.116327999974601,5.116327999974601,0.0,0.0,2.3857154985290263,0.0,0.0,0.13472073,0.28021284,9.80311338,0.003614,0.002212,0.004836
5.116327999974601,5.116327999974601,0.0,0.0,2.385724433680805,0.0,0.0,0.13472073,0.28021284,9.80311338,0.003614,0.002212,0.004836
5.156299999915063,5.156299999915063,0.0,0.0,2.3858809694084293,0.0,0.0,0.1300806,0.28425456,9.8043102,0.005207,-0.001476,0.003385
5.176285999943502,5.176285999943502,0.0,0.0,2.3859569380870855,0.0,0.0,0.13756563,0.29443734,9.78964425,0.003193,0.002466,0.003742
5.196270999964327,5.196270999964327,0.0,0.0,2.3860296296329704,0.0,0.0,0.13651596,0.27363033,9.79457868,0.003606,-0.001992,0.003563
5.196270999964327,5.196270999964327,0.0,0.0,2.386022007297538,0.0,0.0,0.13651596,0.27363033,9.79457868,0.003606,-0.001992,0.003563
5.236243000021204,5.236243000021204,0.0,0.0,2.386164962063159,0.0,0.0,0.12993345,0.27841761,9.7812567,0.000825,0.000915,0.003021
5.256228999933228,5.256228999933228,0.0,0.0,2.386280843937193,0.0,0.0,0.1300806,0.26839179,9.80385894,0.00371,-0.001662,0.006093
5.276214999961667,5.276214999961667,0.0,0.0,2.386337968273506,0.0,0.0,0.13337676,0.26075961,9.79847325,0.002451,0.001154,0.002659
5.296199999982491,5.296199999982491,0.0,0.0,2.3864340967710325,0.0,0.0,0.14205861,0.26001405,9.78934014,0.002834,0.002435,0.004938
5.31618600001093,5.31618600001093,0.0,0.0,2.3865219995523077,0.0,0.0,0.12349809,0.25985709,9.81299205,0.004883,-0.002891,0.004444
5.3361719999229535,5.3361719999229535,0.0,0.0,2.3866038442069684,0.0,0.0,0.12214431,0.26105391,9.81030411,0.002571,0.002167,0.004088
5.356156999943778,5.356156999943778,0.0,0.0,2.386710981398007,0.0,0.0,0.13621185,0.2778192,9.77692068,0.00467,-0.000994,0.005546
5.376142999972217,5.376142999972217,0.0,0.0,2.3867975865622473,0.0,0.0,0.12469491,0.2689902,9.79727643,0.004892,-0.001957,0.004335
5.396129000000656,5.396129000000656,0.0,0.0,2.3868803240951744,0.0,0.0,0.12589173,0.26853894,9.7986204,0.00061,0.001372,0.004112
5.4161150000290945,5.4161150000290945,0.0,0.0,2.3869695343699737,0.0,0.0,0.12753,0.2806641,9.76988691,0.004229,-0.002655,0.004489
5.4161150000290945,5.4161150000290945,0.0,0.0,2.386972107336743,0.0,0.0,0.12753,0.2806641,9.76988691,0.004229,-0.002655,0.004489
5.456085999961942,5.456085999961942,0.0,0.0,2.3871507878023177,0.0,0.0,0.1360647,0.28201788,9.79981722,0.002222,0.001704,0.00464
5.476071999990381,5.476071999990381,0.0,0.0,2.3872422938628945,0.0,0.0,0.13232709,0.28575549,9.77257485,0.004256,-0.002508,0.004609
5.49605800001882,5.49605800001882,0.0,0.0,2.3873095477410686,0.0,0.0,0.13816404,0.26808768,9.780658290000002,0.001215,0.002344,0.003204
5.516043999930844,5.516043999930844,0.0,0.0,2.387389185944641,0.0,0.0,0.13936086,0.27841761,9.79473564,0.002504,-0.00025,0.003944
5.536028999951668,5.536028999951668,0.0,0.0,2.3874765980831834,0.0,0.0,0.13232709,0.28006569,9.78545538,0.003693,-0.001117,0.004399
5.576001000008546,5.576001000008546,0.0,0.0,2.3876672114691706,0.0,0.0,0.1360647,0.27991854,9.79129233,0.004626,-0.001801,0.00534
5.595986999920569,5.595986999920569,0.0,0.0,2.387735452677279,0.0,0.0,0.13621185,0.26674371,9.78620094,0.00274,0.000941,0.003367
5.615971999941394,5.615971999941394,0.0,0.0,2.3878088138543134,0.0,0.0,0.1357704,0.27482715,9.78424875,0.002449,-0.000564,0.003636
5.635957999969833,5.635957999969833,0.0,0.0,2.3878833375491,0.0,0.0,0.12857967,0.25282332,9.79562835,0.004976,-0.001548,0.003698
5.6559439999982715,5.6559439999982715,0.0,0.0,2.387944226171202,0.0,0.0,0.12199716,0.2718351,9.768533130000002,0.002374,0.002168,0.002962
5.67593000002671,5.67593000002671,0.0,0.0,2.3879988762711095,0.0,0.0,0.13831119,0.28725642,9.7695828,0.004599,0.000113,0.002627
5.695914999931119,5.695914999931119,0.0,0.0,2.3880938994727785,0.0,0.0,0.12424365,0.27168795,9.78889869,0.004137,-0.000501,0.00485
5.715900999959558,5.715900999959558,0.0,0.0,2.388160959038692,0.0,0.0,0.13785993,0.27273762,9.77931432,0.002664,0.004586,0.003298
5.715900999959558,5.715900999959558,0.0,0.0,2.388152468037142,0.0,0.0,0.13785993,0.27273762,9.77931432,0.002664,0.004586,0.003298
5.715900999959558,5.715900999959558,0.0,0.0,2.3881457695660355,0.0,0.0,0.13785993,0.27273762,9.77931432,0.002664,0.004586,0.003298
5.775857999920845,5.775857999920845,0.0,0.0,2.3883945405581413,0.0,0.0,0.13277835,0.28261629,9.7752726,0.003814,0.001004,0.005181
5.795843999949284,5.795843999949284,0.0,0.0,2.3885102504743454,0.0,0.0,0.12993345,0.26764623,9.79787484,0.002739,-0.002367,0.006034
5.815829999977723,5.815829999977723,0.0,0.0,2.3885804392170087,0.0,0.0,0.13022775,0.28245933,9.77512545,0.002767,0.001642,0.003418
5.835816000006162,5.835816000006162,0.0,0.0,2.3886710881334796,0.0,0.0,0.12618603,0.26075961,9.80640954,0.001286,-0.001413,0.004593
5.855801999918185,5.855801999918185,0.0,0.0,2.388731924484592,0.0,0.0,0.14280417,0.27468,9.78889869,0.004778,0.000108,0.00289
5.8757869999390095,5.8757869999390095,0.0,0.0,2.388813571764622,0.0,0.0,0.12274272,0.2860596,9.77317326,0.001908,0.002114,0.004097
5.895772999967448,5.895772999967448,0.0,0.0,2.388879217330505,0.0,0.0,0.12393954,0.26554689,9.78245352,0.004005,-0.002285,0.003183
5.915758999995887,5.915758999995887,0.0,0.0,2.38895137065038,0.0,0.0,0.14070483,0.27722079,9.78305193,0.001742,0.001187,0.003569
5.935745000024326,5.935745000024326,0.0,0.0,2.3890382801317624,0.0,0.0,0.13801689,0.28709946,9.77572386,0.002933,0.001113,0.004418
5.955729999928735,5.955729999928735,0.0,0.0,2.389119066728174,0.0,0.0,0.12484206,0.26344755,9.76195062,0.004187,-0.00229,0.004058
5.975715999957174,5.975715999957174,0.0,0.0,2.389224354712228,0.0,0.0,0.13367106,0.27707364,9.77377167,0.002455,0.000837,0.005458
5.995701999985613,5.995701999985613,0.0,0.0,2.389340826889301,0.0,0.0,0.12364524,0.27422874,9.77721498,0.002174,-0.000317,0.006071
6.015688000014052,6.015688000014052,0.0,0.0,2.3894283197855337,0.0,0.0,0.13307265,0.265851,9.76913154,0.002348,-0.002303,0.004374
6.015688000014052,6.015688000014052,0.0,0.0,2.389427929899215,0.0,0.0,0.13307265,0.265851,9.76913154,0.002348,-0.002303,0.004374
6.0556589999469,6.0556589999469,0.0,0.0,2.3896027306487504,0.0,0.0,0.13771278,0.283509,9.77168214,0.004302,-0.001614,0.004343
6.075644999975339,6.075644999975339,0.0,0.0,2.3896761782652236,0.0,0.0,0.12513636,0.27168795,9.77677353,0.002663,3.4e-05,0.003567
6.0956310000037774,6.0956310000037774,0.0,0.0,2.3897393286933166,0.0,0.0,0.13307265,0.2650956299999999,9.79173378,0.00179,0.00045,0.002991
6.115616999915801,6.115616999915801,0.0,0.0,2.389814652400993,0.0,0.0,0.13172868,0.27049113,9.780511140000002,0.003985,-0.002996,0.003718
6.135601999936625,6.135601999936625,0.0,0.0,2.3899044452795337,0.0,0.0,0.12933504,0.28365615,9.75596652,0.002179,0.001913,0.004559
6.155587999965064,6.155587999965064,0.0,0.0,2.38997268609966,0.0,0.0,0.12364524,0.2650956299999999,9.78440571,0.00334,-1.7e-05,0.003308
6.175573999993503,6.175573999993503,0.0,0.0,2.390053482257847,0.0,0.0,0.13142457,0.29668383,9.780658290000002,0.004735,-0.00139,0.004047
6.2155459999339655,6.2155459999339655,0.0,0.0,2.390242875397403,0.0,0.0,0.1357704,0.27737775,9.78725061,0.00241,-0.003261,0.005507
6.23553099995479,6.23553099995479,0.0,0.0,2.3903255672533277,0.0,0.0,0.1417545,0.27737775,9.77362452,0.002654,-0.000547,0.004133
6.255516999983229,6.255516999983229,0.0,0.0,2.3903996664225984,0.0,0.0,0.13053186,0.27288477,9.77228055,0.002647,-0.000863,0.003677
6.255516999983229,6.255516999983229,0.0,0.0,2.390391912013216,0.0,0.0,0.13053186,0.27288477,9.77228055,0.002647,-0.000863,0.003677
6.295488999923691,6.295488999923691,0.0,0.0,2.3905641577993384,0.0,0.0,0.13067901,0.27348318,9.75760479,0.002653,0.00088,0.004567
6.3154739999445155,6.3154739999445155,0.0,0.0,2.390623817816021,0.0,0.0,0.12288987,0.27722079,9.77467419,0.0044,-0.000397,0.002879
6.3154739999445155,6.3154739999445155,0.0,0.0,2.3906061081237198,0.0,0.0,0.12288987,0.27722079,9.77467419,0.0044,-0.000397,0.002879
6.3154739999445155,6.3154739999445155,0.0,0.0,2.390592229264521,0.0,0.0,0.12288987,0.27722079,9.77467419,0.0044,-0.000397,0.002879
6.375431999913417,6.375431999913417,0.0,0.0,2.3908087021024693,0.0,0.0,0.14385384,0.27632808,9.78275763,0.00467,-0.001013,0.003302
6.395417999941856,6.395417999941856,0.0,0.0,2.3908838481225434,0.0,0.0,0.13352391,0.27677934,9.77901021,0.004286,-0.000404,0.00377
6.41540299996268,6.41540299996268,0.0,0.0,2.390942480760799,0.0,0.0,0.12753,0.27602397,9.78185511,0.003572,0.000646,0.002839
6.435388999991119,6.435388999991119,0.0,0.0,2.3910329038987204,0.0,0.0,0.14445225,0.27377748,9.79488279,0.004555,-0.003883,0.004646
6.455375000019558,6.455375000019558,0.0,0.0,2.3911121843229726,0.0,0.0,0.13381821,0.26659656,9.78021684,0.001672,0.002285,0.003999
6.475360999931581,6.475360999931581,0.0,0.0,2.3911678091178086,0.0,0.0,0.13457358,0.27737775,9.77572386,0.002973,-0.000343,0.002654
6.475360999931581,6.475360999931581,0.0,0.0,2.3911529561257545,0.0,0.0,0.13457358,0.27737775,9.77572386,0.002973,-0.000343,0.002654
6.515331999980845,6.515331999980845,0.0,0.0,2.391306701379836,0.0,0.0,0.1300806,0.26375166,9.78679935,0.002773,0.00285,0.004296
6.535318000009283,6.535318000009283,0.0,0.0,2.3914150768730256,0.0,0.0,0.13531914,0.2749743,9.79053696,0.00476,-0.002747,0.00568
6.555303999921307,6.555303999921307,0.0,0.0,2.3915100634544233,0.0,0.0,0.12917808,0.27258066,9.796373910000002,0.003512,0.001301,0.004876
6.575289999949746,6.575289999949746,0.0,0.0,2.391569288311713,0.0,0.0,0.1300806,0.26913735,9.80191656,0.001009,-0.000676,0.002812
6.59527499997057,6.59527499997057,0.0,0.0,2.391646303272685,0.0,0.0,0.13696722,0.27482715,9.7784118,0.004194,-0.002613,0.003853
6.615260999999009,6.615260999999009,0.0,0.0,2.391722395162608,0.0,0.0,0.13785993,0.27513126,9.78290478,0.002343,0.001568,0.0038
6.615260999999009,6.615260999999009,0.0,0.0,2.391721628354869,0.0,0.0,0.13785993,0.27513126,9.78290478,0.002343,0.001568,0.0038
6.635247999918647,6.635247999918647,0.0,0.0,2.391805701422597,0.0,0.0,0.13517199,0.25866027,9.79189074,0.004131,-0.001196,0.004308
6.67521899996791,6.67521899996791,0.0,0.0,2.391974986999216,0.0,0.0,0.13711437,0.28186092,9.77541975,0.001094,0.002844,0.004661
6.695204999996349,6.695204999996349,0.0,0.0,2.392082451731799,0.0,0.0,0.15103476,0.27797616,9.77632227,0.005333,-0.001565,0.005564
6.715191000024788,6.715191000024788,0.0,0.0,2.392190400330607,0.0,0.0,0.11750418,0.26525259,9.76704201,0.005333,-0.001565,0.005564
6.7551629999652505,6.7551629999652505,0.0,0.0,2.3923288896757997,0.0,0.0,0.13202298,0.27063828,9.77108373,0.003844,-0.001452,0.002487
6.775147999986075,6.775147999986075,0.0,0.0,2.3924184137832185,0.0,0.0,0.1329255,0.27797616,9.74547963,0.003653,0.0012,0.004493
6.775147999986075,6.775147999986075,0.0,0.0,2.3924238544113123,0.0,0.0,0.1329255,0.27797616,9.74547963,0.003653,0.0012,0.004493
6.815119999926537,6.815119999926537,0.0,0.0,2.392557806169439,0.0,0.0,0.13666311,0.27677934,9.78709365,0.005295,-4.2e-05,0.00238
6.835105999954976,6.835105999954976,0.0,0.0,2.3926181551520234,0.0,0.0,0.12708855,0.27303192,9.75745764,0.001668,0.001639,0.00295
6.855091999983415,6.855091999983415,0.0,0.0,2.392632685202231,0.0,0.0,0.13217994,0.2689902,9.78170796,0.003471,-0.001512,0.000469
6.855091999983415,6.855091999983415,0.0,0.0,2.3925860040639613,0.0,0.0,0.13217994,0.2689902,9.78170796,0.003471,-0.001512,0.000469
6.895062999916263,6.895062999916263,0.0,0.0,2.3927108523369407,0.0,0.0,0.12888378,0.27557271,9.77333022,0.002638,0.002396,0.003272
6.915048999944702,6.915048999944702,0.0,0.0,2.3928129334633654,0.0,0.0,0.13232709,0.27049113,9.80086689,0.005006,-0.003468,0.005331
6.915048999944702,6.915048999944702,0.0,0.0,2.3928443303526628,0.0,0.0,0.13232709,0.27049113,9.80086689,0.005006,-0.003468,0.005331
6.915048999944702,6.915048999944702,0.0,0.0,2.3928689745671,0.0,0.0,0.13232709,0.27049113,9.80086689,0.005006,-0.003468,0.005331
6.975006000022404,6.975006000022404,0.0,0.0,2.393097031999594,0.0,0.0,0.12229146,0.26569404,9.77437008,0.005589,-0.002528,0.003866
6.994991999934427,6.994991999934427,0.0,0.0,2.393187311349684,0.0,0.0,0.12484206,0.26270199,9.78320889,0.001855,2.3e-05,0.004614
7.014977999962866,7.014977999962866,0.0,0.0,2.393271348732954,0.0,0.0,0.12199716,0.25940583,9.780815250000002,0.005372,-0.003189,0.004245
7.034963999991305,7.034963999991305,0.0,0.0,2.3933548576079495,0.0,0.0,0.12828537,0.26480133,9.78350319,0.003465,0.000621,0.004209
7.0549490000121295,7.0549490000121295,0.0,0.0,2.393422027695049,0.0,0.0,0.12005478,0.27617112,9.78424875,0.002021,-0.000545,0.003275
7.074934999924153,7.074934999924153,0.0,0.0,2.393521014853814,0.0,0.0,0.1357704,0.2689902,9.82272357,0.004916,-0.004307,0.0051
7.094920999952592,7.094920999952592,0.0,0.0,2.393603107407678,0.0,0.0,0.13053186,0.26944146,9.79758054,0.003546,0.003041,0.004115
7.094920999952592,7.094920999952592,0.0,0.0,2.393603925182214,0.0,0.0,0.13053186,0.26944146,9.79758054,0.003546,0.003041,0.004115
7.13489300000947,7.13489300000947,0.0,0.0,2.3937555079886117,0.0,0.0,0.14130324,0.26494848,9.79098822,0.004967,-0.002326,0.003435
7.154877999913879,7.154877999913879,0.0,0.0,2.393849448484258,0.0,0.0,0.12993345,0.28216503,9.80162226,0.001133,0.002066,0.004806
7.174863999942318,7.174863999942318,0.0,0.0,2.393914279605138,0.0,0.0,0.11645451,0.27003987,9.77063247,0.003163,-0.00407,0.003119
7.1948499999707565,7.1948499999707565,0.0,0.0,2.393987576663429,0.0,0.0,0.12843252,0.27602397,9.79248915,0.003911,0.000938,0.003624
7.214835999999195,7.214835999999195,0.0,0.0,2.3940608112781314,0.0,0.0,0.13711437,0.27303192,9.78919299,0.000737,0.001353,0.003627
7.214835999999195,7.214835999999195,0.0,0.0,2.3940569452868132,0.0,0.0,0.13711437,0.27303192,9.78919299,0.000737,0.001353,0.003627
7.254806999932043,7.254806999932043,0.0,0.0,2.3942033895988653,0.0,0.0,0.13426947,0.27393444,9.7610481,0.001967,0.002119,0.003422
7.274792999960482,7.274792999960482,0.0,0.0,2.3942694576443415,0.0,0.0,0.13142457,0.26808768,9.7784118,0.00328,-0.001549,0.003232
7.294778999988921,7.294778999988921,0.0,0.0,2.3943667229437784,0.0,0.0,0.13457358,0.26360451,9.7838073,0.004883,-0.00027,0.005041
7.31476500001736,7.31476500001736,0.0,0.0,2.394440049634639,0.0,0.0,0.12873663,0.28410741,9.78814332,0.000585,0.001237,0.003635
7.334749999921769,7.334749999921769,0.0,0.0,2.3945274342423417,0.0,0.0,0.13801689,0.28245933,9.77946147,0.004049,-0.000953,0.00445
7.354735999950208,7.354735999950208,0.0,0.0,2.3945943455184704,0.0,0.0,0.1357704,0.28111536,9.78395445,0.003496,0.000306,0.003259
7.3947080000070855,7.3947080000070855,0.0,0.0,2.39476738332708,0.0,0.0,0.14340258,0.2630061,9.77228055,0.004132,-0.000552,0.004843
7.414693999919109,7.414693999919109,0.0,0.0,2.3948239419611443,0.0,0.0,0.12544047,0.27138384,9.75596652,0.002558,0.002006,0.002775
7.414693999919109,7.414693999919109,0.0,0.0,2.3948065083376378,0.0,0.0,0.12544047,0.27138384,9.75596652,0.002558,0.002006,0.002775
7.454664999968372,7.454664999968372,0.0,0.0,2.394984028170862,0.0,0.0,0.13142457,0.28186092,9.78185511,0.004644,-0.002263,0.005304
7.474650999996811,7.474650999996811,0.0,0.0,2.395062369707288,0.0,0.0,0.12589173,0.27138384,9.76823883,0.003365,0.001688,0.00392
7.49463700002525,7.49463700002525,0.0,0.0,2.395122578954254,0.0,0.0,0.12857967,0.28245933,9.7869465,0.005938,-0.003219,0.002931
7.514622999937274,7.514622999937274,0.0,0.0,2.395214358600069,0.0,0.0,0.12903093,0.26165232,9.796373910000002,0.003234,-0.000103,0.004671
7.514622999937274,7.514622999937274,0.0,0.0,2.3952266690670303,0.0,0.0,0.12903093,0.26165232,9.796373910000002,0.003234,-0.000103,0.004671
7.514622999937274,7.514622999937274,0.0,0.0,2.3952363472888543,0.0,0.0,0.12903093,0.26165232,9.796373910000002,0.003234,-0.000103,0.004671
7.574580000014976,7.574580000014976,0.0,0.0,2.395492785522462,0.0,0.0,0.12259557,0.27049113,9.78679935,0.002526,0.001545,0.004775
7.594565999926999,7.594565999926999,0.0,0.0,2.3955724000384944,0.0,0.0,0.13666311,0.28216503,9.78889869,0.003645,-0.001254,0.00396
7.614550999947824,7.614550999947824,0.0,0.0,2.395650127509903,0.0,0.0,0.13682007,0.27841761,9.77946147,0.004273,-0.003219,0.003857
7.6345369999762625,7.6345369999762625,0.0,0.0,2.395743024127028,0.0,0.0,0.13053186,0.27093258,9.78829047,0.002157,0.002185,0.00472
7.654523000004701,7.654523000004701,0.0,0.0,2.395809647764139,0.0,0.0,0.12917808,0.27557271,9.780815250000002,0.002839,-0.001835,0.00322
7.674508999916725,7.674508999916725,0.0,0.0,2.395879774409977,0.0,0.0,0.12469491,0.28096821,9.77991273,0.005239,0.000491,0.003435
7.694494999945164,7.694494999945164,0.0,0.0,2.3959542350535834,0.0,0.0,0.1477386,0.26435007,9.79203789,0.003,0.001294,0.003692
7.694494999945164,7.694494999945164,0.0,0.0,2.3959504860325067,0.0,0.0,0.1477386,0.26435007,9.79203789,0.003,0.001294,0.003692
7.734465999994427,7.734465999994427,0.0,0.0,2.396097691427057,0.0,0.0,0.12993345,0.28276344,9.78036399,0.00302,0.001602,0.003396
7.754452000022866,7.754452000022866,0.0,0.0,2.3961768362132965,0.0,0.0,0.12469491,0.28530423,9.77018121,0.00258,-0.001887,0.003978
7.754452000022866,7.754452000022866,0.0,0.0,2.396178726900107,0.0,0.0,0.12469491,0.28530423,9.77018121,0.00258,-0.001887,0.003978
7.754452000022866,7.754452000022866,0.0,0.0,2.3961802150906095,0.0,0.0,0.12469491,0.28530423,9.77018121,0.00258,-0.001887,0.003978
7.794423999963328,7.794423999963328,0.0,0.0,2.3963485062146095,0.0,0.0,0.13816404,0.26839179,9.77197644,0.001229,0.00264,0.004719
7.814408999984153,7.814408999984153,0.0,0.0,2.396451518305579,0.0,0.0,0.12484206,0.26808768,9.77960862,0.003736,-0.001468,0.005454
7.8343950000125915,7.8343950000125915,0.0,0.0,2.3965131115437863,0.0,0.0,0.1357704,0.26884305,9.780511140000002,0.002214,6.3e-05,0.002816
7.874366999953054,7.874366999953054,0.0,0.0,2.3966733968099767,0.0,0.0,0.12544047,0.27662238,9.77856876,0.004021,-0.003393,0.004021
7.894352999981493,7.894352999981493,0.0,0.0,2.3967582500591007,0.0,0.0,0.13801689,0.26480133,9.77797035,0.003745,7.1e-05,0.004271
7.914338000002317,7.914338000002317,0.0,0.0,2.3968441611021367,0.0,0.0,0.13816404,0.27198225,9.79069392,0.003023,-0.000381,0.004327
7.934323999914341,7.934323999914341,0.0,0.0,2.3969313741935085,0.0,0.0,0.13546629,0.27108954,9.77797035,0.00604,-0.002317,0.004396
7.9543099999427795,7.9543099999427795,0.0,0.0,2.3969849204762994,0.0,0.0,0.12783411,0.27977139,9.79203789,0.002381,0.00174,0.002508
7.974295999971218,7.974295999971218,0.0,0.0,2.397062484541637,0.0,0.0,0.13082616,0.27827046,9.77946147,0.0042,-0.001774,0.003878
7.994281999999657,7.994281999999657,0.0,0.0,2.397167509014401,0.0,0.0,0.12484206,0.27108954,9.77362452,0.004242,-0.00031,0.005425
8.014267000020482,8.014267000020482,0.0,0.0,2.3972511243888537,0.0,0.0,0.13845834,0.26001405,9.78529842,0.001478,0.001636,0.004194
8.054238999960944,8.054238999960944,0.0,0.0,2.397383157863855,0.0,0.0,0.14280417,0.27857457,9.768690090000002,0.002509,0.000844,0.00246
8.054238999960944,8.054238999960944,0.0,0.0,2.3973589967791167,0.0,0.0,0.14280417,0.27857457,9.768690090000002,0.002509,0.000844,0.00246
8.094211000017822,8.094211000017822,0.0,0.0,2.39749770547228,0.0,0.0,0.1184067,0.28425456,9.77152518,0.00521,-0.001734,0.003228
8.094211000017822,8.094211000017822,0.0,0.0,2.3974911218008916,0.0,0.0,0.1184067,0.28425456,9.77152518,0.00521,-0.001734,0.003228
8.114196999929845,8.114196999929845,0.0,0.0,2.397593110477578,0.0,0.0,0.13591755,0.26284914,9.78305193,0.001597,0.00263,0.005402
8.114196999929845,8.114196999929845,0.0,0.0,2.3976167609431798,0.0,0.0,0.13591755,0.26284914,9.78305193,0.001597,0.00263,0.005402
8.174154000007547,8.174154000007547,0.0,0.0,2.3978877063623676,0.0,0.0,0.12857967,0.26030835,9.78964425,7.8e-05,0.000985,0.005718
8.194139999919571,8.194139999919571,0.0,0.0,2.3979949818557973,0.0,0.0,0.13651596,0.27273762,9.78275763,0.003414,-0.002765,0.005471
8.21412599994801,8.21412599994801,0.0,0.0,2.39806403040145,0.0,0.0,0.14100894,0.26973576,9.76599234,0.003376,0.000847,0.00336
8.234110999968834,8.234110999968834,0.0,0.0,2.3981553572915484,0.0,0.0,0.13113027,0.26734212,9.77781339,0.002257,-1.3e-05,0.004601
8.254096999997273,8.254096999997273,0.0,0.0,2.398231908086565,0.0,0.0,0.13666311,0.2689902,9.78455286,0.005117,-0.001922,0.003777
8.274083000025712,8.274083000025712,0.0,0.0,2.3982921733738607,0.0,0.0,0.14534496,0.28800198,9.79053696,0.002788,0.00262,0.002875
8.294068999937735,8.294068999937735,0.0,0.0,2.3983963195020293,0.0,0.0,0.13172868,0.27437589,9.78605379,0.002554,-0.001657,0.005348
8.314054999966174,8.314054999966174,0.0,0.0,2.398483051486764,0.0,0.0,0.13531914,0.26764623,9.8043102,0.003824,-0.001116,0.004353
8.334039999986999,8.334039999986999,0.0,0.0,2.3985577943834837,0.0,0.0,0.13217994,0.27977139,9.79158663,0.001271,0.002789,0.003676
8.354026000015438,8.354026000015438,0.0,0.0,2.3986939674666683,0.0,0.0,0.12498921,0.28620675,9.78874173,0.005689,-0.003328,0.007155
8.374011999927461,8.374011999927461,0.0,0.0,2.398800181133776,0.0,0.0,0.13247424,0.2718351,9.78993855,0.002762,0.000171,0.005413
8.374011999927461,8.374011999927461,0.0,0.0,2.398811611985586,0.0,0.0,0.13247424,0.2718351,9.78993855,0.002762,0.000171,0.005413
8.413983999984339,8.413983999984339,0.0,0.0,2.3989745716809177,0.0,0.0,0.13157172,0.27288477,9.78829047,0.004983,-0.003772,0.003194
8.413983999984339,8.413983999984339,0.0,0.0,2.3989536232825195,0.0,0.0,0.13157172,0.27288477,9.78829047,0.004983,-0.003772,0.003194
8.433970000012778,8.433970000012778,0.0,0.0,2.3990409861810136,0.0,0.0,0.13876245,0.27018702,9.77946147,0.001731,0.002261,0.004366
8.473940999945626,8.473940999945626,0.0,0.0,2.3992065382743206,0.0,0.0,0.13472073,0.27198225,9.77601816,0.004638,-0.001702,0.003832
8.493926999974065,8.493926999974065,0.0,0.0,2.399282678317314,0.0,0.0,0.13921371,0.27677934,9.7897914,0.001923,0.001927,0.003743
8.513913000002503,8.513913000002503,0.0,0.0,2.399389515529119,0.0,0.0,0.12828537,0.26853894,9.77826465,0.003928,-0.00369,0.005496
8.533898999914527,8.533898999914527,0.0,0.0,2.3994974917025065,0.0,0.0,0.13457358,0.26944146,9.780511140000002,0.00221,0.00338,0.005539
8.553884999942966,8.553884999942966,0.0,0.0,2.3995735882826956,0.0,0.0,0.1329255,0.27797616,9.77901021,0.002778,-0.000868,0.003704
8.57386999996379,8.57386999996379,0.0,0.0,2.3996467355728734,0.0,0.0,0.12768696,0.2721294,9.7752726,0.00562,-0.002561,0.003551
8.593855999992229,8.593855999992229,0.0,0.0,2.3997051936645644,0.0,0.0,0.13561344,0.2650956299999999,9.77018121,0.001463,0.000866,0.002728
8.613842000020668,8.613842000020668,0.0,0.0,2.3998015834618958,0.0,0.0,0.13726152,0.28156662,9.78261048,0.002244,-0.001693,0.004924
8.65381399996113,8.65381399996113,0.0,0.0,2.399966800835699,0.0,0.0,0.14070483,0.2650956299999999,9.78874173,0.002219,0.002043,0.004043
8.65381399996113,8.65381399996113,0.0,0.0,2.3999642581037204,0.0,0.0,0.14070483,0.2650956299999999,9.78874173,0.002219,0.002043,0.004043
8.693785000010394,8.693785000010394,0.0,0.0,2.4001289936219194,0.0,0.0,0.13172868,0.28261629,9.77901021,0.003122,0.000447,0.004063
8.693785000010394,8.693785000010394,0.0,0.0,2.400127427774841,0.0,0.0,0.13172868,0.28261629,9.77901021,0.003122,0.000447,0.004063
8.713770999922417,8.713770999922417,0.0,0.0,2.400223945173309,0.0,0.0,0.13172868,0.26929431,9.78679935,0.00012,-0.000317,0.004968
8.713770999922417,8.713770999922417,0.0,0.0,2.400234517679735,0.0,0.0,0.13172868,0.26929431,9.78679935,0.00012,-0.000317,0.004968
8.773729000007734,8.773729000007734,0.0,0.0,2.4004779913050562,0.0,0.0,0.12453795,0.27602397,9.77826465,0.004323,-0.000818,0.003446
8.793714000028558,8.793714000028558,0.0,0.0,2.400539412925692,0.0,0.0,0.14340258,0.26465418,9.79742358,0.004667,-0.002225,0.002965
8.813699999940582,8.813699999940582,0.0,0.0,2.400597547679663,0.0,0.0,0.1300806,0.27482715,9.7897914,0.002301,0.002154,0.002795
8.83368599996902,8.83368599996902,0.0,0.0,2.4006625669736934,0.0,0.0,0.12109464,0.27587682,9.7841016,0.004818,-0.002585,0.003189
8.85367199999746,8.85367199999746,0.0,0.0,2.400698724969766,0.0,0.0,0.12798126,0.26704782,9.79517709,0.003907,0.001339,0.00159
8.873658000025898,8.873658000025898,0.0,0.0,2.400795978632331,0.0,0.0,0.12603888,0.27557271,9.77048532,0.001278,0.001506,0.00503
8.893643999937922,8.893643999937922,0.0,0.0,2.400876471076943,0.0,0.0,0.1389096,0.27108954,9.79758054,0.004411,-0.003315,0.00407
8.913628999958746,8.913628999958746,0.0,0.0,2.4009509050536693,0.0,0.0,0.13636881,0.27258066,9.78769206,0.002093,0.000987,0.003724
8.933614999987185,8.933614999987185,0.0,0.0,2.4010290100321345,0.0,0.0,0.12888378,0.27437589,9.77032836,0.002713,-0.00055,0.003931
8.953601000015624,8.953601000015624,0.0,0.0,2.4010943706923946,0.0,0.0,0.14055768,0.26405577,9.7866522,0.00386,-0.001581,0.003207
8.973586999927647,8.973586999927647,0.0,0.0,2.401187905855517,0.0,0.0,0.13741848,0.27168795,9.77003406,0.00279,0.002937,0.004813
8.993572999956086,8.993572999956086,0.0,0.0,2.401247701341811,0.0,0.0,0.13876245,0.26420292,9.78605379,0.003344,-0.001648,0.002878
9.013558999984525,9.013558999984525,0.0,0.0,2.4013280060535465,0.0,0.0,0.12828537,0.27542556,9.78021684,0.003208,-0.001495,0.004061
9.013558999984525,9.013558999984525,0.0,0.0,2.401332789535834,0.0,0.0,0.12828537,0.27542556,9.78021684,0.003208,-0.001495,0.004061
9.013558999984525,9.013558999984525,0.0,0.0,2.401336572537324,0.0,0.0,0.12828537,0.27542556,9.78021684,0.003208,-0.001495,0.004061
9.013558999984525,9.013558999984525,0.0,0.0,2.4013396392218205,0.0,0.0,0.12828537,0.27542556,9.78021684,0.003208,-0.001495,0.004061
9.033545000012964,9.033545000012964,0.0,0.0,2.4014186205554084,0.0,0.0,0.13262139,0.27513126,9.78305193,0.003281,-0.000681,0.004012
9.09350199997425,9.09350199997425,0.0,0.0,2.40164668834454,0.0,0.0,0.14160735,0.28006569,9.76554108,0.00366,-0.000916,0.003661
9.133473999914713,9.133473999914713,0.0,0.0,2.401819854232036,0.0,0.0,0.13771278,0.2686959,9.78005988,0.001419,3.8e-05,0.004903
9.153459999943152,9.153459999943152,0.0,0.0,2.401882391043256,0.0,0.0,0.13113027,0.27138384,9.78574968,0.005126,-0.002513,0.003062
9.173444999963976,9.173444999963976,0.0,0.0,2.401969802127658,0.0,0.0,0.14070483,0.26644941,9.76718916,0.004807,0.001035,0.004418
9.213417000020854,9.213417000020854,0.0,0.0,2.4021443114882555,0.0,0.0,0.13097331,0.2749743,9.76913154,0.005603,-0.003109,0.004777
9.213417000020854,9.213417000020854,0.0,0.0,2.402156849516305,0.0,0.0,0.13097331,0.2749743,9.76913154,0.005603,-0.003109,0.004777
9.253388999961317,9.253388999961317,0.0,0.0,2.402296079724727,0.0,0.0,0.14025357,0.27872172,9.78440571,0.004475,-0.002027,0.002778
9.253388999961317,9.253388999961317,0.0,0.0,2.4022759410628574,0.0,0.0,0.14025357,0.27872172,9.78440571,0.004475,-0.002027,0.002778
9.29336000001058,9.29336000001058,0.0,0.0,2.40242468140263,0.0,0.0,0.13741848,0.26465418,9.77003406,0.001272,-8e-05,0.003629
9.313345999922603,9.313345999922603,0.0,0.0,2.4025076225453956,0.0,0.0,0.12678444,0.27258066,9.765246780000002,0.004794,-0.002846,0.004173
9.313345999922603,9.313345999922603,0.0,0.0,2.4025131929218997,0.0,0.0,0.12678444,0.27258066,9.765246780000002,0.004794,-0.002846,0.004173
9.313345999922603,9.313345999922603,0.0,0.0,2.402517535697532,0.0,0.0,0.12678444,0.27258066,9.765246780000002,0.004794,-0.002846,0.004173
9.353317999979481,9.353317999979481,0.0,0.0,2.4026735509491743,0.0,0.0,0.14505066,0.26465418,9.79802199,0.001411,0.000403,0.003894
9.393289999919944,9.393289999919944,0.0,0.0,2.4028174586330344,0.0,0.0,0.12484206,0.28500993,9.76599234,0.002192,0.001733,0.003248
9.413275999948382,9.413275999948382,0.0,0.0,2.402895824678203,0.0,0.0,0.13247424,0.26644941,9.78005988,0.002372,-0.001172,0.00393
9.433260999969207,9.433260999969207,0.0,0.0,2.40296385315448,0.0,0.0,0.13517199,0.2721294,9.7841016,0.004551,-0.002293,0.003366
9.453246999997646,9.453246999997646,0.0,0.0,2.403035161811128,0.0,0.0,0.13457358,0.28785483,9.76613949,0.001972,0.002602,0.003549
9.473233000026084,9.473233000026084,0.0,0.0,2.403106437952398,0.0,0.0,0.12857967,0.26839179,9.77601816,0.001972,0.002602,0.003549
9.493218999938108,9.493218999938108,0.0,0.0,2.403142044870556,0.0,0.0,0.13097331,0.26554689,9.76419711,0.004034,-0.001378,0.001572
9.513204999966547,9.513204999966547,0.0,0.0,2.4032286820640767,0.0,0.0,0.12663729,0.27243351,9.77123088,0.000953,9.9e-05,0.004439
9.533190999994986,9.533190999994986,0.0,0.0,2.4032942509114346,0.0,0.0,0.1300806,0.26824464,9.77257485,0.005282,-0.002519,0.003248
9.55317600001581,9.55317600001581,0.0,0.0,2.40338207391488,0.0,0.0,0.13696722,0.26465418,9.79069392,0.003348,0.000711,0.004502
9.573161999927834,9.573161999927834,0.0,0.0,2.403455264975003,0.0,0.0,0.13127742,0.27348318,9.76135221,0.002622,-0.00049,0.003664
9.593147999956273,9.593147999956273,0.0,0.0,2.4035370440378987,0.0,0.0,0.13157172,0.27123669,9.75580956,0.004585,-0.00258,0.004149
9.613133999984711,9.613133999984711,0.0,0.0,2.403622927811682,0.0,0.0,0.12199716,0.25806186,9.77901021,0.002239,0.0022,0.004374
9.613133999984711,9.613133999984711,0.0,0.0,2.403631834558926,0.0,0.0,0.12199716,0.25806186,9.77901021,0.002239,0.0022,0.004374
9.63312000001315,9.63312000001315,0.0,0.0,2.403715927408313,0.0,0.0,0.14250006,0.26719497,9.76913154,0.005652,-0.003973,0.004298
9.673091999953613,9.673091999953613,0.0,0.0,2.40387310280385,0.0,0.0,0.13561344,0.27437589,9.77931432,0.001959,-5e-06,0.003946
9.693076999974437,9.693076999974437,0.0,0.0,2.403978622098829,0.0,0.0,0.13232709,0.2689902,9.7781175,0.004506,-0.001459,0.005455
9.713063000002876,9.713063000002876,0.0,0.0,2.404030085467838,0.0,0.0,0.12917808,0.2718351,9.793087560000002,0.002421,0.001111,0.00237
9.7330489999149,9.7330489999149,0.0,0.0,2.4040999089985657,0.0,0.0,0.12185001,0.26435007,9.78110955,0.001875,-0.002816,0.00344
9.753034999943338,9.753034999943338,0.0,0.0,2.4041861787423127,0.0,0.0,0.13127742,0.2749743,9.77751909,0.004239,-0.000532,0.004382
9.773020999971777,9.773020999971777,0.0,0.0,2.404277881533707,0.0,0.0,0.11451213,0.28006569,9.75551526,0.002431,0.001176,0.004682
9.812993000028655,9.812993000028655,0.0,0.0,2.404451310507614,0.0,0.0,0.13157172,0.27557271,9.77991273,0.003137,-0.000923,0.004683
9.812993000028655,9.812993000028655,0.0,0.0,2.4044610608657635,0.0,0.0,0.13157172,0.27557271,9.77991273,0.003137,-0.000923,0.004683
9.852963999961503,9.852963999961503,0.0,0.0,2.4046160628349416,0.0,0.0,0.13426947,0.28096821,9.75970413,0.004946,-0.00365,0.003539
9.852963999961503,9.852963999961503,0.0,0.0,2.4046069298294253,0.0,0.0,0.13426947,0.28096821,9.75970413,0.004946,-0.00365,0.003539
9.89293600001838,9.89293600001838,0.0,0.0,2.404784680604382,0.0,0.0,0.12513636,0.27437589,9.77377167,0.002367,0.000128,0.00494
9.912921999930404,9.912921999930404,0.0,0.0,2.404861006148616,0.0,0.0,0.13965516,0.26674371,9.79248915,0.004138,-0.002115,0.00379
9.912921999930404,9.912921999930404,0.0,0.0,2.404855984977276,0.0,0.0,0.13965516,0.26674371,9.79248915,0.004138,-0.002115,0.00379
9.912921999930404,9.912921999930404,0.0,0.0,2.404852060459829,0.0,0.0,0.13965516,0.26674371,9.79248915,0.004138,-0.002115,0.00379
9.972879000008106,9.972879000008106,0.0,0.0,2.405073069964395,0.0,0.0,0.12768696,0.27153099,9.79457868,0.005292,0.000215,0.00287
9.99286499992013,9.99286499992013,0.0,0.0,2.4051519931914367,0.0,0.0,0.13666311,0.26420292,9.78470001,0.002995,0.00146,0.003959
10.012850999948569,10.012850999948569,0.0,0.0,2.4052306919577635,0.0,0.0,0.13337676,0.28291059,9.77677353,0.005613,-0.003057,0.003945
10.012850999948569,10.012850999948569,0.0,0.0,2.4052315900684675,0.0,0.0,0.13337676,0.28291059,9.77677353,0.005613,-0.003057,0.003945
10.052823000005446,10.052823000005446,0.0,0.0,2.4053955112386856,0.0,0.0,0.12962934,0.27303192,9.79742358,0.003324,-0.000917,0.004362
10.07280899991747,10.07280899991747,0.0,0.0,2.405504825335969,0.0,0.0,0.13771278,0.26689086,9.79488279,0.005118,-0.001285,0.005672
10.092794999945909,10.092794999945909,0.0,0.0,2.4055988567490045,0.0,0.0,0.13457358,0.28006569,9.78485697,0.002336,0.002334,0.004774
10.112779999966733,10.112779999966733,0.0,0.0,2.4056903358726,0.0,0.0,0.13022775,0.26344755,9.79697232,0.004439,-0.001643,0.004619
10.132765999995172,10.132765999995172,0.0,0.0,2.4057941243190237,0.0,0.0,0.13486788,0.26674371,9.8068608,0.003819,0.000363,0.005314
10.152752000023611,10.152752000023611,0.0,0.0,2.405877829082703,0.0,0.0,0.12977649,0.27917298,9.79038981,0.002555,0.000861,0.004151
10.172737999935634,10.172737999935634,0.0,0.0,2.405940757622104,0.0,0.0,0.13486788,0.28141947,9.77706783,0.00425,-0.003487,0.00297
10.192723999964073,10.192723999964073,0.0,0.0,2.405999297223193,0.0,0.0,0.13441662,0.27393444,9.79084107,0.002667,0.001025,0.002745
10.212709999992512,10.212709999992512,0.0,0.0,2.406090944796249,0.0,0.0,0.12948219,0.26599815,9.7926363,0.001677,-0.00177,0.004666
10.212709999992512,10.212709999992512,0.0,0.0,2.4060995239086767,0.0,0.0,0.12948219,0.26599815,9.7926363,0.001677,-0.00177,0.004666
10.232696000020951,10.232696000020951,0.0,0.0,2.406176307614576,0.0,0.0,0.13457358,0.28006569,9.7838073,0.00434,1e-05,0.003749
10.272666999953799,10.272666999953799,0.0,0.0,2.406334536467938,0.0,0.0,0.12977649,0.27003987,9.74982546,0.003922,-0.003187,0.003749
10.292652999982238,10.292652999982238,0.0,0.0,2.406409126712166,0.0,0.0,0.12843252,0.26719497,9.7721334,0.004515,-0.000278,0.003686
10.312639000010677,10.312639000010677,0.0,0.0,2.406491911629856,0.0,0.0,0.12933504,0.26525259,9.78350319,0.002001,0.000423,0.004159
10.3326249999227,10.3326249999227,0.0,0.0,2.406593908725787,0.0,0.0,0.13950801,0.27482715,9.764795520000002,0.004293,-0.001107,0.005251
10.352610999951139,10.352610999951139,0.0,0.0,2.4066630196644354,0.0,0.0,0.13082616,0.27393444,9.76733631,0.003263,0.002109,0.003354
10.392583000008017,10.392583000008017,0.0,0.0,2.406833948276108,0.0,0.0,0.13441662,0.27258066,9.75566241,0.005883,-0.001111,0.004474
10.432553999940865,10.432553999940865,0.0,0.0,2.406987672198836,0.0,0.0,0.13441662,0.27093258,9.77781339,0.003602,-0.004153,0.003586
10.452539999969304,10.452539999969304,0.0,0.0,2.4070684640044586,0.0,0.0,0.13232709,0.26569404,9.79098822,0.001496,-0.000129,0.004043
10.452539999969304,10.452539999969304,0.0,0.0,2.4070682552148313,0.0,0.0,0.13232709,0.26569404,9.79098822,0.001496,-0.000129,0.004043
10.492512000026181,10.492512000026181,0.0,0.0,2.4072334120783854,0.0,0.0,0.13771278,0.26884305,9.78245352,0.005494,-0.002747,0.004211
10.512497999938205,10.512497999938205,0.0,0.0,2.407305446961862,0.0,0.0,0.13381821,0.26135802,9.78156081,0.00294,0.002037,0.003595
10.512497999938205,10.512497999938205,0.0,0.0,2.40729836994422,0.0,0.0,0.13381821,0.26135802,9.78156081,0.00294,0.002037,0.003595
10.532483999966644,10.532483999966644,0.0,0.0,2.4073875443971264,0.0,0.0,0.13756563,0.26494848,9.78365034,0.002411,-0.000129,0.004545
10.572455000015907,10.572455000015907,0.0,0.0,2.4075802595602838,0.0,0.0,0.13142457,0.2778192,9.77182929,0.00068,0.002082,0.00569
10.59244099992793,10.59244099992793,0.0,0.0,2.407651582497312,0.0,0.0,0.13711437,0.27692649,9.77601816,0.003107,-0.003468,0.003526
10.61242699995637,10.61242699995637,0.0,0.0,2.407695544548578,0.0,0.0,0.12393954,0.27168795,9.7721334,0.002932,0.001379,0.002059
10.652398000005633,10.652398000005633,0.0,0.0,2.4078337663681015,0.0,0.0,0.1272357,0.26989272,9.7897914,0.004367,-0.002051,0.003064
10.652398000005633,10.652398000005633,0.0,0.0,2.4078215180278377,0.0,0.0,0.1272357,0.26989272,9.7897914,0.004367,-0.002051,0.003064
10.692369999946095,10.692369999946095,0.0,0.0,2.407969177175154,0.0,0.0,0.13816404,0.26973576,9.77362452,0.002941,-0.002145,0.003728
10.712355999974534,10.712355999974534,0.0,0.0,2.4080567419070835,0.0,0.0,0.12094749,0.28905165,9.76628664,0.004123,-0.001474,0.004403
10.732340999995358,10.732340999995358,0.0,0.0,2.4081583207709603,0.0,0.0,0.1332198,0.27422874,9.76838598,0.002939,0.0012,0.005141
10.752327000023797,10.752327000023797,0.0,0.0,2.4082395514959014,0.0,0.0,0.13113027,0.26958861,9.78754491,0.002271,-0.002396,0.00407
10.77231299993582,10.77231299993582,0.0,0.0,2.408316215204362,0.0,0.0,0.12708855,0.26794053,9.78395445,0.005124,0.001499,0.003826
10.79229899996426,10.79229899996426,0.0,0.0,2.408386165346636,0.0,0.0,0.12857967,0.28546119,9.7752726,0.003019,-6e-05,0.003464
10.812284999992698,10.812284999992698,0.0,0.0,2.408489707724261,0.0,0.0,0.14160735,0.27198225,9.77467419,0.004433,-0.001264,0.005293
10.812284999992698,10.812284999992698,0.0,0.0,2.4085093604141363,0.0,0.0,0.14160735,0.27198225,9.77467419,0.004433,-0.001264,0.005293
10.812284999992698,10.812284999992698,0.0,0.0,2.4085248527710217,0.0,0.0,0.14160735,0.27198225,9.77467419,0.004433,-0.001264,0.005293
10.832271000021137,10.832271000021137,0.0,0.0,2.408597976123106,0.0,0.0,0.13711437,0.27333603,9.78754491,0.003372,0.002009,0.003418
10.892227999982424,10.892227999982424,0.0,0.0,2.4088659492130944,0.0,0.0,0.14115609,0.2718351,9.78156081,0.001555,0.001472,0.005004
10.932199999922886,10.932199999922886,0.0,0.0,2.409040057778152,0.0,0.0,0.14699304,0.27977139,9.75087513,0.004119,0.000379,0.004364
10.952185999951325,10.952185999951325,0.0,0.0,2.4091510220086096,0.0,0.0,0.1300806,0.28201788,9.77003406,0.001973,-0.000744,0.005553
10.972171999979764,10.972171999979764,0.0,0.0,2.409262938111625,0.0,0.0,0.13127742,0.26764623,9.77916717,0.005836,-0.003961,0.005619
10.992158000008203,10.992158000008203,0.0,0.0,2.409369436218066,0.0,0.0,0.12933504,0.26989272,9.76195062,0.002742,0.0015,0.00535
11.012143999920227,11.012143999920227,0.0,0.0,2.4094556392128164,0.0,0.0,0.13397517,0.26989272,9.76838598,0.001857,-0.000923,0.004291
11.032129999948665,11.032129999948665,0.0,0.0,2.4095360633952456,0.0,0.0,0.14474655,0.265851,9.77632227,0.005218,-0.001648,0.003983
11.05211499996949,11.05211499996949,0.0,0.0,2.409630328193092,0.0,0.0,0.13936086,0.27662238,9.76434426,0.001885,0.002687,0.004724
11.072100999997929,11.072100999997929,0.0,0.0,2.4097043574286063,0.0,0.0,0.1300806,0.26644941,9.78649524,0.004595,-0.002669,0.00363
11.092087000026368,11.092087000026368,0.0,0.0,2.4097657207160257,0.0,0.0,0.12738285,0.26989272,9.78515127,0.003812,0.000516,0.002944
11.112072999938391,11.112072999938391,0.0,0.0,2.4098488288502455,0.0,0.0,0.12977649,0.27542556,9.764491410000002,0.001704,0.000168,0.004146
11.112072999938391,11.112072999938391,0.0,0.0,2.409846876837312,0.0,0.0,0.12977649,0.27542556,9.764491410000002,0.001704,0.000168,0.004146
11.152044999995269,11.152044999995269,0.0,0.0,2.4100038246913584,0.0,0.0,0.13517199,0.28081125,9.79129233,0.001774,0.001852,0.003526
11.172031000023708,11.172031000023708,0.0,0.0,2.4101064316537837,0.0,0.0,0.12513636,0.27078543,9.76943565,0.003468,-0.002291,0.005249
11.192016999935731,11.192016999935731,0.0,0.0,2.4102096989853887,0.0,0.0,0.13426947,0.27123669,9.77422293,0.00434,-0.001093,0.005272
11.212001999956556,11.212001999956556,0.0,0.0,2.410284824744812,0.0,0.0,0.14923953,0.26135802,9.78904584,0.001882,0.002089,0.003675
11.251974000013433,11.251974000013433,0.0,0.0,2.410467198469025,0.0,0.0,0.12020193,0.28680516,9.7841016,0.004333,-0.001101,0.004801
11.271959999925457,11.271959999925457,0.0,0.0,2.410548311886183,0.0,0.0,0.13157172,0.27932013,9.796530870000002,0.001825,0.001345,0.004048
11.291945999953896,11.291945999953896,0.0,0.0,2.4106115096113756,0.0,0.0,0.12693159,0.26569404,9.77407578,0.003072,-0.002744,0.003109
11.291945999953896,11.291945999953896,0.0,0.0,2.4105936278657554,0.0,0.0,0.12693159,0.26569404,9.77407578,0.003072,-0.002744,0.003109
11.331918000010774,11.331918000010774,0.0,0.0,2.4107788854931513,0.0,0.0,0.13457358,0.26689086,9.75940983,0.000797,-0.001116,0.00531
11.351903999922797,11.351903999922797,0.0,0.0,2.410881889699679,0.0,0.0,0.11420802,0.27243351,9.7695828,0.003151,-0.001771,0.005229
11.371889999951236,11.371889999951236,0.0,0.0,2.4109743891089224,0.0,0.0,0.13412232,0.27288477,9.77377167,0.002277,0.001602,0.004652
11.371889999951236,11.371889999951236,0.0,0.0,2.4109784495229976,0.0,0.0,0.13412232,0.27288477,9.77377167,0.002277,0.001602,0.004652
11.4118610000005,11.4118610000005,0.0,0.0,2.411144214686656,0.0,0.0,0.13412232,0.27003987,9.75865446,0.003521,0.000576,0.003803
11.4118610000005,11.4118610000005,0.0,0.0,2.411135628053821,0.0,0.0,0.13412232,0.27003987,9.75865446,0.003521,0.000576,0.003803
11.431847000028938,11.431847000028938,0.0,0.0,2.41119657455313,0.0,0.0,0.13636881,0.292338,9.7664436,0.0012,-8.7e-05,0.002746
11.4718189999694,11.4718189999694,0.0,0.0,2.411362249842142,0.0,0.0,0.1360647,0.26719497,9.77797035,0.004442,0.003026,0.004213
11.49180499999784,11.49180499999784,0.0,0.0,2.4114226624567383,0.0,0.0,0.11989782,0.27422874,9.77317326,0.000468,-0.001433,0.0029
11.531776999938302,11.531776999938302,0.0,0.0,2.4115751939542154,0.0,0.0,0.13591755,0.27198225,9.77991273,0.001876,0.002451,0.003692
11.531776999938302,11.531776999938302,0.0,0.0,2.4115715624668503,0.0,0.0,0.13591755,0.27198225,9.77991273,0.001876,0.002451,0.003692
11.57174899999518,11.57174899999518,0.0,0.0,2.4117282290120077,0.0,0.0,0.13053186,0.28500993,9.77197644,0.005355,-0.00137,0.003968
11.591734000016004,11.591734000016004,0.0,0.0,2.4118021259434936,0.0,0.0,0.13921371,0.28845324,9.78275763,0.002293,0.000851,0.003688
11.591734000016004,11.591734000016004,0.0,0.0,2.4117992720141546,0.0,0.0,0.13921371,0.28845324,9.78275763,0.002293,0.000851,0.003688
11.611719999928027,11.611719999928027,0.0,0.0,2.4118847406950357,0.0,0.0,0.12558762,0.26779338,9.7894971,0.004911,-0.003668,0.004362
11.65169299999252,11.65169299999252,0.0,0.0,2.4120479711544762,0.0,0.0,0.1417545,0.28515708,9.77572386,0.0031,0.000531,0.004288
11.671679000020958,11.671679000020958,0.0,0.0,2.41216054507578,0.0,0.0,0.1332198,0.27557271,9.79069392,0.006486,-0.001295,0.005766
11.691664999932982,11.691664999932982,0.0,0.0,2.412247095677401,0.0,0.0,0.13845834,0.26689086,9.78874173,0.001295,0.002214,0.004341
11.711650999961421,11.711650999961421,0.0,0.0,2.412361248021492,0.0,0.0,0.13022775,0.27422874,9.764942670000002,0.002405,-0.002074,0.005853
11.711650999961421,11.711650999961421,0.0,0.0,2.4123837586534034,0.0,0.0,0.13022775,0.27422874,9.764942670000002,0.002405,-0.002074,0.005853
11.73163699998986,11.73163699998986,0.0,0.0,2.412449088850087,0.0,0.0,0.12783411,0.27692649,9.77661657,0.002979,-0.001436,0.002952
11.771608999930322,11.771608999930322,0.0,0.0,2.412633882540251,0.0,0.0,0.13187583,0.28276344,9.78395445,0.004172,-0.002725,0.004874
11.791593999951147,11.791593999951147,0.0,0.0,2.4127295149653465,0.0,0.0,0.13995927,0.26853894,9.77572386,0.002766,0.001509,0.004818
11.811579999979585,11.811579999979585,0.0,0.0,2.4128252184851604,0.0,0.0,0.12529332,0.28006569,9.780658290000002,0.002766,0.001509,0.004818
11.831566000008024,11.831566000008024,0.0,0.0,2.412865928285072,0.0,0.0,0.13187583,0.26989272,9.77392863,0.004213,-0.002321,0.001742
11.871537999948487,11.871537999948487,0.0,0.0,2.413034256321639,0.0,0.0,0.13636881,0.27138384,9.78515127,0.002397,-0.001678,0.004239
11.891523999976926,11.891523999976926,0.0,0.0,2.413089962448397,0.0,0.0,0.12813822,0.29189655,9.76508982,0.006026,-0.002368,0.002753
11.891523999976926,11.891523999976926,0.0,0.0,2.413068981500534,0.0,0.0,0.12813822,0.29189655,9.76508982,0.006026,-0.002368,0.002753
11.931495999917388,11.931495999917388,0.0,0.0,2.413213079472561,0.0,0.0,0.12618603,0.25432425,9.79952292,0.004679,-0.001474,0.003357
11.951481999945827,11.951481999945827,0.0,0.0,2.4133081372386753,0.0,0.0,0.1474443,0.28965006,9.76195062,0.004368,0.001183,0.004822
11.971467999974266,11.971467999974266,0.0,0.0,2.4133913894083516,0.0,0.0,0.13921371,0.26360451,9.76613949,0.001845,0.000134,0.004185
11.99145299999509,11.99145299999509,0.0,0.0,2.4134685210067603,0.0,0.0,0.14309847,0.27078543,9.79098822,0.00536,-0.002886,0.003852
12.011439000023529,12.011439000023529,0.0,0.0,2.413539374906347,0.0,0.0,0.12603888,0.26779338,9.74788308,0.003102,0.002332,0.003509
12.011439000023529,12.011439000023529,0.0,0.0,2.413533447186035,0.0,0.0,0.12603888,0.26779338,9.74788308,0.003102,0.002332,0.003509
12.031424999935552,12.031424999935552,0.0,0.0,2.4136166280581897,0.0,0.0,0.13397517,0.27737775,9.7724277,0.004765,-0.001739,0.004238
12.07139699999243,12.07139699999243,0.0,0.0,2.4137728838062866,0.0,0.0,0.12034908,0.27288477,9.78395445,0.001527,0.001454,0.003941
12.111368999932893,12.111368999932893,0.0,0.0,2.413933401559757,0.0,0.0,0.13457358,0.26569404,9.78485697,0.003235,0.001225,0.004139
12.111368999932893,12.111368999932893,0.0,0.0,2.4139370795287967,0.0,0.0,0.13457358,0.26569404,9.78485697,0.003235,0.001225,0.004139
12.131354999961331,12.131354999961331,0.0,0.0,2.4140197060879247,0.0,0.0,0.12005478,0.28291059,9.78170796,0.001624,-0.000229,0.00416
12.15134099998977,12.15134099998977,0.0,0.0,2.4141062359419543,0.0,0.0,0.12678444,0.27468,9.77617512,0.004684,-0.002738,0.00438
12.191311999922618,12.191311999922618,0.0,0.0,2.4142579342071686,0.0,0.0,0.14115609,0.28081125,9.78754491,0.002737,-0.001446,0.00354
12.211297999951057,12.211297999951057,0.0,0.0,2.414347582479474,0.0,0.0,0.12768696,0.27542556,9.78215922,0.004382,-0.001145,0.004509
12.211297999951057,12.211297999951057,0.0,0.0,2.4143554178673714,0.0,0.0,0.12768696,0.27542556,9.78215922,0.004382,-0.001145,0.004509
12.211297999951057,12.211297999951057,0.0,0.0,2.414361512144655,0.0,0.0,0.12768696,0.27542556,9.78215922,0.004382,-0.001145,0.004509
12.251270000007935,12.251270000007935,0.0,0.0,2.4145284017567983,0.0,0.0,0.13546629,0.28051695,9.77422293,0.003241,-0.003002,0.004217
12.291241999948397,12.291241999948397,0.0,0.0,2.4147066598002027,0.0,0.0,0.11735703,0.26674371,9.7755669,0.001913,0.000368,0.004803
12.291241999948397,12.291241999948397,0.0,0.0,2.4147157480411625,0.0,0.0,0.11735703,0.26674371,9.7755669,0.001913,0.000368,0.004803
12.291241999948397,12.291241999948397,0.0,0.0,2.414722780214623,0.0,0.0,0.11735703,0.26674371,9.7755669,0.001913,0.000368,0.004803
12.331214000005275,12.331214000005275,0.0,0.0,2.4148890596037837,0.0,0.0,0.12484206,0.26644941,9.7692885,0.001851,0.001097,0.003856
12.351199999917299,12.351199999917299,0.0,0.0,2.414982178745916,0.0,0.0,0.13397517,0.27108954,9.77692068,0.001871,-0.00074,0.00473
12.391171999974176,12.391171999974176,0.0,0.0,2.415153351344353,0.0,0.0,0.13921371,0.2650956299999999,9.78036399,0.002405,0.003446,0.004192
12.43114300002344,12.43114300002344,0.0,0.0,2.415309440652564,0.0,0.0,0.13097331,0.27961443,9.78574968,0.004285,0.000968,0.003504
12.451128999935463,12.451128999935463,0.0,0.0,2.4153785606928198,0.0,0.0,0.12393954,0.27078543,9.78275763,0.002643,0.001346,0.003469
12.451128999935463,12.451128999935463,0.0,0.0,2.415367541010034,0.0,0.0,0.12393954,0.27078543,9.78275763,0.002643,0.001346,0.003469
12.471114999963902,12.471114999963902,0.0,0.0,2.415443805800166,0.0,0.0,0.1329255,0.27557271,9.76209777,0.005499,-0.001992,0.003789
12.51108700002078,12.51108700002078,0.0,0.0,2.415592085750676,0.0,0.0,0.12544047,0.27153099,9.78859458,0.003137,-0.000897,0.003422
12.531072999932803,12.531072999932803,0.0,0.0,2.4157088891916967,0.0,0.0,0.12693159,0.27797616,9.77063247,0.003944,-0.001227,0.005922
12.551058999961242,12.551058999961242,0.0,0.0,2.4157557495524955,0.0,0.0,0.1417545,0.26719497,9.76718916,0.001998,0.000426,0.002247
12.571044999989681,12.571044999989681,0.0,0.0,2.415864056794444,0.0,0.0,0.13682007,0.27317907,9.77931432,0.003044,-0.00233,0.005516
12.571044999989681,12.571044999989681,0.0,0.0,2.4158867991801705,0.0,0.0,0.13682007,0.27317907,9.77931432,0.003044,-0.00233,0.005516
12.611016999930143,12.611016999930143,0.0,0.0,2.4160422001905566,0.0,0.0,0.13696722,0.27917298,9.76224492,0.002249,0.000326,0.003398
12.611016999930143,12.611016999930143,0.0,0.0,2.4160295942304106,0.0,0.0,0.13696722,0.27917298,9.76224492,0.002249,0.000326,0.003398
12.650988999987021,12.650988999987021,0.0,0.0,2.416197881471028,0.0,0.0,0.12828537,0.26180928,9.77871591,0.002603,0.001411,0.004363
12.670974000007845,12.670974000007845,0.0,0.0,2.4163016289976618,0.0,0.0,0.11780829,0.2718351,9.76044969,0.003608,-0.000332,0.005309
12.690959999919869,12.690959999919869,0.0,0.0,2.416376890983287,0.0,0.0,0.13591755,0.26554689,9.76823883,0.003732,-0.001837,0.003706
12.710945999948308,12.710945999948308,0.0,0.0,2.4164607574311514,0.0,0.0,0.14100894,0.26659656,9.7667379,0.002347,0.002748,0.004195
12.730931999976747,12.730931999976747,0.0,0.0,2.41654807393018,0.0,0.0,0.12544047,0.27857457,9.76764042,0.005381,-0.001497,0.004389
12.750918000005186,12.750918000005186,0.0,0.0,2.41665438648792,0.0,0.0,0.14220576,0.27453285,9.77422293,0.004711,0.00056,0.005457
12.77090399991721,12.77090399991721,0.0,0.0,2.4167303833097673,0.0,0.0,0.13187583,0.2721294,9.76733631,0.002263,7.7e-05,0.003726
12.790889999945648,12.790889999945648,0.0,0.0,2.4168120975737075,0.0,0.0,0.12094749,0.26973576,9.768690090000002,0.005944,-0.0025,0.00406
12.810875999974087,12.810875999974087,0.0,0.0,2.4168723578575513,0.0,0.0,0.13486788,0.26884305,9.79038981,0.002716,0.002141,0.002846
12.830862000002526,12.830862000002526,0.0,0.0,2.4169481063922884,0.0,0.0,0.1184067,0.28141947,9.78589683,0.002486,-0.002613,0.00375
12.85084799991455,12.85084799991455,0.0,0.0,2.417008186847447,0.0,0.0,0.13381821,0.27797616,9.76180347,0.003354,-0.00077,0.002863
12.890819999971427,12.890819999971427,0.0,0.0,2.4171604726191642,0.0,0.0,0.13711437,0.2721294,9.78934014,0.004351,-0.003154,0.003732
12.890819999971427,12.890819999971427,0.0,0.0,2.417158272453192,0.0,0.0,0.13711437,0.2721294,9.78934014,0.004351,-0.003154,0.003732
12.890819999971427,12.890819999971427,0.0,0.0,2.417156571798566,0.0,0.0,0.13711437,0.2721294,9.78934014,0.004351,-0.003154,0.003732
12.890819999971427,12.890819999971427,0.0,0.0,2.4171552178882063,0.0,0.0,0.13711437,0.2721294,9.78934014,0.004351,-0.003154,0.003732
12.93079100002069,12.93079100002069,0.0,0.0,2.417303962043949,0.0,0.0,0.13381821,0.26734212,9.7692885,0.002373,-0.000157,0.003561
12.970762999961153,12.970762999961153,0.0,0.0,2.417470760809035,0.0,0.0,0.1417545,0.27033417,9.77646942,0.001792,0.001867,0.004665
13.01073500001803,13.01073500001803,0.0,0.0,2.4176312079137077,0.0,0.0,0.12977649,0.27991854,9.77766624,0.003549,-0.000725,0.004119
13.01073500001803,13.01073500001803,0.0,0.0,2.417634171640123,0.0,0.0,0.12977649,0.27991854,9.77766624,0.003549,-0.000725,0.004119
13.050706999958493,13.050706999958493,0.0,0.0,2.4177725418305487,0.0,0.0,0.12034908,0.25880742,9.78859458,0.003902,-0.002348,0.002904
13.070692999986932,13.070692999986932,0.0,0.0,2.4178563654884826,0.0,0.0,0.12169305,0.27961443,9.77302611,0.002747,0.000358,0.004218
13.09067900001537,13.09067900001537,0.0,0.0,2.417976085814301,0.0,0.0,0.12529332,0.27946728,9.76704201,0.002987,0.00193,0.006144
13.110664999927394,13.110664999927394,0.0,0.0,2.418049089954108,0.0,0.0,0.12948219,0.2749743,9.77587101,0.004971,-0.001639,0.003609
13.130650999955833,13.130650999955833,0.0,0.0,2.4181314501911846,0.0,0.0,0.13352391,0.28485297,9.7838073,0.003231,-0.00087,0.004122
13.150636999984272,13.150636999984272,0.0,0.0,2.418196743392972,0.0,0.0,0.11975067,0.27647523,9.76508982,0.002419,-0.001478,0.003185
13.170622000005096,13.170622000005096,0.0,0.0,2.4182690499642305,0.0,0.0,0.1553805899999999,0.30282489,9.78141366,0.006977,0.001302,0.00358
13.19060799991712,13.19060799991712,0.0,0.0,2.418357449712717,0.0,0.0,0.12843252,0.24204213,9.85955031,-6.4e-05,-0.001417,0.004477
13.210593999945559,13.210593999945559,0.0,0.0,2.418440108921332,0.0,0.0,0.13277835,0.27557271,9.80940159,0.00336,-0.001803,0.004151
13.210593999945559,13.210593999945559,0.0,0.0,2.4184421280079977,0.0,0.0,0.13277835,0.27557271,9.80940159,0.00336,-0.001803,0.004151
13.250566000002436,13.250566000002436,0.0,0.0,2.41860852551139,0.0,0.0,0.14025357,0.25776756,9.81643536,0.002872,0.000689,0.004319
13.290537999942899,13.290537999942899,0.0,0.0,2.4188084224449984,0.0,0.0,0.13921371,0.27857457,9.77677353,0.004312,0.003064,0.005952
13.290537999942899,13.290537999942899,0.0,0.0,2.4188357461593597,0.0,0.0,0.13921371,0.27857457,9.77677353,0.004312,0.003064,0.005952
13.330509999999776,13.330509999999776,0.0,0.0,2.4189779178758926,0.0,0.0,0.12873663,0.28245933,9.76943565,0.003469,-0.000325,0.002454
13.330509999999776,13.330509999999776,0.0,0.0,2.4189478498277657,0.0,0.0,0.12873663,0.28245933,9.76943565,0.003469,-0.000325,0.002454
13.370481999940239,13.370481999940239,0.0,0.0,2.4190990580611844,0.0,0.0,0.11346246,0.26719497,9.77347737,0.001943,-0.001874,0.003501
13.390467999968678,13.390467999968678,0.0,0.0,2.419177675294094,0.0,0.0,0.12424365,0.29683098,9.77766624,0.0027,0.000469,0.003932
13.410453999997117,13.410453999997117,0.0,0.0,2.419262105046462,0.0,0.0,0.14818986,0.2775249,9.76554108,0.00322,0.0009,0.004249
13.410453999997117,13.410453999997117,0.0,0.0,2.4192662530168922,0.0,0.0,0.14818986,0.2775249,9.76554108,0.00322,0.0009,0.004249
13.450425999937579,13.450425999937579,0.0,0.0,2.419414527495043,0.0,0.0,0.12288987,0.25072398,9.79038981,0.000455,0.007405,0.003329
13.470410999958403,13.470410999958403,0.0,0.0,2.4195469309461153,0.0,0.0,0.14519781,-0.48739023,9.9514602,-0.007929,-0.00267,0.006927
13.490396999986842,13.490396999986842,0.0,0.0,2.1973250266421456,0.0,0.0,0.16839846,-1.47069558,9.944416620000002,-0.069592,-0.042321,0.011766
13.490396999986842,13.490396999986842,0.0,0.0,2.1974271009133037,0.0,0.0,0.16839846,-1.47069558,9.944416620000002,-0.069592,-0.042321,0.011766
13.490396999986842,13.490396999986842,0.0,0.0,2.197507379129137,0.0,0.0,0.16839846,-1.47069558,9.944416620000002,-0.069592,-0.042321,0.011766
13.530368999927305,13.530368999927305,0.0,0.0,2.1973261511814437,0.0,0.0,0.09100737,-2.71909656,9.88364367,-0.003063,-0.026051,-0.021741
13.570340999984182,13.570340999984182,0.0,0.0,2.1975791453912015,0.0,0.0,0.32512302,-2.34771939,9.35958366,0.011999,-0.04432,0.010618
13.590327000012621,13.590327000012621,0.0,0.0,2.198158476675017,0.0,0.0,0.1414602,-1.00380825,10.19080458,0.025322,-0.07084,0.032162
13.610312999924645,13.610312999924645,0.0,0.0,2.197711369271312,0.0,0.0,-0.29728224,0.21479976,8.70649272,0.055874,0.045792,-0.02629
13.63029799994547,13.63029799994547,0.0,0.0,2.196042045793126,0.0,0.0,0.27288477,1.32713604,9.9602892,0.071009,0.027277,-0.094908
13.650283999973908,13.650283999973908,0.0,0.0,2.196239448785656,0.0,0.0,0.6185106899999999,1.7890791300000002,10.4954247,0.039317,0.010041,0.012551
13.670270000002347,13.670270000002347,0.0,0.0,2.1967034109794383,0.0,0.0,0.25193061,3.1823836200000004,9.880053210000002,0.021781,-0.024274,0.027312
13.69025599991437,13.69025599991437,0.0,0.0,2.1967557369280533,0.0,0.0,-0.20283156,3.26666133,9.573941970000002,-0.000717,0.013434,0.003316
13.730227999971248,13.730227999971248,0.0,0.0,2.1977128810582,0.0,0.0,-0.09984618,1.23358788,9.57334356,0.000868,-0.006588,0.05078
13.730227999971248,13.730227999971248,0.0,0.0,2.198473634639825,0.0,0.0,-0.09984618,1.23358788,9.57334356,0.000868,-0.006588,0.05078
13.770199000020511,13.770199000020511,0.0,0.0,2.198475425389388,0.0,0.0,0.41658165,-1.17640539,9.63306684,-0.031489,-0.016199,-0.013014
13.790184999932535,13.790184999932535,0.0,0.0,2.198443528188883,0.0,0.0,-0.08801532,-2.02139955,9.63187002,-0.038846,-0.001856,-0.002235
13.810170999960974,13.810170999960974,0.0,0.0,2.1981942007621296,0.0,0.0,0.15178032,-2.1457903500000004,9.88289811,-0.015568,-0.040934,-0.013917
13.810170999960974,13.810170999960974,0.0,0.0,2.1979034660885866,0.0,0.0,0.15178032,-2.1457903500000004,9.88289811,-0.015568,-0.040934,-0.013917
13.850143000017852,13.850143000017852,0.0,0.0,2.198006449907318,0.0,0.0,0.18336852,-1.6428316500000002,10.26130905,-0.00931,-0.002517,0.003596
13.870128999929875,13.870128999929875,0.0,0.0,2.1978727873042168,0.0,0.0,0.11256975,-0.33410898,9.44326296,0.036564,0.005712,-0.00757
13.890114999958314,13.890114999958314,0.0,0.0,2.1982729923924005,0.0,0.0,0.46508229,0.57016701,10.218046950000002,0.00359,-0.043935,0.022105
13.910100999986753,13.910100999986753,0.0,0.0,2.1979141028980393,0.0,0.0,-0.21584943,1.58280426,10.02824307,0.023074,-0.082442,-0.020384
13.930087000015192,13.930087000015192,0.0,0.0,2.1979109912247115,0.0,0.0,0.8297199900000001,1.91901258,10.37297628,0.003614,-0.065047,-0.000215
13.950072999927215,13.950072999927215,0.0,0.0,2.1982695218165986,0.0,0.0,0.25193061,2.58976152,9.57334356,0.013888,0.02934,0.020084
13.970058999955654,13.970058999955654,0.0,0.0,2.1978495732671526,0.0,0.0,0.33215679,2.47315986,10.00774017,-0.018424,0.001631,-0.024006
14.010031000012532,14.010031000012532,0.0,0.0,2.1978828526106193,0.0,0.0,-0.17678601,0.71401104,9.69548787,-0.000775,-0.00085,0.002376
14.030016999924555,14.030016999924555,0.0,0.0,2.197456122745585,0.0,0.0,-0.14639463,-0.7200049500000001,9.8617968,-0.074643,-0.029683,-0.022012
14.05000199994538,14.05000199994538,0.0,0.0,2.1968168197650915,0.0,0.0,-0.1357704,-1.04138055,10.2813705,0.004188,0.010433,-0.033282
14.05000199994538,14.05000199994538,0.0,0.0,2.1963853823232755,0.0,0.0,-0.1357704,-1.04138055,10.2813705,0.004188,0.010433,-0.033282
14.089974000002258,14.089974000002258,0.0,0.0,2.196552149547351,0.0,0.0,0.29069973,-2.02783491,9.7610481,-0.013765,0.006303,0.021201
14.089974000002258,14.089974000002258,0.0,0.0,2.1970009452481243,0.0,0.0,0.29069973,-2.02783491,9.7610481,-0.013765,0.006303,0.021201
14.089974000002258,14.089974000002258,0.0,0.0,2.197351414995543,0.0,0.0,0.29069973,-2.02783491,9.7610481,-0.013765,0.006303,0.021201
14.12994599994272,14.12994599994272,0.0,0.0,2.1979592800162706,0.0,0.0,0.41253993,-1.1047041,10.01372427,-0.006688,-0.000225,0.037218
14.149931999971159,14.149931999971159,0.0,0.0,2.197131027544481,0.0,0.0,0.10313253,-0.11945637,9.326955600000002,0.021748,-0.007079,-0.050882
14.149931999971159,14.149931999971159,0.0,0.0,2.1964226156151216,0.0,0.0,0.10313253,-0.11945637,9.326955600000002,0.021748,-0.007079,-0.050882
14.149931999971159,14.149931999971159,0.0,0.0,2.195860808611738,0.0,0.0,0.10313253,-0.11945637,9.326955600000002,0.021748,-0.007079,-0.050882
14.169917999999598,14.169917999999598,0.0,0.0,2.1956345087661377,0.0,0.0,0.45206442,1.14392448,10.43090433,0.04795,-0.026245,-0.010719
14.20988999994006,14.20988999994006,0.0,0.0,2.195318729975579,0.0,0.0,-0.01377324,2.19608622,10.12598991,0.017823,0.019833,-0.000891
14.269848000025377,14.269848000025377,0.0,0.0,2.1946220365957485,0.0,0.0,0.21899844,1.23029172,10.09500993,-0.023262,0.008835,-0.013114
14.2898339999374,14.2898339999374,0.0,0.0,2.195285687822949,0.0,0.0,0.0666099,0.57031416,9.69952959,-0.001879,0.0082,0.034587
14.329805999994278,14.329805999994278,0.0,0.0,2.195054920934629,0.0,0.0,0.20357712,-1.60676028,10.31145777,-0.023478,-0.017753,-0.007092
14.349792000022717,14.349792000022717,0.0,0.0,2.195079609482745,0.0,0.0,0.10403505,-2.03831199,10.00878984,-0.008918,0.049685,0.000998
14.36977799993474,14.36977799993474,0.0,0.0,2.1952081013692375,0.0,0.0,0.53663643,-1.93621932,9.828109260000002,0.008065,0.011838,0.006244
14.36977799993474,14.36977799993474,0.0,0.0,2.1953604517759047,0.0,0.0,0.53663643,-1.93621932,9.828109260000002,0.008065,0.011838,0.006244
14.389762999955565,14.389762999955565,0.0,0.0,2.195218088954258,0.0,0.0,0.50085936,-1.62187749,10.0063962,-0.033549,0.046516,-0.007892
14.409748999984004,14.409748999984004,0.0,0.0,2.1952442110215387,0.0,0.0,0.9234251100000002,-0.09729558,10.13272938,0.036302,-0.012854,0.001763
14.429735000012442,14.429735000012442,0.0,0.0,2.1952652988987413,0.0,0.0,0.01212516,-0.02544714,9.94950801,0.001135,-0.030152,0.001417
14.469706999952905,14.469706999952905,0.0,0.0,2.1950977499726907,0.0,0.0,0.12169305,2.1318699600000004,9.89188407,0.040142,-0.007863,-0.007331
14.489692999981344,14.489692999981344,0.0,0.0,2.1950978740972573,0.0,0.0,-0.24414147,2.19099483,9.61180857,-0.001074,-0.007345,9.1e-05
14.509679000009783,14.509679000009783,0.0,0.0,2.1965128109483,0.0,0.0,0.89229798,2.30131809,9.99351567,-0.0032,0.020434,0.074659
14.529664999921806,14.529664999921806,0.0,0.0,2.195661466693415,0.0,0.0,-0.74784573,1.6831017,9.95534496,-0.019084,0.023017,-0.04593
14.549650999950245,14.549650999950245,0.0,0.0,2.1950344603455996,0.0,0.0,0.34503732,1.14780924,9.61061175,0.003147,-0.002154,-0.033827
14.569636999978684,14.569636999978684,0.0,0.0,2.1958551023028914,0.0,0.0,0.6568383600000001,-0.21031659,10.24035489,-0.029808,-0.014969,0.044809
14.589623000007123,14.589623000007123,0.0,0.0,2.195299673563925,0.0,0.0,-0.56163231,-0.76475817,9.41392125,-0.015968,0.016197,-0.030641
14.609608999919146,14.609608999919146,0.0,0.0,2.194337775425682,0.0,0.0,0.5224119300000001,-1.93621932,10.22763132,-0.019576,0.006941,-0.052777
14.629594999947585,14.629594999947585,0.0,0.0,2.194019246432047,0.0,0.0,0.47691315,-1.58894532,10.08841761,0.020037,0.012886,-0.016746
14.649580999976024,14.649580999976024,0.0,0.0,2.1939042655593264,0.0,0.0,0.16690734,-1.54403514,10.08857457,0.00027,0.007265,-0.005342
14.689552999916486,14.689552999916486,0.0,0.0,2.1952930017077215,0.0,0.0,-0.0751446,-0.3501189,9.78350319,-0.009311,-0.026575,0.078949
14.689552999916486,14.689552999916486,0.0,0.0,2.1965892684793245,0.0,0.0,-0.0751446,-0.3501189,9.78350319,-0.009311,-0.026575,0.078949
14.689552999916486,14.689552999916486,0.0,0.0,2.197590551934816,0.0,0.0,-0.0751446,-0.3501189,9.78350319,-0.009311,-0.026575,0.078949
14.709538999944925,14.709538999944925,0.0,0.0,2.1993093602050937,0.0,0.0,0.10448631,0.71670879,9.33728553,0.009921,-0.023161,0.104606
14.769496999913827,14.769496999913827,0.0,0.0,2.199817096012456,0.0,0.0,0.53633232,2.11644864,9.55762794,0.012039,-0.027389,-0.039276
14.789482999942265,14.789482999942265,0.0,0.0,2.199807904196031,0.0,0.0,0.47885553,1.7811428400000002,9.95833701,-0.005324,-0.014868,-0.001577
14.809468999970704,14.809468999970704,0.0,0.0,2.199176084664529,0.0,0.0,0.00329616,1.35438822,9.56630979,0.006883,0.004754,-0.034772
14.829453999991529,14.829453999991529,0.0,0.0,2.1993699646140747,0.0,0.0,0.41344245,0.6478524,9.78784902,0.001733,-0.013369,0.009698
14.849440000019968,14.849440000019968,0.0,0.0,2.1997213722580877,0.0,0.0,0.10552617,-0.27453285,9.58561587,-0.036968,0.02062,0.018239
14.869425999931991,14.869425999931991,0.0,0.0,2.199698575394345,0.0,0.0,0.20627487,-0.79230465,9.69503661,-0.027575,-0.025385,-0.002245
14.88941199996043,14.88941199996043,0.0,0.0,2.1994359700948127,0.0,0.0,-0.07349652,-1.52817237,9.841735350000002,-0.036566,0.010506,-0.015338
14.909397999988869,14.909397999988869,0.0,0.0,2.1994838078760903,0.0,0.0,0.30790647,-1.32234876,9.817033770000002,0.013871,0.007064,0.002034
14.929384000017308,14.929384000017308,0.0,0.0,2.1993624263056777,0.0,0.0,0.01826622,-1.3066331400000002,9.87227388,-0.005692,0.009116,-0.007334
14.96935599995777,14.96935599995777,0.0,0.0,2.200127738598793,0.0,0.0,0.48483963,0.17722746,9.98124336,-0.016291,-0.051666,0.034837
14.96935599995777,14.96935599995777,0.0,0.0,2.2005884931951574,0.0,0.0,0.48483963,0.17722746,9.98124336,-0.016291,-0.051666,0.034837
15.009328000014648,15.009328000014648,0.0,0.0,2.200390644630745,0.0,0.0,0.26958861,1.7989578,9.85835349,-0.002805,-0.030625,-0.022877
15.009328000014648,15.009328000014648,0.0,0.0,2.1998942218772566,0.0,0.0,0.26958861,1.7989578,9.85835349,-0.002805,-0.030625,-0.022877
15.029313999926671,15.029313999926671,0.0,0.0,2.1994604686938146,0.0,0.0,0.35416062,2.73107457,9.47829447,0.042331,0.014316,-0.026278
15.06928599998355,15.06928599998355,0.0,0.0,2.1995585645359377,0.0,0.0,-0.09415638,2.5376704200000004,9.62363943,-0.00385,0.006614,0.006098
15.089272000011988,15.089272000011988,0.0,0.0,2.2001257021837723,0.0,0.0,0.16211025,1.7431290900000005,9.59070726,-0.008211,0.000217,0.030431
15.089272000011988,15.089272000011988,0.0,0.0,2.2005500276295535,0.0,0.0,0.16211025,1.7431290900000005,9.59070726,-0.008211,0.000217,0.030431
15.12924399995245,15.12924399995245,0.0,0.0,2.200472015338577,0.0,0.0,-0.0511983899999999,-0.34174116,9.75341592,-0.042087,0.030608,-0.013353
15.14922999998089,15.14922999998089,0.0,0.0,2.2014971257874,0.0,0.0,0.7198578,-1.59508638,10.49647437,-0.025843,-0.016842,0.055955
15.169216000009328,15.169216000009328,0.0,0.0,2.202056215668261,0.0,0.0,-0.09714843,-1.9173645,10.03363857,-0.001442,0.023176,0.02969
15.189201999921352,15.189201999921352,0.0,0.0,2.2020299132723444,0.0,0.0,0.23007393,-1.7744131800000005,9.90805095,0.007402,0.009227,-0.003046
15.20918799994979,15.20918799994979,0.0,0.0,2.2019413929282603,0.0,0.0,0.03248091,-1.3338755100000002,9.8156898,0.012978,0.008795,-0.006323
15.22917399997823,15.22917399997823,0.0,0.0,2.2017986194111607,0.0,0.0,0.34054434,-0.5051953800000001,9.80521272,0.012028,-0.002726,-0.009139
15.249160000006668,15.249160000006668,0.0,0.0,2.201475479920189,0.0,0.0,-0.33514884,0.69845238,9.56660409,0.058961,0.035938,-0.019038
15.269145999918692,15.269145999918692,0.0,0.0,2.203761630631462,0.0,0.0,0.66536325,0.75248586,10.30607208,-0.03039,-0.011736,0.128523
15.28913199994713,15.28913199994713,0.0,0.0,2.218766368441484,0.0,0.0,2.34023436,2.75652171,9.54055854,0.125401,0.042133,0.84608
15.28913199994713,15.28913199994713,0.0,0.0,2.22994995904158,0.0,0.0,2.34023436,2.75652171,9.54055854,0.125401,0.042133,0.84608
15.28913199994713,15.28913199994713,0.0,0.0,2.2387893456013437,0.0,0.0,2.34023436,2.75652171,9.54055854,0.125401,0.042133,0.84608
15.349089999916032,15.349089999916032,0.0,0.0,2.2742819500619325,0.0,0.0,0.46268865,2.4679213200000003,9.79921881,0.014721,0.080918,1.355924
15.36907599994447,15.36907599994447,0.0,0.0,2.299313281650977,0.0,0.0,0.08442486,2.27242764,10.90063656,-0.002145,0.022734,1.3739
15.409048000001349,15.409048000001349,0.0,0.0,2.3401675608382195,0.0,0.0,0.64950048,1.1060480700000002,10.53493938,0.001941,0.04064,1.505105
15.429033999913372,15.429033999913372,0.0,0.0,2.369835337702524,0.0,0.0,0.11451213,1.4983794,10.60484544,0.025525,0.101732,1.51578
15.449019999941811,15.449019999941811,0.0,0.0,2.398513996476404,0.0,0.0,-0.09430353,0.54127656,10.61547948,-0.014753,0.0705,1.467271
15.46900599997025,15.46900599997025,0.0,0.0,2.4261885367852782,0.0,0.0,0.10373094,0.43319979,8.69855643,0.026854,0.014212,1.414829
15.488991999998689,15.488991999998689,0.0,0.0,2.4541888988873364,0.0,0.0,0.06466752,-0.33784659,9.78005988,0.00117,0.002802,1.431908
15.528962999931537,15.528962999931537,0.0,0.0,2.5035590615911474,0.0,0.0,-0.11376657,-0.5695686,8.77101309,0.061854,0.036757,1.41371
15.548948999959975,15.548948999959975,0.0,0.0,2.5343321701280797,0.0,0.0,-0.59426037,-1.86047631,10.57026519,-0.018858,0.102438,1.538141
15.568934999988414,15.568934999988414,0.0,0.0,2.5646820443209384,0.0,0.0,-0.01870767,-1.05515379,9.49131234,0.040868,0.05114,1.523556
15.588921000016853,15.588921000016853,0.0,0.0,2.5945701959082186,0.0,0.0,-0.6674625900000001,-1.63206027,10.05788889,-0.009517,0.011376,1.503831
15.608906999928877,15.608906999928877,0.0,0.0,2.6243432440702783,0.0,0.0,-0.47601063,-0.7011403199999999,10.38480714,0.026177,0.008036,1.499994
15.608906999928877,15.608906999928877,0.0,0.0,2.6278625027660647,0.0,0.0,-0.47601063,-0.7011403199999999,10.38480714,0.026177,0.008036,1.499994
15.648879999993369,15.648879999993369,0.0,0.0,2.685656693274586,0.0,0.0,0.5665765500000001,-0.87508143,10.51668297,0.024844,0.048841,1.594068
15.668866000021808,15.668866000021808,0.0,0.0,2.7162176016992152,0.0,0.0,-0.8497814400000001,-0.5174775,9.16259886,0.040348,0.014104,1.5432
15.688851999933831,15.688851999933831,0.0,0.0,2.7453538512018607,0.0,0.0,-0.46942812,0.11855385,9.79413723,0.058493,0.141378,1.464729
15.70883799996227,15.70883799996227,0.0,0.0,2.7750698848783184,0.0,0.0,0.98420787,-0.15687171,8.48166714,0.01919,-0.017699,1.496017
15.72882399999071,15.72882399999071,0.0,0.0,2.805265141014388,0.0,0.0,-0.24638796,0.33141123,9.34013043,-0.000105,0.0656,1.521656
15.748810000019148,15.748810000019148,0.0,0.0,2.836039101523834,0.0,0.0,0.74230308,1.2003516,9.75326877,0.082705,0.128555,1.552701
15.768795999931172,15.768795999931172,0.0,0.0,2.86714735131601,0.0,0.0,0.04460607,0.46178613,9.40853556,0.034277,0.053511,1.569957
15.80876799998805,15.80876799998805,0.0,0.0,2.9267609683472013,0.0,0.0,0.65473902,1.22280669,9.02458197,0.062042,0.10534,1.526997
15.80876799998805,15.80876799998805,0.0,0.0,2.9278013113121144,0.0,0.0,0.65473902,1.22280669,9.02458197,0.062042,0.10534,1.526997
15.848739999928512,15.848739999928512,0.0,0.0,2.9879496840653417,0.0,0.0,0.72823554,1.3690541699999998,9.28773522,0.022058,0.047437,1.53756
15.848739999928512,15.848739999928512,0.0,0.0,2.9888541675792215,0.0,0.0,0.72823554,1.3690541699999998,9.28773522,0.022058,0.047437,1.53756
15.88871199998539,15.88871199998539,0.0,0.0,3.0498057018231286,0.0,0.0,0.41134311,1.07146782,9.61345665,0.022795,0.024626,1.564065
15.88871199998539,15.88871199998539,0.0,0.0,3.0508396878239292,0.0,0.0,0.41134311,1.07146782,9.61345665,0.022795,0.024626,1.564065
15.88871199998539,15.88871199998539,0.0,0.0,3.0516445252366324,0.0,0.0,0.41134311,1.07146782,9.61345665,0.022795,0.024626,1.564065
15.88871199998539,15.88871199998539,0.0,0.0,3.0522887900110547,0.0,0.0,0.41134311,1.07146782,9.61345665,0.022795,0.024626,1.564065
15.908698000013828,15.908698000013828,0.0,0.0,3.0823820400661663,0.0,0.0,0.02754648,0.48005235,10.39648104,-0.010817,0.026884,1.498923
15.908698000013828,15.908698000013828,0.0,0.0,3.0821550462994107,0.0,0.0,0.02754648,0.48005235,10.39648104,-0.010817,0.026884,1.498923
15.908698000013828,15.908698000013828,0.0,0.0,3.0819680465755166,0.0,0.0,0.02754648,0.48005235,10.39648104,-0.010817,0.026884,1.498923
15.928683999925852,15.928683999925852,0.0,0.0,3.1114211358127486,0.0,0.0,0.5441214600000001,1.11443562,9.39595914,0.032853,0.098205,1.444408
15.96865599998273,15.96865599998273,0.0,0.0,-3.1100266708675006,0.0,0.0,-0.35161983,0.30416886,9.63232128,0.008928,-0.013547,1.616094
16.008627999923192,16.008627999923192,0.0,0.0,-3.0489884934009677,0.0,0.0,-0.23545962,0.04415481,10.72894194,0.016846,0.024551,1.536747
16.06858600000851,16.06858600000851,0.0,0.0,-2.956749279566556,0.0,0.0,-0.5977036800000001,-0.29668383,10.06836597,-0.001769,0.071992,1.569018
16.10855799994897,16.10855799994897,0.0,0.0,-2.894557106717791,0.0,0.0,-0.7687998899999999,-0.11795544,9.79233219,0.067745,0.084113,1.57613
16.12854399997741,16.12854399997741,0.0,0.0,-2.863264088478797,0.0,0.0,-0.30386475,-0.17798283,10.262662830000002,0.022994,0.094909,1.563749
16.168515999917872,16.168515999917872,0.0,0.0,-2.8016750814459233,0.0,0.0,-0.04295799,0.09490194,11.01634551,-0.007051,0.043569,1.539699
16.168515999917872,16.168515999917872,0.0,0.0,-2.801719124197277,0.0,0.0,-0.04295799,0.09490194,11.01634551,-0.007051,0.043569,1.539699
16.208486999967135,16.208486999967135,0.0,0.0,-2.7384794295700985,0.0,0.0,0.18891117,-0.01721655,10.13497587,0.014562,0.122738,1.616261
16.208486999967135,16.208486999967135,0.0,0.0,-2.7372926093985552,0.0,0.0,0.18891117,-0.01721655,10.13497587,0.014562,0.122738,1.616261
16.248459999915212,16.248459999915212,0.0,0.0,-2.6756434369774507,0.0,0.0,-0.23980545,0.39787398,10.27522944,-0.012731,-0.025801,1.524061
16.26844599994365,16.26844599994365,0.0,0.0,-2.650302952753225,0.0,0.0,-0.46553355,-0.03682674,10.17030168,0.004235,0.047207,1.270227
16.288430999964476,16.288430999964476,0.0,0.0,-2.627526504169526,0.0,0.0,-0.50145777,0.2430918,10.28017368,0.03574,0.083441,1.135823
16.30841800000053,16.30841800000053,0.0,0.0,-2.607810485125271,0.0,0.0,0.38844657,-0.03173535,10.60379577,0.030866,0.021131,0.973729
16.328404000028968,16.328404000028968,0.0,0.0,-2.590291191869897,0.0,0.0,-0.18710613,0.24668226,9.89457201,0.020039,0.032247,0.855186
16.34838999994099,16.34838999994099,0.0,0.0,-2.5811714046286203,0.0,0.0,-0.73362123,0.15418377,9.71015382,-0.003646,-0.025757,0.409304
16.368374999961816,16.368374999961816,0.0,0.0,-2.591113206881077,0.0,0.0,-1.95733044,0.83256489,11.20883733,0.052644,-0.114534,-0.609273
16.408348000026308,16.408348000026308,0.0,0.0,-2.5740195680857414,0.0,0.0,0.49366863,0.87582699,9.84577707,-0.036194,0.026853,-0.069952
16.408348000026308,16.408348000026308,0.0,0.0,-2.589605078985857,0.0,0.0,0.49366863,0.87582699,9.84577707,-0.036194,0.026853,-0.069952
16.44831999996677,16.44831999996677,0.0,0.0,-2.577889459515013,0.0,0.0,0.8241871500000001,-2.25880155,10.45126989,-0.033723,-0.009541,-0.113373
16.44831999996677,16.44831999996677,0.0,0.0,-2.5897032277742977,0.0,0.0,0.8241871500000001,-2.25880155,10.45126989,-0.033723,-0.009541,-0.113373
16.488292000023648,16.488292000023648,0.0,0.0,-2.5805604674713525,0.0,0.0,0.33874911,-2.31748497,9.16544376,0.024319,0.009759,-0.052203
16.488292000023648,16.488292000023648,0.0,0.0,-2.5882692725696574,0.0,0.0,0.33874911,-2.31748497,9.16544376,0.024319,0.009759,-0.052203
16.488292000023648,16.488292000023648,0.0,0.0,-2.594266252892741,0.0,0.0,0.33874911,-2.31748497,9.16544376,0.024319,0.009759,-0.052203
16.50827799993567,16.50827799993567,0.0,0.0,-2.5954490179605343,0.0,0.0,0.36240102,-1.49703543,8.805593340000001,0.00403,0.060616,-0.177564
16.54824999999255,16.54824999999255,0.0,0.0,-2.587225148353574,0.0,0.0,-0.01616688,0.4429313099999999,9.70761303,0.014347,-0.004641,0.145674
16.588221999933012,16.588221999933012,0.0,0.0,-2.579812003459147,0.0,0.0,0.55654092,1.13254488,9.99771435,0.029265,-0.04878,0.12991
16.60820799996145,16.60820799996145,0.0,0.0,-2.578011708113464,0.0,0.0,-0.44188164,1.2091806,9.89756406,-0.010457,0.050053,0.082587
16.62819399998989,16.62819399998989,0.0,0.0,-2.5767761227554202,0.0,0.0,-0.7578715500000001,1.22789808,9.68650191,-0.003969,-0.022898,0.052364
16.64818000001833,16.64818000001833,0.0,0.0,-2.5763083337448935,0.0,0.0,-0.95381649,0.8527734900000001,9.86089428,-0.009298,0.006108,0.011252
16.668165999930352,16.668165999930352,0.0,0.0,-2.57665019854524,0.0,0.0,-0.44621766,0.4504163400000001,9.72707607,-0.00242,0.01119,-0.032086
16.68815199995879,16.68815199995879,0.0,0.0,-2.5763476073913614,0.0,0.0,0.30446316,-0.18995103,9.87765957,0.000856,-0.010199,0.004286
16.72812400001567,16.72812400001567,0.0,0.0,-2.5725963908228553,0.0,0.0,0.32138541,-1.24750827,9.96163317,-0.004664,0.014976,0.074643
16.72812400001567,16.72812400001567,0.0,0.0,-2.5731738863623543,0.0,0.0,0.32138541,-1.24750827,9.96163317,-0.004664,0.014976,0.074643
16.76809599995613,16.76809599995613,0.0,0.0,-2.5708553388108175,0.0,0.0,0.44666892,-1.00501488,10.06985709,0.012011,-0.037708,0.010097
16.76809599995613,16.76809599995613,0.0,0.0,-2.5722065867345405,0.0,0.0,0.44666892,-1.00501488,10.06985709,0.012011,-0.037708,0.010097
16.78808199998457,16.78808199998457,0.0,0.0,-2.571387970446021,0.0,0.0,-0.07978473,-0.49411989,9.73111779,0.009368,0.000255,0.034165
16.78808199998457,16.78808199998457,0.0,0.0,-2.571985781650134,0.0,0.0,-0.07978473,-0.49411989,9.73111779,0.009368,0.000255,0.034165
16.80806800001301,16.80806800001301,0.0,0.0,-2.571486472090583,0.0,0.0,-0.08562168,0.0287433,9.81478728,0.015085,0.008604,0.011392
16.84803999995347,16.84803999995347,0.0,0.0,-2.5695806420175002,0.0,0.0,0.36704115,1.22175702,10.03588506,0.005051,-0.006729,0.028208
16.88801200001035,16.88801200001035,0.0,0.0,-2.5691057402948663,0.0,0.0,-0.3408386399999999,1.1946618,9.68142033,0.0003,0.003657,-0.037235
16.907997999922372,16.907997999922372,0.0,0.0,-2.5697776953825793,0.0,0.0,0.02394621,1.08014967,9.46751328,-0.007286,0.020695,-0.037305
16.92798399995081,16.92798399995081,0.0,0.0,-2.5701104470383274,0.0,0.0,0.5580418500000001,0.38245266,10.267146,-0.015118,-0.021343,-0.019539
16.94796999997925,16.94796999997925,0.0,0.0,-2.5696648531997393,0.0,0.0,0.13262139,0.01781496,9.89861373,-0.018331,-0.020709,0.022136
16.96795600000769,16.96795600000769,0.0,0.0,-2.5695337173697865,0.0,0.0,0.18650772,-0.58662819,9.87900354,-0.019827,-0.053064,0.005153
17.00792799994815,17.00792799994815,0.0,0.0,-2.568702768610734,0.0,0.0,0.25791471,-1.08284742,10.01073222,0.013935,0.035694,0.020002
17.00792799994815,17.00792799994815,0.0,0.0,-2.5687269158634645,0.0,0.0,0.25791471,-1.08284742,10.01073222,0.013935,0.035694,0.020002
17.04790000000503,17.04790000000503,0.0,0.0,-2.568685071341477,0.0,0.0,0.07679268,-0.50535234,9.474399900000002,0.007143,-0.022607,-0.019886
17.04790000000503,17.04790000000503,0.0,0.0,-2.5692850639100264,0.0,0.0,0.07679268,-0.50535234,9.474399900000002,0.007143,-0.022607,-0.019886
17.08787199994549,17.08787199994549,0.0,0.0,-2.5687978825135653,0.0,0.0,-0.16630893,0.19504242,9.995762160000002,0.022312,0.013849,0.0138
17.08787199994549,17.08787199994549,0.0,0.0,-2.568754087424376,0.0,0.0,-0.16630893,0.19504242,9.995762160000002,0.022312,0.013849,0.0138
17.08787199994549,17.08787199994549,0.0,0.0,-2.568720049859337,0.0,0.0,-0.16630893,0.19504242,9.995762160000002,0.022312,0.013849,0.0138
17.12784400000237,17.12784400000237,0.0,0.0,-2.568293395152711,0.0,0.0,0.05883057,1.21577292,9.87691401,0.006269,0.004608,0.00917
17.16781599994283,17.16781599994283,0.0,0.0,-2.5676983313173625,0.0,0.0,0.11001915,1.19391624,9.89636724,0.00221,-0.000412,0.018821
17.18780199997127,17.18780199997127,0.0,0.0,-2.569078836120247,0.0,0.0,0.00014715,0.94917636,9.68426523,-0.007661,-0.007877,-0.075255
17.20778799999971,17.20778799999971,0.0,0.0,-2.5704058930889047,0.0,0.0,0.34428195,0.41822973,9.80445735,-0.00148,0.001626,-0.071998
17.22777400002815,17.22777400002815,0.0,0.0,-2.569453387176762,0.0,0.0,0.7985928600000001,-0.68781834,9.94113027,-0.032872,-0.036731,0.052974
17.247759999940172,17.247759999940172,0.0,0.0,-2.568451868441262,0.0,0.0,-0.36987624,-1.10095668,10.46323809,-0.008375,0.061751,0.055209
17.26774599996861,17.26774599996861,0.0,0.0,-2.5686239741585233,0.0,0.0,-0.04550859,-1.2145761000000002,10.20158577,0.019288,0.052562,-0.010182
17.28773199999705,17.28773199999705,0.0,0.0,-2.568417626094381,0.0,0.0,0.1360647,-1.1832920100000002,9.7547697,0.005309,-0.006554,0.011015
17.30771800002549,17.30771800002549,0.0,0.0,-2.5678359886796605,0.0,0.0,0.35671122,-0.5634275400000001,9.83559429,0.014859,-0.011174,0.031888
17.327703999937512,17.327703999937512,0.0,0.0,-2.567031245503591,0.0,0.0,0.57765204,-0.26748927,9.43831872,0.018231,-0.012379,0.044066
17.34768999996595,17.34768999996595,0.0,0.0,-2.567610558249233,0.0,0.0,-0.31913892,0.1651023,9.48562254,0.027711,-0.023597,-0.034232
17.36767599999439,17.36767599999439,0.0,0.0,-2.5688363244877177,0.0,0.0,-0.23800041,0.47601063,10.266106140000002,0.04233,0.053566,-0.070039
17.407647999934852,17.407647999934852,0.0,0.0,-2.5684873185016714,0.0,0.0,-0.08232552,1.3787856900000002,9.5612184,0.005891,-0.012251,0.021084
17.407647999934852,17.407647999934852,0.0,0.0,-2.5681327924723716,0.0,0.0,-0.08232552,1.3787856900000002,9.5612184,0.005891,-0.012251,0.021084
17.42763399996329,17.42763399996329,0.0,0.0,-2.56765155120173,0.0,0.0,-0.34743096,1.3674060900000002,9.65851398,-0.007158,-0.014835,0.027572
17.46760600002017,17.46760600002017,0.0,0.0,-2.5667597472107895,0.0,0.0,0.16121754,0.31374342,9.88948062,-0.008458,-0.01382,0.039958
17.487591999932192,17.487591999932192,0.0,0.0,-2.566795240793296,0.0,0.0,0.10552617,-0.1070271,9.74264454,-0.012663,0.005122,-0.002542
17.487591999932192,17.487591999932192,0.0,0.0,-2.5669885688842538,0.0,0.0,0.10552617,-0.1070271,9.74264454,-0.012663,0.005122,-0.002542
17.52756399998907,17.52756399998907,0.0,0.0,-2.566912731403027,0.0,0.0,0.39966921,-1.12865031,9.928848150000002,-0.017129,-0.017882,-0.004878
17.54755000001751,17.54755000001751,0.0,0.0,-2.5672152902767507,0.0,0.0,0.12903093,-0.7707520800000001,9.94337676,-0.002362,0.042769,-0.017053
17.567535999929532,17.567535999929532,0.0,0.0,-2.567314079635913,0.0,0.0,0.31479309,-0.7810722,10.00235448,-0.019859,0.004564,-0.005696
17.58752199995797,17.58752199995797,0.0,0.0,-2.56679576212699,0.0,0.0,0.12034908,-0.17258733,9.34372089,0.006517,-0.014097,0.028469
17.60750799998641,17.60750799998641,0.0,0.0,-2.565701099793638,0.0,0.0,-0.12708855,-0.05837931,9.67498497,0.011254,-0.024273,0.06021
17.62749400001485,17.62749400001485,0.0,0.0,-2.5654930145725294,0.0,0.0,-0.37482048,0.53109378,9.69608628,0.03344,-0.02151,0.010156
17.647478999919258,17.647478999919258,0.0,0.0,-2.5665111740379922,0.0,0.0,-0.37556604,0.47660904,10.27522944,-0.000961,-0.005912,-0.058489
17.687450999976136,17.687450999976136,0.0,0.0,-2.5676722609639526,0.0,0.0,-0.26480133,1.20978882,9.90968922,0.020311,0.032378,-0.061687
17.687450999976136,17.687450999976136,0.0,0.0,-2.5686195105581655,0.0,0.0,-0.26480133,1.20978882,9.90968922,0.020311,0.032378,-0.061687
17.687450999976136,17.687450999976136,0.0,0.0,-2.5693507334573376,0.0,0.0,-0.26480133,1.20978882,9.90968922,0.020311,0.032378,-0.061687
17.707437000004575,17.707437000004575,0.0,0.0,-2.5689190416904673,0.0,0.0,0.43559343,1.46739942,9.98169462,0.004007,0.042278,0.033545
17.767394999973476,17.767394999973476,0.0,0.0,-2.5700277570611703,0.0,0.0,-0.20956122,-0.57794634,9.573637860000002,-0.018488,-0.022257,-0.030243
17.787381000001915,17.787381000001915,0.0,0.0,-2.5709708945827874,0.0,0.0,0.49247181,-0.90337347,10.00130481,-0.013641,-0.035897,-0.048969
17.80736699991394,17.80736699991394,0.0,0.0,-2.5716879289417656,0.0,0.0,0.02649681,-1.16337771,9.86643693,-0.0162,0.039561,-0.03691
17.827352999942377,17.827352999942377,0.0,0.0,-2.5714946305898847,0.0,0.0,0.14594337,-0.58858038,9.90415638,0.003647,-0.011822,0.012164
17.847338999970816,17.847338999970816,0.0,0.0,-2.570915736360518,0.0,0.0,-0.21884148,-0.21989115,9.8879895,0.001381,0.012377,0.032969
17.887311000027694,17.887311000027694,0.0,0.0,-2.5709819488335315,0.0,0.0,0.2977335,0.32722236,10.16790804,0.04259,0.01774,0.007306
17.887311000027694,17.887311000027694,0.0,0.0,-2.5707089305109725,0.0,0.0,0.2977335,0.32722236,10.16790804,0.04259,0.01774,0.007306
17.907296999939717,17.907296999939717,0.0,0.0,-2.5715930748829936,0.0,0.0,0.01497006,0.70264125,10.09441152,0.021725,0.044444,-0.049386
17.927282999968156,17.927282999968156,0.0,0.0,-2.5718103682635958,0.0,0.0,-0.03831786,0.62030592,9.980350650000002,0.000108,0.037549,-0.010743
17.967255000025034,17.967255000025034,0.0,0.0,-2.572486721149338,0.0,0.0,-0.3107513699999999,0.8208909900000001,9.98064495,-0.009157,0.010323,-0.022438
17.967255000025034,17.967255000025034,0.0,0.0,-2.5726429435235665,0.0,0.0,-0.3107513699999999,0.8208909900000001,9.98064495,-0.009157,0.010323,-0.022438
18.007226999965496,18.007226999965496,0.0,0.0,-2.5723155150280124,0.0,0.0,0.16615197,0.19444401,9.68546205,-0.017025,-0.012527,0.033332
18.007226999965496,18.007226999965496,0.0,0.0,-2.571638565388736,0.0,0.0,0.16615197,0.19444401,9.68546205,-0.017025,-0.012527,0.033332
18.007226999965496,18.007226999965496,0.0,0.0,-2.571112602817039,0.0,0.0,0.16615197,0.19444401,9.68546205,-0.017025,-0.012527,0.033332
18.027212999993935,18.027212999993935,0.0,0.0,-2.570815009640946,0.0,0.0,0.182466,-0.04879494,9.73739619,-0.01235,0.00295,0.019362
18.087170999962837,18.087170999962837,0.0,0.0,-2.571428662375381,0.0,0.0,0.10492776,-0.56596833,9.33398937,-0.020567,-0.04949,-0.040934
18.087170999962837,18.087170999962837,0.0,0.0,-2.5720431462025832,0.0,0.0,0.10492776,-0.56596833,9.33398937,-0.020567,-0.04949,-0.040934
18.127143000019714,18.127143000019714,0.0,0.0,-2.5715031579922254,0.0,0.0,-0.04775508,0.06406911,9.47679354,0.012716,0.03822,0.038938
18.147128999931738,18.147128999931738,0.0,0.0,-2.570935396295392,0.0,0.0,0.02454462,0.31105548,9.41751171,0.024041,0.040813,0.0313
18.167114999960177,18.167114999960177,0.0,0.0,-2.5706842976423667,0.0,0.0,-0.15418377,0.35521029,9.89248248,0.04921,-0.027217,0.013508
18.187100999988616,18.187100999988616,0.0,0.0,-2.5712365722232655,0.0,0.0,-0.68408073,0.65039319,10.05668226,-0.009125,0.04231,-0.031171
18.207087000017054,18.207087000017054,0.0,0.0,-2.571850208804531,0.0,0.0,-0.01721655,1.05380982,9.72003249,0.000553,-0.002649,-0.034184
18.247058999957517,18.247058999957517,0.0,0.0,-2.5713487532297976,0.0,0.0,0.17887554,0.7837699499999999,9.76135221,-0.00837,-0.021846,0.030006
18.247058999957517,18.247058999957517,0.0,0.0,-2.5708378191836347,0.0,0.0,0.17887554,0.7837699499999999,9.76135221,-0.00837,-0.021846,0.030006
18.287031000014395,18.287031000014395,0.0,0.0,-2.5707994179187077,0.0,0.0,0.02544714,0.1651023,9.808351920000002,-0.004198,-0.000563,-0.002652
18.287031000014395,18.287031000014395,0.0,0.0,-2.570899273156614,0.0,0.0,0.02544714,0.1651023,9.808351920000002,-0.004198,-0.000563,-0.002652
18.287031000014395,18.287031000014395,0.0,0.0,-2.5709766311722175,0.0,0.0,0.02544714,0.1651023,9.808351920000002,-0.004198,-0.000563,-0.002652
18.307016999926418,18.307016999926418,0.0,0.0,-2.570314875361458,0.0,0.0,0.15447807,-0.24833034,9.61630155,-0.001603,-0.005555,0.043087
18.346988999983296,18.346988999983296,0.0,0.0,-2.5708754228350927,0.0,0.0,-0.08337519,-0.54202212,9.6161544,-0.026953,0.084365,-0.041758
18.386960999923758,18.386960999923758,0.0,0.0,-2.569985183443036,0.0,0.0,-0.13441662,0.2140542,9.80191656,-0.000737,-0.031491,0.046205
18.406946999952197,18.406946999952197,0.0,0.0,-2.569135234466031,0.0,0.0,0.12783411,0.6623712,9.59953626,0.018158,-0.025609,0.044449
18.42693399998825,18.42693399998825,0.0,0.0,-2.569493117525728,0.0,0.0,0.04281084,0.36838512,10.239010920000002,0.008558,0.025963,-0.019891
18.44692000001669,18.44692000001669,0.0,0.0,-2.5689252234282627,0.0,0.0,0.29788065,1.52218827,9.67123755,0.04362,0.021053,0.029958
18.466905999928713,18.466905999928713,0.0,0.0,-2.569226825973977,0.0,0.0,0.05553441,1.3389669,9.471555,0.001803,-0.006144,-0.017283
18.50687799998559,18.50687799998559,0.0,0.0,-2.5689221001961378,0.0,0.0,-0.00718092,0.8599642200000001,9.97286562,0.00097,0.000902,0.00814
18.52686400001403,18.52686400001403,0.0,0.0,-2.5695128476364273,0.0,0.0,-0.25147935,0.55340172,9.74353725,-0.002849,0.008696,-0.029662
18.52686400001403,18.52686400001403,0.0,0.0,-2.570061382231041,0.0,0.0,-0.25147935,0.55340172,9.74353725,-0.002849,0.008696,-0.029662
18.566835999954492,18.566835999954492,0.0,0.0,-2.570220501833152,0.0,0.0,-0.08517042,-0.28860039,9.66106458,-0.020963,0.031989,-0.005962
18.566835999954492,18.566835999954492,0.0,0.0,-2.5702756921699432,0.0,0.0,-0.08517042,-0.28860039,9.66106458,-0.020963,0.031989,-0.005962
18.60680800001137,18.60680800001137,0.0,0.0,-2.5700884024721797,0.0,0.0,0.11690577,-0.39653001,9.7752726,0.004949,-0.011543,0.013489
18.60680800001137,18.60680800001137,0.0,0.0,-2.5698546045444726,0.0,0.0,0.11690577,-0.39653001,9.7752726,0.004949,-0.011543,0.013489
18.626793999923393,18.626793999923393,0.0,0.0,-2.569753663884325,0.0,0.0,0.0261927,-0.09220419,9.73291302,0.008302,-0.010576,0.005894
18.66676599998027,18.66676599998027,0.0,0.0,-2.5695751503229642,0.0,0.0,0.13067901,0.46627911,9.75521115,0.009792,0.001175,0.007752
18.68675200000871,18.68675200000871,0.0,0.0,-2.5692671941658216,0.0,0.0,0.08292393,0.64201545,9.90999333,0.020111,0.005343,0.016553
18.706737999920733,18.706737999920733,0.0,0.0,-2.5580756674610536,0.0,0.0,1.81991196,0.30536568,9.07382817,0.026106,0.157576,0.613232
18.726723999949172,18.726723999949172,0.0,0.0,-2.531700932734133,0.0,0.0,3.0473587800000006,1.7815941,10.64780343,0.000184,0.008967,1.445687
18.74670999997761,18.74670999997761,0.0,0.0,-2.50330225423456,0.0,0.0,-0.04955031,1.06383564,10.7265483,0.003404,0.034504,1.545053
18.76669600000605,18.76669600000605,0.0,0.0,-2.4775055182185852,0.0,0.0,-0.63273519,1.22415066,10.09845324,0.047487,0.065513,1.386591
18.806667999946512,18.806667999946512,0.0,0.0,-2.44121579247557,0.0,0.0,0.29398608,1.83712851,8.231678910000001,-0.038598,0.193163,1.248734
