timestamp,x,y,theta,vx,vy,bias_accel_x,bias_accel_y,bias_angular_velocity,accel_x,accel_y,accel_z,gyro_x,gyro_y,gyro_z,cov_trace
1758010668.9981747,0.0,0.0,0.0,0.0,0.0,-0.07797564603550297,-0.1687952328994083,0.004177313609467455,-0.07724394000000001,-0.16825131000000002,-9.81628821,0.003211,0.000104,0.00402,3.13
1758010669.0210717,0.0,0.0,-3.091111362341081e-05,0.0005199747014124539,0.001289000708367138,-0.07797564603550297,-0.1687952328994083,0.004177313609467455,-0.06856209,-0.16989939,-9.81119682,0.004986,-0.000351,0.004171,3.131571997049888
1758010669.054997,0.0,0.0,-3.091111362341081e-05,0.0005199747014124539,0.001289000708367138,-0.07797564603550297,-0.1687952328994083,0.004177313609467455,-0.06856209,-0.16989939,-9.81119682,0.004986,-0.000351,0.004171,3.131571997049888
1758010669.0798864,-0.018324400749878216,0.0056232449511367565,0.5409274256932317,-0.4530031249273996,0.1614743983072269,-0.07893662659319069,-0.17081024899568747,9.15227952279718e-05,-0.06615864,-0.16435674000000003,-9.82152675,0.003942,0.000235,0.004213,0.60765529109601
1758010669.1022406,-0.01016295430661546,0.0013554960696021382,1.1200385816530298,-0.24216807953674413,0.054207944931830634,-0.08058508599230144,-0.17064708356537786,-5.919068163745546e-05,-0.09789399,-0.16930098,-9.82556847,0.003218,-0.00065,0.005329,0.41180414417568595
1758010669.123094,-0.012344676363065746,0.004420628138126249,1.2600205791301846,-0.26534999179580077,0.12163355921221708,-0.08216676584439261,-0.17268608129641574,-8.631743425782404e-05,-0.07079877000000001,-0.1707921,-9.82062423,0.00234,-0.00013,0.005024,0.33422499552309387
1758010669.1466873,-0.019858904348175818,0.011313184306231239,1.3648456178739732,-0.29118249248159217,0.18773187606246028,-0.08395080999587419,-0.17476732290310074,-0.00010118181937653623,-0.08352234000000001,-0.16076628,-9.82511721,0.003487,-0.000984,0.002826,0.2875473473328276
1758010669.1702359,-0.021121916608077596,0.01782982742291124,1.437246845655796,-0.3332121106364925,0.3090955546946084,-0.08772006854740075,-0.17852779073761763,-9.465945061279987e-05,-0.08157996,-0.16540641000000003,-9.81554265,0.003245,-0.000462,0.002936,0.22504050264829142
1758010669.190662,-0.018470380392357183,0.02453122611804095,1.6441361841047888,-0.2676281800633362,0.3900461913794814,-0.0926613720426612,-0.17943188222663062,-0.00012735405180651458,-0.08397360000000001,-0.16959528000000001,-9.8128449,0.002802,-0.00253,0.002988,0.178258577926846
1758010669.2110002,-0.016910006233458074,0.03153524462087546,1.747265186795043,-0.22870158057478424,0.4737890849962801,-0.09721240459768528,-0.17983366461075337,-0.0001335609970013739,-0.08277678,-0.17035065,-9.82646118,0.004651,-0.000193,0.005327,0.14914468629033426
1758010669.2318344,-0.016910006233458074,0.03153524462087546,1.747265186795043,-0.22870158057478424,0.4737890849962801,-0.09721240459768528,-0.17983366461075337,-0.0001335609970013739,-0.08277678,-0.17035065,-9.82646118,0.004651,-0.000193,0.005327,0.14914468629033426
1758010669.2518466,-0.022723723460914405,0.048266629167099465,1.8157949168850767,-0.23905971321107602,0.5461333460104447,-0.1015710253176595,-0.1807721052719632,-0.00013594564184891988,-0.07619427,-0.16839846000000003,-9.830502899999999,0.003687,-0.000177,0.004934,0.13352023353422804
1758010669.2721918,-0.02566041711364064,0.0558015021820269,1.8425970065395259,-0.2500768945887721,0.57648146094826,-0.10356789231343244,-0.18137050641602492,-0.00013568097822204813,-0.07289811,-0.16420959000000002,-9.820025820000001,0.001848,-0.001005,0.004749,0.1273694026146211
1758010669.2923791,-0.03014068956571663,0.06641207240085716,1.8659547577734017,-0.263659705360367,0.6052775826576072,-0.10556010277136661,-0.18193720086563842,-0.00013536789858979034,-0.08696565,-0.16600482,-9.820928340000002,0.002569,-0.001465,0.003872,0.12293721225593393
1758010669.3126478,-0.034935374031312166,0.07724689111927566,1.8865354853353526,-0.27836782779609626,0.6316739903219065,-0.10751625933677039,-0.18247678974413206,-0.0001349353452807502,-0.07589016,-0.17124336,-9.816582510000002,0.003277,0.000358,0.00509,0.11901732829713672
1758010669.3327196,-0.038222110542345665,0.08414775801582038,1.904664424448284,-0.29238504091087913,0.6548018063029064,-0.1093349356108374,-0.18302568371232705,-0.0001339985729916998,-0.07380063,-0.17708031000000002,-9.80550702,0.002543,-0.00078,0.003317,0.11445568599550081
1758010669.353324,-0.04365705277411253,0.09550508446317439,1.9208701603057285,-0.3075693082606429,0.6764858195536186,-0.1110952181519859,-0.18352225502068442,-0.00013302689398225645,-0.07963758,-0.1651023,-9.82332198,0.002382,-0.000741,0.00408,0.11161190553019665
1758010669.3733313,-0.04759676090290444,0.10314776591777412,1.9353744671245545,-0.3216275007878002,0.6955730550830147,-0.11272354569442798,-0.18399758757148207,-0.00013174628342146338,-0.07888221,-0.17738442000000001,-9.80281908,0.003031,-0.00029,0.005267,0.10806264425801235
1758010669.3941107,-0.053932145411533336,0.11567894315736003,1.948472409903327,-0.3364436889887035,0.7136787394248053,-0.11428356505428296,-0.18440315033410049,-0.0001305101274535428,-0.08831943,-0.16600482,-9.828266220000001,0.002662,0.000725,0.004347,0.10609644461246623
1758010669.4141538,-0.058081488741295956,0.12318966136754647,1.9602685562051603,-0.34937190535240636,0.729287360056097,-0.11570611819664992,-0.18478405794896763,-0.00012902109593863307,-0.08352234000000001,-0.16825131000000002,-9.81209934,0.002734,0.000271,0.003777,0.10302465210486333
1758010669.4347646,-0.06466310247754595,0.13558266359518403,1.971025934423663,-0.3632110510485986,0.7435916392150377,-0.11704719361230322,-0.18508533085808745,-0.0001275831206948288,-0.06691401,-0.17767872,-9.81808344,0.003481,-0.000866,0.004132,0.10142554332111074
1758010669.4552355,-0.06837043880761443,0.14176523025843818,1.9807793364073492,-0.37453387495714746,0.7557798392876479,-0.11825044614393593,-0.18536760134408217,-0.00012589937444527325,-0.06256818,-0.17303859,-9.82975734,0.004349,-0.000733,0.004346,0.09846947471253359
1758010669.4772868,-0.07779858027072308,0.15939320973017151,1.989800710574933,-0.3881712127899167,0.7677373475514767,-0.11940536549428314,-0.1855255994923066,-0.00012448551227845048,-0.06316659000000001,-0.17468667000000002,-9.80655669,0.003291,-0.001009,0.004326,0.09840800032512677
1758010669.5030732,-0.08523610512042987,0.1726484726118557,1.9980678245308248,-0.39946688562748117,0.7788509908699681,-0.12045980708260826,-0.18562918561018718,-0.00012307597208736524,-0.08382645000000001,-0.16450389,-9.82766781,0.003785,-0.000234,0.003167,0.09712210362693435
1758010669.5267074,-0.09022498381084486,0.17933002607715867,2.0125054984827777,-0.41587119212845053,0.7949723930791219,-0.12216954064064589,-0.18590149496479558,-0.00011930731880906271,-0.07409493,-0.17678601,-9.82990449,0.003724,0.002113,0.005242,0.09099570027498849
1758010669.551536,-0.09799977591391758,0.19275881913816215,2.0189060042352125,-0.4256022321564678,0.8025420702706321,-0.12290208233184194,-0.18595178648666522,-0.0001174589332594887,-0.08786817,-0.16675038,-9.812246490000001,0.003677,-0.000878,0.003461,0.09067943860980827
1758010669.5721033,-0.10181560914562289,0.19851883962759928,2.024806636920217,-0.4327898305506165,0.8086564543245337,-0.12354606976349718,-0.18599603054153285,-0.00011549202038180727,-0.08262963000000001,-0.16375833,-9.813590460000002,0.002815,-0.000262,0.003378,0.0885956411499749
1758010669.5925212,-0.11007620181090218,0.2125849527340968,2.030356015562928,-0.44129908147988095,0.814329898936732,-0.12412945012193265,-0.18596394859360327,-0.00011364602271563439,-0.06870924,-0.16226721000000002,-9.83200383,0.002504,0.000581,0.004603,0.08849339521197545
1758010669.6130998,-0.11336024049838635,0.21726812730150108,2.0354775948580164,-0.4472689732468339,0.8190502886684847,-0.12463589319445123,-0.18594131050444607,-0.00011166889575669343,-0.0779895,-0.17782587000000002,-9.80581113,0.003304,-0.001396,0.004761,0.0862866199096275
1758010669.633372,-0.12209417848830498,0.23195895695334615,2.040303153073414,-0.45480950678487647,0.8238657648445142,-0.12508338295806953,-0.18584657300892474,-0.00010981679655583851,-0.08337519,-0.16286562,-9.82796211,0.003788,-0.000351,0.004445,0.08644550392972358
1758010669.6532805,-0.1250790680855463,0.23604568768901263,2.04474793119042,-0.45963920044416856,0.827552653050319,-0.12546717817516326,-0.1857739391617859,-0.00010783413636019387,-0.08696565,-0.1764819,-9.81868185,0.002474,-0.001711,0.003018,0.08423675334199901
1758010669.674327,-0.1317991998065935,0.24688650918057475,2.04894969182069,-0.4655056490347462,0.8310117027995347,-0.12579782646554472,-0.18566170842695187,-0.0001059001782152816,-0.08188407,-0.16420959000000002,-9.8159841,0.002956,-0.000383,0.00449,0.08373561364747978
1758010669.6949615,-0.14053491512916108,0.25231532787192723,2.0531222888008536,-0.47072723652675325,0.8334410142311459,-0.12606509873055385,-0.1855331548522496,-0.00010405026747272394,-0.07648857,-0.17019369,-9.8242245,0.003616,0.000446,0.003629,0.08274715117049367
1758010669.7156484,-0.15114595557323,0.26152839453829196,2.0570925972613647,-0.4764211603534775,0.8356951731620783,-0.12628662243898536,-0.1853530676161639,-0.00010227075262584074,-0.07499745000000001,-0.17722746,-9.796079610000001,0.002745,-0.000262,0.004436,0.08256133404369487
1758010669.7364826,-0.15722626428968028,0.26309694769716757,2.060765820662956,-0.47978134145801765,0.8374007553052253,-0.12647372379619615,-0.1851970268190603,-0.00010038227077821122,-0.08277678,-0.16495515000000002,-9.83918475,0.004207,-2.9e-05,0.002661,0.080715197775503
1758010669.7565038,-0.1672195613160271,0.2719438794414533,2.0642306909804535,-0.48442356201230385,0.8389364667590279,-0.1266234061942128,-0.18499814884313126,-9.855906034765476e-05,-0.07275096,-0.16375833,-9.807155100000001,0.002485,0.001444,0.002088,0.08058364296153311
1758010669.777627,-0.1740234466352175,0.27554158056154726,2.067537306449788,-0.48746722772996104,0.8401407194708594,-0.1267454073833842,-0.18481070431086075,-9.667802860756495e-05,-0.07948062,-0.15582204,-9.82197801,0.003163,0.000206,0.004724,0.07927596593360048
1758010669.7987306,-0.18411985380756196,0.2851872218118259,2.0707100721825826,-0.491526785208767,0.8413476875780133,-0.1268325653297619,-0.1845843718295138,-9.486025203257043e-05,-0.07948062,-0.15806852999999998,-9.819584370000001,0.003392,-0.000846,0.005311,0.07932635090481771
1758010669.819308,-0.1906441567457149,0.28894598383954734,2.073690630853818,-0.49415566264281086,0.8421421615175196,-0.1268977593986933,-0.18437145522849407,-9.299251185195556e-05,-0.08128566000000001,-0.16420959000000002,-9.81209934,0.002705,7e-05,0.005464,0.07805495998596132
1758010669.8396666,-0.1906441567457149,0.28894598383954734,2.073690630853818,-0.49415566264281086,0.8421421615175196,-0.1268977593986933,-0.18437145522849407,-9.299251185195556e-05,-0.08128566000000001,-0.16420959000000002,-9.81209934,0.002705,7e-05,0.005464,0.07805495998596132
1758010669.8631501,-0.21520738779578158,0.32404311462685065,2.076712063092403,-0.5022541225162908,0.8439041565750148,-0.126869178297861,-0.18391137793679024,-9.163901515311883e-05,-0.07933347,-0.16346403,-9.839037600000001,0.003694,-0.00081,0.004299,0.08305609391557099
1758010669.8836796,-0.22004858842169248,0.31895611010670305,2.082000012481977,-0.5024322020820177,0.8438165873358671,-0.1268398524233589,-0.1833765188582418,-8.799142968789916e-05,-0.08592579,-0.16420959000000002,-9.82631403,0.003337,-0.002049,0.002556,0.07667363447179514
1758010669.90409,-0.22267843519785596,0.31712099771638463,2.0843910257497598,-0.5033454344634612,0.8434786510288427,-0.12683448012232518,-0.18318719978714465,-8.601083591918288e-05,-0.07439904,-0.16615197,-9.828266220000001,0.00372,-0.000592,0.005077,0.07451258842879316
1758010669.9267912,-0.23447250886925908,0.3251960400950005,2.08884754884663,-0.5074336885514236,0.8432300443237577,-0.12678223717621245,-0.1827409728989042,-8.222375300624796e-05,-0.08232552,-0.1764819,-9.82975734,0.002521,-0.001403,0.003605,0.07301950259997389
1758010669.9481103,-0.2425780941956545,0.3332166490061353,2.090954587734746,-0.5101260961406133,0.843097557614006,-0.12674105331787913,-0.18249600233029845,-8.039289520965011e-05,-0.07753824,-0.16899687,-9.799817220000001,0.003498,-0.001844,0.005891,0.07326328475605771
1758010669.968796,-0.24900400636822634,0.3386095464235648,2.0929407011253254,-0.5120147137726357,0.8428645207975269,-0.12668999624778518,-0.18223974464289194,-7.859951372189776e-05,-0.07724394000000001,-0.17378415000000003,-9.81329616,0.001407,5e-06,0.004654,0.07281027087196704
1758010669.9928195,-0.25928186767654643,0.3505724455487028,2.094885389896154,-0.5150126193318926,0.8427571530139119,-0.12661164606895606,-0.18192518381033812,-7.69251355372478e-05,-0.07619427,-0.17513793000000002,-9.81164808,0.001625,-0.000778,0.004817,0.07366842820169484
1758010670.0130486,-0.2636028793737118,0.3528228857180029,2.0966954637600406,-0.5156213033356659,0.8423098862498838,-0.12653682463388072,-0.18164375567708707,-7.52045175880238e-05,-0.07499745000000001,-0.17289144,-9.815238540000001,0.003251,-0.000908,0.003582,0.07231029392875815
1758010670.0332255,-0.27282573735504345,0.3633062236461988,2.098471100479877,-0.5179712097731675,0.8421336529333067,-0.1264398606749166,-0.18132200992238504,-7.357309875990543e-05,-0.08083440000000001,-0.17483382000000003,-9.82062423,0.003223,-0.000952,0.004504,0.07282198810334238
1758010670.0538642,-0.27672958327392505,0.36518226964890027,2.1001431665453882,-0.5182580749094112,0.8415959519858446,-0.12635005062747742,-0.18103762219729827,-7.189198470236924e-05,-0.07858791000000001,-0.16974243,-9.80041563,0.002805,-0.001619,0.004593,0.07142151419000677
1758010670.0741396,-0.2852248860128539,0.3747219345856926,2.1017503304621705,-0.5203186494906503,0.8412415122506525,-0.12624240802493955,-0.180717713312041,-7.029536070297311e-05,-0.07933347,-0.17842428,-9.82631403,0.0033,-0.00054,0.003661,0.07179360873567553
1758010670.0949886,-0.29126368285256826,0.38036080810900447,2.103292862798515,-0.521193496286613,0.8407780842656027,-0.12613119850069376,-0.18040522639171183,-6.870568287311457e-05,-0.08217837000000001,-0.17124336,-9.81464013,0.004189,-0.000856,0.003871,0.0712289638693118
1758010670.115195,-0.2984993723349781,0.38806699243844794,2.10479206668054,-0.5223642791718642,0.8402594386998852,-0.12601114872865063,-0.1800827246921165,-6.715431570966996e-05,-0.07903917,-0.16734879000000003,-9.822272309999999,0.003572,-0.001414,0.004484,0.07113772717959804
1758010670.13622,-0.30334204453198016,0.39199849451468677,2.1062002226206413,-0.5227467886200373,0.8395708453454825,-0.1258955967562833,-0.1797794582671173,-6.559271988620028e-05,-0.07708698000000001,-0.16914402,-9.82586277,0.003625,0.000555,0.003437,0.07024724985428413
1758010670.1570199,-0.3124357875421397,0.40292773866294795,2.1075856044384853,-0.5243101732416796,0.8389605724290012,-0.12576300408970936,-0.17944018959064634,-6.411591843075788e-05,-0.07469334000000001,-0.16091343000000002,-9.81868185,0.00297,0.001021,0.004034,0.07089226016728052
1758010670.177231,-0.3162248477722794,0.40538389313700457,2.1088971293313516,-0.5243171912431301,0.8381646909494431,-0.12564141883307475,-0.17913387892316587,-6.260432016639743e-05,-0.07574301000000001,-0.17767872,-9.84353058,0.002407,0.000589,0.004048,0.06963911678596953
1758010670.198077,-0.32487139967254086,0.41577811865642417,2.1101576585505732,-0.5258821151016472,0.8373275253953731,-0.1255057286723463,-0.17878903536037266,-6.118515042126971e-05,-0.0666099,-0.17198892,-9.78634809,0.002931,0.000524,0.003104,0.07020201827417755
1758010670.2180436,-0.32853233597562276,0.41823412320231046,2.111364534232459,-0.5257527422512799,0.8364174811150449,-0.12538281771225657,-0.17847598020718777,-5.9734853464146734e-05,-0.06751242,-0.17722746,-9.83634966,0.002417,-0.000633,0.003445,0.06899143552900946
1758010670.2387693,-0.3375853505305756,0.42943692348665446,2.112572355070263,-0.527243909059466,0.8355767405989611,-0.12524424117230107,-0.17812096739296596,-5.838007850632709e-05,-0.06601149,-0.16734879000000003,-9.82197801,0.00318,0.000357,0.004585,0.06975587893510242
1758010670.2590039,-0.34088939353514397,0.43150742498852024,2.1137031323616657,-0.5268406750345366,0.8346550828323306,-0.1251209931681163,-0.17780415043872716,-5.698219646571924e-05,-0.06691401,-0.17169462000000002,-9.807302250000001,0.004776,-0.001266,0.004245,0.06846351155310343
1758010670.2810311,-0.357433715959015,0.45465437175000895,2.1148157497354916,-0.5313378157261147,0.83417333492038,-0.1249866374016339,-0.17746249598232236,-5.56521294537562e-05,-0.07155414,-0.15701886,-9.80565417,0.003353,-0.001131,0.004202,0.07254422688491977
1758010670.3013513,-0.35293078771452163,0.44456566618544513,2.115864285365844,-0.5276770535440706,0.833167442961556,-0.12486208996136293,-0.17714503225313313,-5.43056472735983e-05,-0.07155414,-0.15701886,-9.80565417,0.003353,-0.001131,0.004202,0.06802214842462821
1758010670.3263986,-0.364799564568099,0.4576606582020271,2.117886800748166,-0.5282846944832622,0.8317764514316663,-0.12459131558247477,-0.17647422724909104,-5.17425981303311e-05,-0.07888221,-0.17064495000000002,-9.80909748,0.003422,-0.001466,0.004909,0.06745640795307942
1758010670.350231,-0.3726359757784434,0.46731904010637937,2.1188442205037097,-0.5293750190762803,0.831103137092793,-0.12445457887982522,-0.1761351619501703,-5.0505783503202515e-05,-0.07888221,-0.16705449,-9.81164808,0.003086,-5.6e-05,0.004299,0.06799308653517344
1758010670.3706343,-0.3764510478880224,0.47066227543611006,2.119779662458865,-0.5290889985663116,0.8301541599435627,-0.12432993646960812,-0.1758195543843514,-4.925411160239375e-05,-0.06990606,-0.16675038,-9.841284090000002,0.002675,-0.000715,0.00598,0.06708694331469975
1758010670.3907623,-0.38388759118949234,0.47980725613527386,2.1206643135829006,-0.530133989819723,0.8293854674974186,-0.12419558161674943,-0.17547582858968366,-4.8077761238503745e-05,-0.07409493,-0.17438256000000002,-9.79892451,0.003947,-0.000503,0.003961,0.06752023602761198
1758010670.4112127,-0.388089518196682,0.48388871117684507,2.121507265896849,-0.5299205074828818,0.8286058425481237,-0.1240697790874202,-0.17515165325342552,-4.689348461689112e-05,-0.07858791000000001,-0.16734879000000003,-9.831709530000001,0.002814,0.000516,0.003865,0.0667913646636595
1758010670.4327683,-0.39655919383579097,0.49477510121926255,2.1223572427689614,-0.5311239625832226,0.8277984564069503,-0.12392954902439095,-0.1747888415289825,-4.5799078438707406e-05,-0.07095573000000001,-0.17258733,-9.823469130000001,0.002736,-0.00078,0.004573,0.06756786725000702
1758010670.4533641,-0.3992670225510102,0.4966303891172278,2.1231413558728365,-0.530379664210117,0.826856643047591,-0.12380754454004543,-0.1744648873500709,-4.466088857500491e-05,-0.06945480000000001,-0.17184177000000003,-9.821821049999999,0.003467,0.000455,0.003763,0.0663071538270176
1758010670.47359,-0.40712608296328084,0.5066381612996294,2.1239081339730337,-0.5313220873049108,0.8262340973454884,-0.12367295733851129,-0.1741107745556158,-4.3600053561334176e-05,-0.07933347,-0.16839846000000003,-9.83679111,0.002571,-0.000241,0.003619,0.06695769604218865
1758010670.494028,-0.4111494956031634,0.5106662529214064,2.1246325174676723,-0.5309198865467627,0.8254388372600373,-0.12354829214136662,-0.17377893306831668,-4.25248445682586e-05,-0.07753824,-0.16585766999999998,-9.80191656,0.002897,-0.001694,0.003086,0.0662135763211597
1758010670.5146787,-0.41686393435836244,0.517393577332679,2.1253530271653904,-0.5312554206069107,0.8248947149687841,-0.12342116671182889,-0.1734432614012529,-4.148144803805398e-05,-0.08846658,-0.17139051000000002,-9.83798793,0.004288,0.000805,0.004171,0.0661601742731948
1758010670.5351813,-0.42082981200383895,0.5214244025231913,2.126047581024663,-0.5309443036750277,0.8241013221853072,-0.12330316658219093,-0.17312373435376746,-4.0435636335718515e-05,-0.07873506000000001,-0.16466085000000003,-9.807302250000001,0.003353,-0.001422,0.004571,0.06553462445340874
1758010670.556257,-0.4299913058616553,0.5336511133770493,2.126717307852835,-0.5320821175594773,0.8233006281172486,-0.12316759868119435,-0.17275793996807667,-3.949286566999148e-05,-0.07110288000000001,-0.16241436,-9.81464013,0.003885,-5.9e-05,0.00343,0.06668382010629317
1758010670.576621,-0.4314806439009435,0.5339240159106597,2.127371207062059,-0.5310743397922792,0.822364620470059,-0.12305549504306505,-0.17244004795999107,-3.8487398116872706e-05,-0.07184844,-0.18396693,-9.820477080000002,0.001705,3.1e-05,0.005144,0.06511430082156036
1758010670.597573,-0.43931042425913996,0.5441300160922188,2.128027588614213,-0.5318946382187109,0.82175672185305,-0.12293074462713616,-0.17209110635376626,-3.755822134436807e-05,-0.07993188000000001,-0.16256151,-9.80565417,0.003417,-0.000859,0.004968,0.06590599034510058
1758010670.6183746,-0.4417731774137599,0.5459953191716316,2.1286190930967495,-0.5309967312066054,0.8210710970706598,-0.12282242094182316,-0.17177928675667517,-3.6588424423253e-05,-0.08861373,-0.15822549000000002,-9.823469130000001,0.003653,-0.000657,0.003777,0.06478525759022918
1758010670.6394358,-0.45069985292961534,0.5580002158874914,2.129236168396143,-0.5322757692574753,0.8203238955403482,-0.12269598355362459,-0.17141880927310407,-3.5724827527080815e-05,-0.07320222,-0.16914402,-9.819584370000001,0.003319,-0.001045,0.004728,0.06596325020147457
1758010670.6601493,-0.4521211700234171,0.5583410880340148,2.1298055690865327,-0.5311267729333251,0.8195078406515434,-0.12259223968495497,-0.17110655963007107,-3.4797578465550857e-05,-0.08098155,-0.16914402,-9.80954874,0.003396,-0.000629,0.00507,0.06446637050487392
1758010670.680946,-0.4673737799581014,0.5800859435704182,2.13032120440728,-0.5354948705140788,0.8192681067469355,-0.12248179394449979,-0.17077792304834588,-3.3925931957287504e-05,-0.07215255000000001,-0.16466085000000003,-9.7954812,0.001998,-0.002585,0.003249,0.06862823361933423
1758010670.701268,-0.4617861920742044,0.5697359039540004,2.13084595323015,-0.5315081803955473,0.8182832415794299,-0.12237992584091331,-0.17045874053428406,-3.3062962206617724e-05,-0.07215255000000001,-0.16466085000000003,-9.7954812,0.001998,-0.002585,0.003249,0.06422706271879829
1758010670.7221265,-0.4706248569512199,0.5817116113977358,2.1313563925938688,-0.5324570258708617,0.8177492947139228,-0.1222596815031664,-0.17009844439279373,-3.2292078329333256e-05,-0.08023599000000001,-0.15897105,-9.843226470000001,0.002283,0.000181,0.003446,0.0654278050561319
1758010670.7424877,-0.4706248569512199,0.5817116113977358,2.1313563925938688,-0.5324570258708617,0.8177492947139228,-0.1222596815031664,-0.17009844439279373,-3.2292078329333256e-05,-0.08023599000000001,-0.15897105,-9.843226470000001,0.002283,0.000181,0.003446,0.0654278050561319
1758010670.7628057,-0.4706248569512199,0.5817116113977358,2.1313563925938688,-0.5324570258708617,0.8177492947139228,-0.1222596815031664,-0.17009844439279373,-3.2292078329333256e-05,-0.08023599000000001,-0.15897105,-9.843226470000001,0.002283,0.000181,0.003446,0.0654278050561319
1758010670.7831368,-0.4706248569512199,0.5817116113977358,2.1313563925938688,-0.5324570258708617,0.8177492947139228,-0.1222596815031664,-0.17009844439279373,-3.2292078329333256e-05,-0.08023599000000001,-0.15897105,-9.843226470000001,0.002283,0.000181,0.003446,0.0654278050561319
1758010670.8046346,-0.4706248569512199,0.5817116113977358,2.1313563925938688,-0.5324570258708617,0.8177492947139228,-0.1222596815031664,-0.17009844439279373,-3.2292078329333256e-05,-0.08023599000000001,-0.15897105,-9.843226470000001,0.002283,0.000181,0.003446,0.0654278050561319
1758010670.8266838,-0.5189071953324151,0.6540694930208365,2.1326224832898832,-0.537874006972796,0.8167411436521193,-0.12163169220085487,-0.168724819018681,-3.1833023776621736e-05,-0.08667135000000001,-0.17438256000000002,-9.83035575,0.002397,0.000562,0.002927,0.0743447819126727
1758010670.8468587,-0.5164724600734483,0.6473278577257756,2.133604834527979,-0.532046307538974,0.8129150073407864,-0.12134079603803616,-0.16803187226126673,-3.000182030947003e-05,-0.08427771,-0.16630893,-9.832602240000002,0.003686,0.000886,0.005699,0.0682964943189173
1758010670.8670664,-0.5146522901526468,0.6413479919475548,2.134396434830408,-0.529055463843354,0.8101525130070744,-0.12123595569456329,-0.16751771724623327,-2.8073031036939116e-05,-0.08756406,-0.16495515000000002,-9.832602240000002,0.004643,-5.1e-05,0.004053,0.06468796213718958
1758010670.8924496,-0.5072834978078992,0.6253121083705356,2.1354496477445757,-0.5252039598192282,0.8072225517346405,-0.12128068376953097,-0.16686503239869369,-2.540513745177797e-05,-0.07380063,-0.17812998000000002,-9.81688662,0.002924,-0.000631,0.005425,0.059111328478890814
1758010670.9127228,-0.5115838274168123,0.6304523208225125,2.1357525722258845,-0.5263453754344756,0.8070095382789391,-0.12131276835710453,-0.1666223972417289,-2.4645923897935562e-05,-0.08996751000000001,-0.16839846000000003,-9.830502899999999,0.001937,0.000152,0.00299,0.05993586415900365
1758010670.9337766,-0.5133827167885769,0.6317590813205998,2.136058200147829,-0.5265424298609229,0.8066776941143993,-0.12135135985530714,-0.16637612731932075,-2.392666627773392e-05,-0.08292393,-0.17244018,-9.80775351,0.004037,9.2e-05,0.003483,0.05970290903167651
1758010670.953823,-0.520651006029479,0.6415592603083851,2.136381075291151,-0.5285226663405201,0.8065366046446307,-0.12137408782160662,-0.16607268418580218,-2.3324540744011294e-05,-0.07679268,-0.18262296000000003,-9.82197801,0.003878,-0.001808,0.003865,0.06126797726074832
1758010670.9740264,-0.5225519724617987,0.643096860778908,2.136690898655294,-0.5281852550771702,0.8065450127806816,-0.12140209943264563,-0.16578760223672256,-2.2710771650645025e-05,-0.09684432000000001,-0.16420959000000002,-9.811343970000001,0.002954,0.000463,0.003996,0.060715703773030386
1758010670.9942915,-0.5309317181738519,0.6546548299011631,2.1370186549758703,-0.5297435313346527,0.8065741037780007,-0.12140897178505937,-0.16545175492318515,-2.2197498697973367e-05,-0.08067744,-0.16630893,-9.817485030000002,0.002775,1e-06,0.004218,0.0623552536118836
1758010671.0147083,-0.5317223559304526,0.6545688097053757,2.1373356444376626,-0.5288802530109424,0.8062531102245113,-0.12142896871568216,-0.1651539938391221,-2.1630747023571793e-05,-0.07844076,-0.17184177000000003,-9.82466595,0.00423,-0.000434,0.005561,0.06118091794760279
1758010671.0361133,-0.5405655039696263,0.6668899232541083,2.137673096843165,-0.5303456817449538,0.806314135458616,-0.1214246531323611,-0.16480674765314557,-2.11612056447622e-05,-0.08337519,-0.16406244,-9.80191656,0.000777,-0.001119,0.005043,0.06284478355608838
1758010671.056946,-0.5399198649166123,0.6646623617753383,2.1379485026291274,-0.5288962899354525,0.8058741592260392,-0.12144196196142595,-0.16451631123036423,-2.0604517016837184e-05,-0.07918631999999999,-0.16645608,-9.83320065,0.003596,-0.000446,0.003959,0.06109224944325742
1758010671.0772886,-0.5443952741974075,0.670313173020543,2.1382190866897055,-0.5294648133924558,0.805480364589707,-0.12145502706373065,-0.16420969202584754,-2.009533987811582e-05,-0.07199559,-0.1790325,-9.825715620000002,0.001906,0.000439,0.00391,0.06136824058288608
1758010671.0974562,-0.5488849870755909,0.6760017576665798,2.1385078661564823,-0.5297215588646945,0.8052775363624713,-0.12146351455327134,-0.16389649287505664,-1.9612213830195237e-05,-0.08143281,-0.16810416,-9.831101310000001,0.004213,-0.001973,0.005088,0.06156963501135171
1758010671.1175876,-0.5565332003581542,0.6865724402454555,2.138813515610013,-0.5306503892559669,0.805032072739336,-0.12145417792531471,-0.16354840118005945,-1.920096399580719e-05,-0.07559586,-0.1651023,-9.82152675,0.003254,-0.00083,0.005236,0.06272455682107121
1758010671.1383224,-0.5578360050098471,0.6874304792765915,2.1390768503892215,-0.5295301031984341,0.8047276060586923,-0.12145777985245114,-0.163242382868931,-1.8723069073894062e-05,-0.08921214,-0.155979,-9.801171,0.002867,3e-06,0.005043,0.061595696572354385
1758010671.1660829,-0.5651440165623259,0.6964400501803997,2.139587965699949,-0.5291924744439275,0.8039761338448079,-0.12144823930339708,-0.16260583977309429,-1.784616510059445e-05,-0.08277678,-0.16899687,-9.8213796,0.003996,-0.00053,0.005091,0.06109190524213867
1758010671.1907985,-0.5717897556947824,0.7055373486747413,2.1398267235702626,-0.5298368533533153,0.8036719091029715,-0.12144162743628518,-0.1622854142684206,-1.743225927757749e-05,-0.08053028999999999,-0.15926535,-9.82661814,0.002352,-0.000534,0.004335,0.062038252803475157
1758010671.211712,-0.5735288118531956,0.7071458552251337,2.1400432804393894,-0.5292361353558989,0.8032306694604628,-0.12144495503032461,-0.16198773889998772,-1.6990935043751728e-05,-0.08502327,-0.17708031000000002,-9.81074556,0.003033,-0.000733,0.004122,0.06119250845597231
1758010671.2330153,-0.580998080788414,0.717548867762289,2.1402514728815785,-0.5301627391135201,0.8029139020242398,-0.1214309603624533,-0.16165259929672232,-1.663214008263015e-05,-0.07948062,-0.16675038,-9.808803180000002,0.003251,-0.00058,0.003432,0.06236484972508282
1758010671.2536893,-0.5814485987684632,0.7172312321974403,2.1404809048035016,-0.5290037570952959,0.8022818299567372,-0.12143566833761416,-0.16135736034117767,-1.6208982079587657e-05,-0.07574301000000001,-0.17318574,-9.82466595,0.005421,5.5e-05,0.006201,0.061024227404075954
1758010671.274164,-0.5884204273042236,0.7269063704690584,2.1406954536111673,-0.529958367662399,0.8018927249637104,-0.1214251349398723,-0.16102542005488352,-1.586659528633918e-05,-0.07739109000000001,-0.17423541,-9.823469130000001,0.00298,-0.00092,0.004264,0.06207305994282651
1758010671.2950625,-0.5894322508366042,0.7274759822405511,2.1408997499949063,-0.5287883494961584,0.8012863650623411,-0.12143106274711485,-0.160729005746137,-1.546813854460264e-05,-0.07574301000000001,-0.1588239,-9.81344331,0.003716,0.000189,0.005154,0.06096876755947432
1758010671.31516,-0.5945133304135468,0.734286631932083,2.1411107001934155,-0.5293112345848779,0.8007476146565274,-0.1214311484065869,-0.1604119545611115,-1.5120681564968403e-05,-0.07244685000000001,-0.17992521,-9.8128449,0.003816,7e-05,0.005015,0.06141647404482394
1758010671.3357959,-0.5976191855468451,0.7380891418122784,2.141296520586133,-0.5290278485217814,0.8002504889206501,-0.1214352766943496,-0.16010160002862364,-1.4771870000026142e-05,-0.07634142000000001,-0.17483382000000003,-9.81254079,0.004444,-0.001784,0.004312,0.06112062046788726
1758010671.3582082,-0.6071024660943087,0.7516538316705845,2.141522517048564,-0.5300975141359106,0.7999834992490076,-0.12141341267878068,-0.15974090306579689,-1.4524005559816322e-05,-0.0779895,-0.15942231,-9.829158930000002,0.002766,0.000218,0.005024,0.0629207837822934
1758010671.3787472,-0.6064766859301406,0.7498156515431169,2.141685173700809,-0.5283633241638102,0.7993879486394304,-0.12141739396157625,-0.15944090443189518,-1.4164774268912765e-05,-0.08532738,-0.16825131000000002,-9.80805762,0.00346,0.0003,0.00373,0.06110006381396358
1758010671.3989286,-0.6099626066072463,0.7542436234870502,2.141849212651154,-0.5281869534019977,0.7986982236688251,-0.1214251488842583,-0.1591386709290714,-1.382414841609604e-05,-0.06856209,-0.16930098,-9.83095416,0.004142,0.001496,0.004209,0.06101227159985972
1758010671.4191403,-0.6121153606669646,0.7566387309253925,2.141967944471043,-0.5276176584840055,0.7983250568705205,-0.12144050017836454,-0.15885042669335273,-1.3473502209189246e-05,-0.08816247,-0.16466085000000003,-9.82631403,0.002806,0.00048,0.002122,0.06050370172502023
1758010671.4402823,-0.6257239852319584,0.7764602367366353,2.142147157070931,-0.5308027654114588,0.7983432167386441,-0.12143346247040321,-0.15851612552679592,-1.3220038954399479e-05,-0.0811287,-0.17842428,-9.82646118,0.003545,-0.000529,0.004777,0.06428767813265823
1758010671.4610546,-0.6188744106177007,0.7652607035626556,2.1422860220826276,-0.5270245696620954,0.7974851424239712,-0.12145497815799629,-0.1582389862444572,-1.2865505696353082e-05,-0.0811287,-0.17842428,-9.82646118,0.003545,-0.000529,0.004777,0.06012418206942194
1758010671.485997,-0.6262909080156764,0.7749068457973758,2.142557471485688,-0.5269192498268447,0.7967499235586547,-0.12148674796972692,-0.15764698199940097,-1.2267031608302362e-05,-0.09131148000000001,-0.16660323000000002,-9.83200383,0.003864,-0.000556,0.004475,0.060258187779110996
1758010671.5126107,-0.6331287285959509,0.784538778221773,2.142704821868479,-0.5278961161424975,0.796215702850737,-0.12149430866420387,-0.15732348245115504,-1.2035805049283924e-05,-0.07020036,-0.17558919000000003,-9.82616688,0.003751,-0.000753,0.00424,0.06140047699515467
1758010671.5325463,-0.6333473593632929,0.7840844851233361,2.1428460972093495,-0.5267412091306555,0.7956962053125847,-0.12151948996024427,-0.15703695771408813,-1.1740262886541996e-05,-0.08188407,-0.173637,-9.822272309999999,0.004026,-0.000259,0.00536,0.060153594005781276
1758010671.5526762,-0.6386592216098024,0.7913860860512688,2.1429729248117058,-0.5268615738858294,0.795266313583057,-0.12153883160647755,-0.1567338032246946,-1.1487718101199278e-05,-0.07499745000000001,-0.15342840000000002,-9.83365191,0.004515,-0.002124,0.004087,0.06082211411940609
1758010671.5733173,-0.6406968329064078,0.7937177056407912,2.1431011370332715,-0.5261703948758815,0.7947340420058576,-0.12156720711355344,-0.1564469005613163,-1.1212901151725563e-05,-0.07499745000000001,-0.16002072,-9.81254079,0.003079,-0.000211,0.004768,0.06028112097822892
1758010671.593731,-0.6471167950877719,0.8027427834761947,2.1432022345012793,-0.5266440206855165,0.7943750869197653,-0.12158363582657214,-0.15613336709524014,-1.0999523658967221e-05,-0.07619427,-0.15777423000000002,-9.827363700000001,0.001677,0.000666,0.003186,0.06127052493219717
1758010671.6142404,-0.6474039121418557,0.8024402911606746,2.143332388036476,-0.5254804754755212,0.7938427334271555,-0.1216171634433803,-0.15585541840482384,-1.0723363693664913e-05,-0.08007903000000001,-0.16346403,-9.8159841,0.003238,3.6e-05,0.005804,0.060065166787568854
1758010671.634533,-0.6503644079697805,0.8062154939678431,2.1434270639765947,-0.5254062756537479,0.7931976743152688,-0.12165452359908355,-0.15557301895620235,-1.0468535297885096e-05,-0.06556023,-0.17139051000000002,-9.81418887,0.003767,-0.00028,0.003602,0.059991373260847414
1758010671.6549156,-0.6683188722836336,0.8333210692097921,2.1434405674221058,-0.5323146810902075,0.7935258297619973,-0.12165452359908355,-0.15557301895620235,-1.0468535297885096e-05,-0.06990606,-0.17468667000000002,-9.82272357,0.003656,0.000182,0.004562,0.06756455100768316
1758010671.679009,-0.6633742671595659,0.8246693229228275,2.1437024354161185,-0.5262871050455147,0.7923430308407944,-0.1216733564413653,-0.1548902656234503,-1.0192505907637472e-05,-0.07648857,-0.16106057999999998,-9.823027680000001,0.005464,-0.000567,0.004903,0.06162257686741042
1758010671.7002633,-0.6616122671730073,0.8213104793737966,2.143795850540645,-0.5245475849576644,0.7917598320377309,-0.1217148821536511,-0.1546203005719917,-9.918412692911812e-06,-0.08547453,-0.17094906,-9.81718092,0.003173,-2e-05,0.004625,0.05970861385932505
1758010671.7208054,-0.6735951494385893,0.8387337433393092,2.143876041557565,-0.5276790105591831,0.7914843148741635,-0.12175852605752414,-0.15434462211483402,-9.669908668686517e-06,-0.06900354,-0.16286562,-9.81554265,0.003877,-0.000463,0.003453,0.06353095722909033
1758010671.7411427,-0.6663438161254496,0.8271256869692872,2.143958289475661,-0.5239501210165758,0.790743720851367,-0.1218114830590773,-0.15407695774471267,-9.419936885031876e-06,-0.06900354,-0.16286562,-9.81554265,0.003877,-0.000463,0.003453,0.05935814324959732
1758010671.766199,-0.6725922839303256,0.8353265693739934,2.1441022816472266,-0.5234502822797751,0.7898644205986085,-0.12190534859456623,-0.1534981655306435,-9.030627694539027e-06,-0.07559586,-0.16974243,-9.81494424,0.002956,-0.000501,0.003737,0.059268283344576886
1758010671.787828,-0.6866665098647879,0.856563983297397,2.144114265826488,-0.528633354655679,0.79023792144553,-0.12190534859456623,-0.1534981655306435,-9.030627694539027e-06,-0.07260381,-0.16675038,-9.82542132,0.003209,-0.001566,0.004614,0.06521298707800272
1758010671.8084292,-0.6788140543929406,0.8435162593848748,2.1442620388478897,-0.5232138208137459,0.7891852854574933,-0.12201045005397054,-0.1529269312741102,-8.656170694470524e-06,-0.08277678,-0.16810416,-9.8128449,0.004952,-0.002017,0.00308,0.059277365040686654
1758010671.8292935,-0.6935470569414035,0.8657386632269051,2.1442833927618015,-0.5288954910402991,0.7899997568256406,-0.12201045005397054,-0.1529269312741102,-8.656170694470524e-06,-0.08772102000000001,-0.17543223,-9.82197801,0.0031,0.001682,0.004927,0.06550797089560036
1758010671.8501742,-0.6846653232496047,0.8511923797265435,2.144433197342324,-0.5230570792564926,0.7887580178908267,-0.1221124762083465,-0.15235258404736465,-8.313172214423453e-06,-0.0754389,-0.17303859,-9.8302086,0.003641,0.000559,0.003909,0.05911726325496146
1758010671.8717737,-0.6905318420186507,0.8595102536760882,2.1445004259894356,-0.523848513078429,0.7883585247307685,-0.12216348821862415,-0.1520542091760571,-8.175621771008714e-06,-0.06856209,-0.1704978,-9.79383312,0.003301,0.000173,0.003765,0.06019079978761775
1758010671.8925192,-0.6906450587051598,0.8590807951807845,2.14456840668816,-0.5227248656277564,0.7879795458545155,-0.12222911934203047,-0.15178736740166182,-7.98174685608151e-06,-0.07963758,-0.15837263999999998,-9.82601973,0.002845,-0.000292,0.004556,0.059150224056388374
1758010671.912566,-0.6968714524225649,0.8679537969842281,2.1446498019635385,-0.5233321823233869,0.787737410607431,-0.12228189050771564,-0.1514907108947607,-7.854102228795754e-06,-0.07380063,-0.15792138000000003,-9.82841337,0.002446,-0.000777,0.004495,0.06032352261621898
1758010671.9334147,-0.6963247179347674,0.8665490420935735,2.1447148455903893,-0.522168321222774,0.7871332613098456,-0.1223529650114725,-0.1512276948577606,-7.664591724995677e-06,-0.063765,-0.16930098,-9.81389457,0.001739,-9.5e-05,0.00483,0.059035695165745576
1758010671.9541392,-0.7018043429679587,0.8743126037839041,2.1447864888036063,-0.5229796856903924,0.7868606365495701,-0.12241271232495368,-0.15093430239667532,-7.542886652562205e-06,-0.07215255000000001,-0.17423541,-9.822870720000001,0.002921,-0.000744,0.004376,0.05999584527265834
1758010671.9745235,-0.702073898006865,0.8741591479980318,2.1448330217902924,-0.5221141392820428,0.7866012146205883,-0.12248410533858423,-0.15066777351991065,-7.373576574656469e-06,-0.08502327,-0.17139051000000002,-9.817033770000002,0.002298,0.000666,0.003694,0.05904392454706217
1758010671.9948888,-0.7082674733091824,0.8830241408825967,2.1449266967500407,-0.5232105604948242,0.786678740187336,-0.12253787600808694,-0.15036681860885057,-7.277684293491864e-06,-0.08576883000000002,-0.1793268,-9.827814960000001,0.003883,-0.001058,0.00524,0.06023155687732414
1758010672.0157247,-0.7076571586893619,0.8815587092163193,2.1449517810197527,-0.5219988436055748,0.786221558879965,-0.12260911129318139,-0.15010180194013975,-7.1148114877197306e-06,-0.0754389,-0.17109621000000003,-9.80595828,0.00374,-0.001207,0.002386,0.058941191114927675
1758010672.036318,-0.7145782923723852,0.8915476877675934,2.145001091120859,-0.5231462531403763,0.7861115605587925,-0.12266140181661125,-0.1497947114873826,-7.043246485941207e-06,-0.07708698000000001,-0.17499078,-9.81449298,0.003101,0.000543,0.003615,0.060389020605016046
1758010672.0577693,-0.7295559791389753,0.9140540760805487,2.1449896600030867,-0.5285213967342499,0.7866132737044096,-0.12266140181661125,-0.1497947114873826,-7.043246485941207e-06,-0.07364367000000001,-0.16435674000000003,-9.81688662,0.004368,-0.001279,0.003771,0.06674255477039479
1758010672.0780005,-0.7190761008650559,0.8973928220556137,2.1451097160554227,-0.5216242492166656,0.7852321352934728,-0.12276127179541736,-0.14919289370665054,-6.870542923865395e-06,-0.07603731000000001,-0.17543223,-9.82646118,0.004103,-0.000839,0.004227,0.05937230583362681
1758010672.099486,-0.7182331885101373,0.8955850623375875,2.1451356734183182,-0.5204358952743245,0.7847391195649508,-0.12284436656729779,-0.1489521382986966,-6.67301710821186e-06,-0.07813665,-0.15687171,-9.82511721,0.002265,-0.000318,0.003652,0.05823377052589133
1758010672.120572,-0.7311045229516066,0.9144970253114308,2.145199160101039,-0.5241690813400445,0.7849359623226002,-0.12292331311744956,-0.1486956196280238,-6.517418758894569e-06,-0.07574301000000001,-0.17035065,-9.818829,0.004681,0.000597,0.00355,0.06271005172255224
1758010672.1409411,-0.7233492039229089,0.9023172439154655,2.1452337563447372,-0.520471947284716,0.7842321404441525,-0.12300790097302286,-0.14844335182396776,-6.36368869346198e-06,-0.07574301000000001,-0.17035065,-9.818829,0.004681,0.000597,0.00355,0.05851041667032817
1758010672.1664946,-0.7365803480069332,0.9218405303468977,2.1452949690943264,-0.5240319601080594,0.7844233800700438,-0.12306905628549081,-0.148142923870635,-6.312401150718186e-06,-0.06047865000000001,-0.16256151,-9.81464013,0.00316,0.000148,0.004472,0.062678470982912
1758010672.1816096,-0.7287662115360956,0.9095926483645842,2.1453262083121647,-0.5203062721444796,0.7837053770906358,-0.12315509911870808,-0.14789077892679348,-6.164211999244303e-06,-0.06047865000000001,-0.16256151,-9.81464013,0.00316,0.000148,0.004472,0.05847492261069833
1758010672.2058191,-0.7334325622566251,0.915709659891522,2.1453981739654058,-0.5197810602694765,0.7832236369308455,-0.12332021995037634,-0.14736969237134848,-5.9232122269855935e-06,-0.0691605,-0.15942231,-9.82497006,0.002075,-0.00099,0.004267,0.05838899097138723
1758010672.2263865,-0.7334325622566251,0.915709659891522,2.1453981739654058,-0.5197810602694765,0.7832236369308455,-0.12332021995037634,-0.14736969237134848,-5.9232122269855935e-06,-0.0691605,-0.15942231,-9.82497006,0.002075,-0.00099,0.004267,0.05838899097138723
1758010672.2481472,-0.7394686084429358,0.9239967438677101,2.145466708836204,-0.5197283561774876,0.7827572012369927,-0.12347163030477402,-0.14681296353392143,-5.769874366191251e-06,-0.08143281,-0.16121754000000002,-9.831101310000001,0.003094,-0.000683,0.004373,0.05853560345409284
1758010672.269438,-0.7424781059262504,0.9281079348249828,2.1454848286526946,-0.5198605531282914,0.7824394202833667,-0.12355853860503183,-0.14655246793773266,-5.665051499133439e-06,-0.07289811,-0.16974243,-9.817485030000002,0.004898,-0.002505,0.003639,0.05881532407401696
1758010672.2899802,-0.7430232060706001,0.9284804372419548,2.1455014530464824,-0.5193626724962253,0.7821431074180871,-0.12365363839516152,-0.14630475828524717,-5.541829962818757e-06,-0.07873506000000001,-0.17528507999999998,-9.81418887,0.001842,7e-06,0.003763,0.05821667992381232
1758010672.3151882,-0.7499683496617305,0.9385956059510387,2.145487778925501,-0.5205049722666548,0.7819406052155432,-0.12373036740739915,-0.14601240306095656,-5.518182153770917e-06,-0.0691605,-0.16959528000000001,-9.79593246,0.003493,-0.000362,0.002247,0.059834127841745355
1758010672.335433,-0.7477894325368609,0.9348637846861727,2.1455196472584053,-0.5189269295634567,0.7814556642834868,-0.12382985395719959,-0.14576709883638206,-5.397589591414107e-06,-0.07170129,-0.16839846000000003,-9.82122264,0.003411,0.000166,0.005126,0.0581135646867054
1758010672.3561575,-0.7532292043707651,0.9427007038776473,2.145521370755099,-0.5198306985078306,0.7812007435935773,-0.12391690783607583,-0.14548746419227387,-5.355263131784059e-06,-0.06780672,-0.17468667000000002,-9.83858634,0.004212,-0.000673,0.002892,0.05927164141962464
1758010672.3768632,-0.7531580110805629,0.9421641401989672,2.145539228613007,-0.5187743744106894,0.7809775674492603,-0.1240156299458231,-0.14523640532832702,-5.257056949455646e-06,-0.08203122,-0.15717582000000002,-9.79593246,0.004618,-0.000333,0.003845,0.058364099536980955
1758010672.3974388,-0.7592765675459894,0.9510438170203257,2.1455780890605594,-0.519825536049775,0.7811180395890982,-0.1240958740933602,-0.14495124578206395,-5.233343377478012e-06,-0.08337519,-0.17453952,-9.828266220000001,0.003511,-0.0012,0.004275,0.059686508076773254
1758010672.4179492,-0.7570907426882925,0.9473227085080947,2.145608306204447,-0.5183176011790807,0.7806902653798632,-0.12419793259241749,-0.14471122443338272,-5.116439818544054e-06,-0.07948062,-0.1707921,-9.81239364,0.001959,0.00022,0.005436,0.058000336197700036
1758010672.4384615,-0.7631349400980942,0.956093732344502,2.145646825216362,-0.5192508427722461,0.7806987666571109,-0.12428360688783513,-0.1444368982019078,-5.076082913947689e-06,-0.07888221,-0.16675038,-9.827814960000001,0.003825,0.000616,0.004507,0.0593861102327515
1758010672.458892,-0.7614267469758782,0.9531047757037616,2.1456559066641017,-0.5179932330627081,0.7802354860815488,-0.12438839233763532,-0.14419894497166846,-4.9633372753973484e-06,-0.07424208,-0.17513793000000002,-9.81209934,0.003491,-0.000129,0.003823,0.057922220109017014
1758010672.4805634,-0.773705455224865,0.9712463965451694,2.1456843821515044,-0.5212464949523394,0.7803980197303017,-0.12448209792497958,-0.1439330296388355,-4.915095480035377e-06,-0.07663572,-0.16570071,-9.83709522,0.002891,0.000275,0.004747,0.06207445484029938
1758010672.5009174,-0.7655655955409606,0.958596778461605,2.145695901692177,-0.5176015849564714,0.7796898546870995,-0.12459059261824051,-0.1436963779612748,-4.80956304922838e-06,-0.07663572,-0.16570071,-9.83709522,0.002891,0.000275,0.004747,0.05787371966236097
1758010672.5268042,-0.7702292545162863,0.9649112084854176,2.1457031087917997,-0.5174675290489938,0.7793679313883964,-0.12479204865272413,-0.1431905669125682,-4.682824982214777e-06,-0.07364367000000001,-0.16705449,-9.82078119,0.00364,-0.000355,0.004309,0.05798691130177158
1758010672.551922,-0.7751073483682469,0.9719521326106705,2.1457085243216145,-0.5182416097862474,0.7790387916688989,-0.1248893544083341,-0.1429219660600272,-4.658778796107666e-06,-0.06436341000000001,-0.17453952,-9.80775351,0.003836,-3.3e-05,0.00345,0.05898680333075791
1758010672.5724711,-0.773981331210251,0.969873440112779,2.1457141025023887,-0.5171291509226233,0.7786616330547312,-0.12500202103918606,-0.14268424405375701,-4.572268804191706e-06,-0.07275096,-0.16884972000000004,-9.81090252,0.002766,-0.000687,0.003814,0.05779275483765122
1758010672.5930111,-0.7796341464746721,0.9780805888854965,2.1457282404087206,-0.5178118025785282,0.7788084487034961,-0.12509930675650482,-0.14241935411990597,-4.5481377530754306e-06,-0.08157996,-0.1588239,-9.831709530000001,0.003568,-0.000867,0.003881,0.059087708115330956
1758010672.613744,-0.7777700746664226,0.9748874016229221,2.1457429773983066,-0.5164334628986904,0.7784043721242925,-0.1252154425362402,-0.1421925426819081,-4.4460438011621385e-06,-0.07619427,-0.15851979,-9.80925444,0.004192,-0.000642,0.004922,0.05762680246569062
1758010672.6347406,-0.7829889128035661,0.9824510682248463,2.1457352326501837,-0.5171626937612571,0.7784382109469903,-0.12531812844844636,-0.1419383438303224,-4.40871634605754e-06,-0.07873506000000001,-0.16121754000000002,-9.839488860000001,0.002684,0.001129,0.003215,0.058819169981321084
1758010672.6553667,-0.7820334434831442,0.9806384217312584,2.145736943506991,-0.5161349921914862,0.7782957169495887,-0.12543341458672636,-0.14171384030763762,-4.312856855621218e-06,-0.09370512,-0.16002072,-9.81733788,0.003964,1.6e-05,0.003939,0.05771473662454298
1758010672.6755688,-0.7883844780494835,0.989937355176504,2.145775162554208,-0.5171285401469808,0.7785558221684049,-0.12552884831687436,-0.1414566775122519,-4.289474057051467e-06,-0.08696565,-0.15986376000000002,-9.81164808,0.003417,-0.001352,0.004875,0.05925634835760775
1758010672.696053,-0.7858059659632756,0.9856800319528666,2.145778072571807,-0.5157296655607929,0.7781006587716082,-0.12564578396815135,-0.1412402186811303,-4.182302718319046e-06,-0.08308089000000002,-0.17064495000000002,-9.82511721,0.003635,-0.000234,0.004398,0.05752520383001809
1758010672.7162654,-0.7903870016822897,0.9923086770370697,2.1457451184185548,-0.516638991785507,0.7778952269830882,-0.12575168708346132,-0.14099366411756262,-4.147068230354414e-06,-0.07199559,-0.17483382000000003,-9.832602240000002,0.003382,-0.001007,0.002335,0.0585389572684374
1758010672.7373052,-0.7901786086018793,0.9916539919423283,2.1457388149578653,-0.5158891896432646,0.7775022851794474,-0.12586820062625154,-0.14076546198904877,-4.076754639510262e-06,-0.07215255000000001,-0.16645608,-9.8216739,0.001563,-0.001349,0.00342,0.057744173264285575
1758010672.7582674,-0.7949180221822485,0.9985295545931797,2.145728417263957,-0.5166466005596505,0.7773359688797177,-0.12597315549769408,-0.14051014052037766,-4.0690599134834494e-06,-0.07110288000000001,-0.17139051000000002,-9.82062423,0.002822,-0.0006,0.003106,0.0587542920750855
1758010672.7789927,-0.793673353763927,0.9963116102736668,2.145739403548939,-0.5155765193738676,0.777045689786314,-0.12609244872676487,-0.14028498460674543,-3.998028463691551e-06,-0.08217837000000001,-0.16675038,-9.81464013,0.003485,-0.000901,0.004694,0.05757163439217564
1758010672.800009,-0.7990909704934623,1.0042215367675467,2.145754706798349,-0.5164595602705789,0.7770650595128126,-0.12619654210769662,-0.1400294606821231,-3.995527769968191e-06,-0.07275096,-0.16944813,-9.81823059,0.002968,-0.001111,0.003476,0.05884555006514269
1758010672.820032,-0.7978723769435689,1.0020569225249858,2.1457486138455018,-0.5153976202487556,0.7766435764922094,-0.12631568723166323,-0.1398028346494849,-3.9322751534415214e-06,-0.07275096,-0.16944813,-9.81823059,0.002968,-0.001111,0.003476,0.05765413297147966
1758010672.8409145,-0.8093534465506149,1.0190922093896517,2.1457775437242486,-0.5184375826957166,0.7769942921427978,-0.12642102295533642,-0.13955026082450459,-3.92743416356762e-06,-0.07469334000000001,-0.17094906,-9.83035575,0.003485,8.1e-05,0.004205,0.06154115432213156
1758010672.8613796,-0.8008790053060615,1.0060033445384782,2.1457765083428146,-0.5148701352473194,0.7762159195501864,-0.12654493266493405,-0.13933214932732282,-3.8499963381413135e-06,-0.07469334000000001,-0.17094906,-9.83035575,0.003485,8.1e-05,0.004205,0.05734178961979139
1758010672.8862536,-0.8043325730482863,1.0106608574421683,2.1457847134307713,-0.5146851158756446,0.7759585253959181,-0.1267728750921673,-0.13885751784559922,-3.7854013856770813e-06,-0.07918631999999999,-0.173637,-9.83365191,0.002976,-0.001219,0.004473,0.057206365444361224
1758010672.910589,-0.8082968097587409,1.0163755599254711,2.1457857852204407,-0.5151862905300636,0.7758449699773396,-0.12688999952175997,-0.1386212510423059,-3.756794292768347e-06,-0.07380063,-0.16315992,-9.817485030000002,0.003285,-0.001149,0.003976,0.058095885931936105
1758010672.9312835,-0.807593923398441,1.0150013504014632,2.145784200096184,-0.5144601357636195,0.77574074257295,-0.1270166398246293,-0.13840573408700546,-3.687553627941904e-06,-0.09190989000000001,-0.16959528000000001,-9.81404172,0.005637,-0.001576,0.004257,0.05724039699853756
1758010672.9537542,-0.8132138849104504,1.0232531141653771,2.1457996713881133,-0.5155018844980311,0.7757580124791142,-0.1271268350374346,-0.13815620479675628,-3.6949142127999056e-06,-0.0754389,-0.16944813,-9.84053853,0.004417,-0.000602,0.004334,0.05865650875977716
1758010672.9738386,-0.8111728592984765,1.0198659667109633,2.1457830317474693,-0.5143024974452282,0.7754497104897486,-0.12725390024032013,-0.13794104362830678,-3.629321879198719e-06,-0.08547453,-0.17169462000000002,-9.7929306,0.003317,-0.001699,0.003129,0.057233476969508854
1758010672.9940996,-0.8143337123408486,1.0243694563429626,2.145798064657683,-0.5145287682413734,0.7753755952143961,-0.1273754779730136,-0.13771379448277227,-3.5945937979421727e-06,-0.07708698000000001,-0.1588239,-9.81928026,0.00356,-0.000182,0.004761,0.05784312860820241
1758010673.015113,-0.8140741942131562,1.023687303870578,2.1457873964492578,-0.5140156046719229,0.775027089779975,-0.12750566445727232,-0.1374989121059735,-3.5372478931077953e-06,-0.07184844,-0.17334270000000002,-9.80865603,0.003751,6.2e-05,0.003748,0.05718201645540093
1758010673.0356297,-0.8202071006654547,1.0327318658085556,2.1458032056683587,-0.5151211768952817,0.7751834018777078,-0.12761650041122635,-0.1372485175194959,-3.5593959624041805e-06,-0.0782838,-0.16645608,-9.81554265,0.002464,-0.000274,0.00434,0.058772537738853645
1758010673.0561852,-0.8172420361399345,1.0279585894828946,2.1457951617623987,-0.5136564928809628,0.7747712672161725,-0.12774860742354913,-0.13703988521966365,-3.490238845622569e-06,-0.08143281,-0.17094906,-9.83724237,0.001375,-0.000163,0.004075,0.057013940123762194
1758010673.076503,-0.8216500437811648,1.034379696861354,2.1457836598254847,-0.5143242160662883,0.7747678031795231,-0.127869375223491,-0.13680727430669565,-3.478920844870901e-06,-0.07603731000000001,-0.16346403,-9.81,0.00214,3.1e-05,0.003581,0.058084298033170174
1758010673.0974624,-0.8204712570917644,1.0323140068711363,2.1457828837853112,-0.5133937942752501,0.7744023642825637,-0.12800305362837366,-0.13659804349349236,-3.4190471271401943e-06,-0.07394778,-0.16375833,-9.83484873,0.003792,0.000234,0.004564,0.057065695138296665
1758010673.1178975,-0.8246831430027471,1.0384444111181899,2.145808896741011,-0.514127062825797,0.7745690234460153,-0.12812435655170482,-0.13636727536189241,-3.4088905625938937e-06,-0.08337519,-0.16794720000000002,-9.81389457,0.002215,-0.000897,0.005121,0.05805587287246014
1758010673.13848,-0.8240755740124539,1.0372549127511954,2.1457897635209022,-0.5133932966868323,0.7742677263445662,-0.12825554432028205,-0.1361551855216742,-3.360738711593114e-06,-0.07663572,-0.16734879000000003,-9.83065986,0.005274,0.000545,0.003316,0.057230523585133024
1758010673.1589406,-0.8287009303898314,1.0440201799856008,2.145829933689713,-0.5142104373284783,0.7746893447910373,-0.12837069444499177,-0.1359220298357151,-3.3599024463419205e-06,-0.09400923,-0.16825131000000002,-9.82122264,0.003263,0.000893,0.00561,0.05832066074051109
1758010673.1793065,-0.8269661528472835,1.041125740981831,2.1458186371787935,-0.513088889795576,0.7742515806222682,-0.128501669757332,-0.13571743585115773,-3.2981996115023634e-06,-0.07574301000000001,-0.16315992,-9.79697232,0.003926,-8.1e-05,0.004054,0.05706770689160397
1758010673.200035,-0.8380028179269046,1.0575575018582368,2.1458359208260482,-0.5163513317988819,0.7747499750312,-0.12862107826055438,-0.1354891146797915,-3.2909934392824164e-06,-0.07708698000000001,-0.15806852999999998,-9.803564640000001,0.004654,-0.001021,0.003799,0.06102375696155004
1758010673.2205734,-0.8292585891988224,1.0441038315180848,2.145824330270237,-0.5128508151724126,0.7738984894291616,-0.12875536622489453,-0.13528750757931304,-3.228392191382814e-06,-0.07708698000000001,-0.15806852999999998,-9.803564640000001,0.004654,-0.001021,0.003799,0.05682635964485153
1758010673.2411733,-0.8414428385544217,1.062280110521181,2.145830852990568,-0.516463076484779,0.7743868186126912,-0.1288734533634631,-0.13505622553206892,-3.234436401673127e-06,-0.06481467,-0.17214588000000003,-9.82406754,0.002603,-0.001382,0.004099,0.06121381626410999
1758010673.2615883,-0.8326489335930642,1.048769745851046,2.145820818683612,-0.5128751262502831,0.7735481090577229,-0.12900699835524565,-0.13484985672362426,-3.186387605097593e-06,-0.06481467,-0.17214588000000003,-9.82406754,0.002603,-0.001382,0.004099,0.0569556894217132
1758010673.2849226,-0.8347117917040062,1.0514367817990378,2.145827484052937,-0.5126281007673462,0.7732695910928529,-0.1292615506380824,-0.13441146916467325,-3.1500728967544222e-06,-0.08098155,-0.16615197,-9.83754648,0.001882,-0.001135,0.003502,0.05661361483265095
1758010673.3051856,-0.8477570723902663,1.0711148268513007,2.1458207362122366,-0.5172241326365723,0.7740971030559052,-0.1292615506380824,-0.13441146916467325,-3.1500728967544222e-06,-0.07499745000000001,-0.16645608,-9.799071660000001,0.003724,-9.5e-05,0.003909,0.06222900853425163
1758010673.3256538,-0.8388420562041068,1.0574711283362142,2.1458180161640623,-0.5133142928599261,0.7732705293730469,-0.1293876857802788,-0.1341868970632692,-3.149329947390648e-06,-0.07499745000000001,-0.16645608,-9.799071660000001,0.003724,-9.5e-05,0.003909,0.05767947725679896
1758010673.3462672,-0.8462755950759976,1.0685553823095963,2.1458669266289707,-0.5145464351952971,0.7734908264482846,-0.12948708780190374,-0.13392244365802106,-3.234699160213752e-06,-0.07813665,-0.16810416,-9.82631403,0.002966,-0.001769,0.005281,0.05958140423302302
1758010673.3661814,-0.8399350233298201,1.0584857018955074,2.1458383821188836,-0.5114617234079836,0.7724185784561316,-0.12975550825315527,-0.13352294549898613,-3.1080984539490425e-06,-0.08128566000000001,-0.16256151,-9.80445735,0.002409,0.000172,0.003951,0.056047174730474686
1758010673.3862362,-0.85341997689615,1.078850918269564,2.145843465245563,-0.5164678452599154,0.7736064303489931,-0.12975550825315527,-0.13352294549898613,-3.1080984539490425e-06,-0.08712261,-0.17558919000000003,-9.82856052,0.001784,-0.000235,0.004367,0.06186350855740604
1758010673.4065151,-0.8427404637065672,1.0622828265079889,2.1458329893688735,-0.5116888693585286,0.7723566371003312,-0.13002965263168312,-0.1331157584508947,-3.0237694119689335e-06,-0.07693983,-0.16301277,-9.80385894,0.005296,3.4e-05,0.005286,0.05635994626863659
1758010673.4274592,-0.8427404637065672,1.0622828265079889,2.1458329893688735,-0.5116888693585286,0.7723566371003312,-0.13002965263168312,-0.1331157584508947,-3.0237694119689335e-06,-0.06856209,-0.17303859,-9.83709522,0.002816,0.001424,0.003921,0.05635994626863659
1758010673.4483702,-0.844943171131441,1.065207299556385,2.1458016073502915,-0.5114643864329658,0.7718519412475487,-0.13030459274158465,-0.13269013444912098,-2.99265247401343e-06,-0.07499745000000001,-0.16974243,-9.811343970000001,0.003066,-0.000636,0.003567,0.05621928550480948
1758010673.4719806,-0.8497854943605454,1.0723488353128992,2.1458321630107955,-0.5125457022572019,0.7720347977047641,-0.13043811536164465,-0.13246697580480624,-3.0029191374769303e-06,-0.07753824,-0.17169462000000002,-9.82332198,0.002929,0.000497,0.005487,0.05761034511381398
1758010673.4924421,-0.8479544475999163,1.0693481583118971,2.1458271562308884,-0.5116026823841952,0.7717490808984128,-0.13058487569569577,-0.1322689619117059,-2.958171200725995e-06,-0.0782838,-0.17258733,-9.823920390000001,0.003054,-0.000636,0.004967,0.056471720066062533
1758010673.51276,-0.8489797248082626,1.0706728669682384,2.1457915738168616,-0.5114729509965487,0.7717282719831213,-0.1307322578955918,-0.13207081837544216,-2.9209887535881054e-06,-0.07948062,-0.16076628,-9.81344331,0.004952,-0.000649,0.003096,0.0565278231472838
1758010673.5328693,-0.8502242100203706,1.0723459256438155,2.1457789758720676,-0.5116731207200487,0.7716441503196867,-0.1308785643828495,-0.1318672705143585,-2.89986426354139e-06,-0.07439904,-0.17753157,-9.823174830000001,0.00333,-0.000741,0.00415,0.05663537167812752
1758010673.5535836,-0.8502242100203706,1.0723459256438155,2.1457789758720676,-0.5116731207200487,0.7716441503196867,-0.1308785643828495,-0.1318672705143585,-2.89986426354139e-06,-0.07439904,-0.17753157,-9.823174830000001,0.00333,-0.000741,0.00415,0.05663537167812752
1758010673.57429,-0.8558798485451599,1.0805906561005414,2.145764993773134,-0.511826107750103,0.7719987310952379,-0.1311178688327467,-0.13140102178190538,-2.983181034759899e-06,-0.07020036,-0.17244018,-9.81329616,0.004927,-0.000884,0.005113,0.05721087321849341
1758010673.5948546,-0.8561661805016352,1.0808150600533644,2.145728191180334,-0.5114485823490006,0.7719125918960158,-0.1312557497361562,-0.13120384331258766,-2.9449497647500266e-06,-0.08831943,-0.16615197,-9.8361927,0.003787,0.000689,0.002906,0.056893524774845
1758010673.6157603,-0.8546259058120608,1.0782576353226565,2.1456968603751143,-0.5107127730109705,0.771559145089269,-0.1314055530741711,-0.13102200745256737,-2.879710571159605e-06,-0.07813665,-0.16780005,-9.80416305,0.00454,-0.000315,0.003357,0.056025446775896486
1758010673.6361876,-0.8586376412137942,1.0841515960267272,2.1456892242382954,-0.5114513359504873,0.7716354671321477,-0.1315441854751806,-0.13081644896762706,-2.873353858144487e-06,-0.07708698000000001,-0.16301277,-9.84202965,0.003148,-0.001773,0.004214,0.05718445710493914
1758010673.657186,-0.8570668623902888,1.08155475766476,2.145668658855234,-0.5106310875577967,0.771376915318628,-0.13169429186814688,-0.13063090889317158,-2.8253710490822926e-06,-0.08203122,-0.16600482,-9.80101404,0.004087,-0.001283,0.003918,0.05622035224311191
1758010673.6777387,-0.8606949327589741,1.0868666540712353,2.145704487121586,-0.5112707291853666,0.7716521204239618,-0.13183295476080575,-0.13042801623783667,-2.8184654760816797e-06,-0.08636724,-0.16301277,-9.82122264,0.003534,-0.001725,0.006007,0.05719426570354762
1758010673.6976652,-0.859588315578554,1.0849849202767097,2.145676033114425,-0.5106055380533507,0.7712642655472186,-0.1319817823334527,-0.1302402857787508,-2.780341837554799e-06,-0.07065162,-0.16884972000000004,-9.81898596,0.001844,-0.000689,0.003376,0.0563733990731103
1758010673.7248669,-0.8612308167286333,1.0871056467359703,2.145638329496329,-0.5101258325835163,0.7709693339067846,-0.13226811546762704,-0.1298452874353164,-2.7555975945582264e-06,-0.08457201,-0.16884972000000004,-9.852065280000001,0.003392,1.1e-05,0.004423,0.0560699410303201
1758010673.7473004,-0.8754072491107245,1.1085309381693464,2.145591654462315,-0.5149893474537905,0.7720427535309683,-0.13226811546762704,-0.1298452874353164,-2.7555975945582264e-06,-0.07589016,-0.16301277,-9.796226760000001,0.003044,-0.001265,0.002495,0.06220125600010973
1758010673.76823,-0.8639169233547068,1.0908143175427258,2.1455646105370736,-0.5098898546741796,0.770768195740223,-0.13255768866009074,-0.12945514631375285,-2.7338876338609295e-06,-0.07888221,-0.15253569,-9.83709522,0.002964,-0.000405,0.003642,0.05623641689279105
1758010673.7883224,-0.8639169233547068,1.0908143175427258,2.1455646105370736,-0.5098898546741796,0.770768195740223,-0.13255768866009074,-0.12945514631375285,-2.7338876338609295e-06,-0.0754389,-0.17124336,-9.81344331,0.002116,-0.000292,0.00338,0.05623641689279105
1758010673.8083694,-0.8659404900145437,1.0935542533326934,2.1455352354633668,-0.5097327586304273,0.7704573850514403,-0.1328443170490127,-0.12905859690174876,-2.732958372186613e-06,-0.07753824,-0.16825131000000002,-9.81418887,0.003389,-0.001252,0.005135,0.05606220345586935
1758010673.8315709,-0.8697657985316127,1.0991921348579883,2.1455397027747587,-0.5104287271114931,0.7705292086598874,-0.1329875727145419,-0.12885827313360496,-2.7396978058851712e-06,-0.07529175,-0.16270866,-9.83290635,0.003659,0.000332,0.00463,0.05714267422570547
1758010673.8521042,-0.8678513209712506,1.0960968296404516,2.145534145612922,-0.5096063606672899,0.7701970392218088,-0.13314323481169565,-0.12867846316843345,-2.7008193195960638e-06,-0.07634142000000001,-0.17064495000000002,-9.80416305,0.003851,-0.000329,0.00494,0.05606623248370958
1758010673.874072,-0.8730086445342509,1.1037796807924527,2.145565364151704,-0.5108573305134086,0.7704268504055108,-0.13328086113966542,-0.12846605904865466,-2.7371187303750865e-06,-0.07693983,-0.17318574,-9.836948070000002,0.002368,0.000138,0.005384,0.05758033733598688
1758010673.894366,-0.86939344143619,1.0981093736146361,2.145561743324123,-0.5094666293497884,0.7699284837858417,-0.1334391277220949,-0.12828898678558362,-2.690970017611278e-06,-0.07215255000000001,-0.17094906,-9.81793629,0.00529,-0.001176,0.005599,0.05583756543642042
1758010673.915216,-0.8743146811182885,1.1054280566517263,2.1456029590827077,-0.5105939383476885,0.7701574141498744,-0.13358087408529548,-0.12808154889446255,-2.715385573477929e-06,-0.07648857,-0.16914402,-9.816141060000001,0.003859,-0.000671,0.005894,0.05732405010926745
1758010673.9356275,-0.8719295230122853,1.1016287801458722,2.1455749787119798,-0.5095400309067089,0.7697798392066936,-0.13373742162125507,-0.12790020020417103,-2.680888044291211e-06,-0.07380063,-0.16870257000000002,-9.83843919,0.004338,-0.000294,0.003408,0.056044574060376634
1758010673.9567566,-0.8764743627573486,1.108379230667118,2.145568869114138,-0.5103993979971517,0.7697813028805176,-0.13388044565415566,-0.12769168736428746,-2.7118705725802385e-06,-0.06780672,-0.16525926000000002,-9.796373910000002,0.004119,-3e-06,0.004156,0.05735453995877157
1758010673.976921,-0.8733281187641277,1.1034231656191529,2.1455651399768687,-0.5091456964742321,0.7695122722681789,-0.13404046912469442,-0.12751602786973207,-2.6667397864522503e-06,-0.08726976,-0.16660323000000002,-9.83484873,0.004455,-0.001347,0.005567,0.05581315948714696
1758010673.9971855,-0.8776194911942374,1.1097852493704525,2.145558252132542,-0.5101245811039131,0.7698679212382512,-0.1341853470521437,-0.12731540167127586,-2.683069309874345e-06,-0.08262963000000001,-0.16854560999999998,-9.80610543,0.002821,0.000231,0.004243,0.057091693799625226
1758010674.0175216,-0.8759798911723936,1.1071216389546428,2.145539124204804,-0.5092739167267863,0.7696178741305889,-0.13434112991723607,-0.12713564133040295,-2.6525030989806656e-06,-0.07918631999999999,-0.16466085000000003,-9.8216739,0.002852,-0.000489,0.004068,0.05610590792767968
1758010674.0450337,-0.8769390151223779,1.1082721631383259,2.145529736115506,-0.5090761088917407,0.7694569439827202,-0.13463936567422571,-0.12675458164367626,-2.6434975069539495e-06,-0.07724394000000001,-0.16854560999999998,-9.7954812,0.004833,-0.000785,0.004352,0.05571134474001894
1758010674.072028,-0.8813285991126446,1.114800835820168,2.145540076407462,-0.5101013153287252,0.7694265598836328,-0.13478473913103228,-0.12655109536967468,-2.6711078885974657e-06,-0.06615864,-0.17184177000000003,-9.84458025,0.00296,-0.001584,0.004848,0.05704126635079708
1758010674.0924425,-0.8787052397031907,1.110649989161214,2.145511872459986,-0.5090858188438323,0.7692027487017762,-0.13494412221634056,-0.12637430479828785,-2.637825895031038e-06,-0.08532738,-0.17438256000000002,-9.81987867,0.003348,-0.000539,0.003474,0.055734706167293785
1758010674.1131794,-0.8831711951688864,1.1172909454967226,2.145495556297492,-0.5100115258515993,0.7693580158456715,-0.1350891265618706,-0.12617064403724298,-2.670631066432977e-06,-0.07229970000000001,-0.16750575,-9.81628821,0.00434,-0.001401,0.003815,0.05707700011391284
1758010674.1336243,-0.8804830848086328,1.1130478537605402,2.1454802713669574,-0.508947897204003,0.7689823396102032,-0.13524933926081542,-0.12599365073678925,-2.6409133753817958e-06,-0.07260381,-0.17348985,-9.824822910000002,0.003392,0.000459,0.004413,0.055735807597842996
1758010674.154401,-0.8849280561623089,1.1196539909642438,2.1454145720742455,-0.5098990990142407,0.7695136560587769,-0.13539273606871347,-0.12579260898477765,-2.674038320211271e-06,-0.08726976,-0.16765290000000002,-9.81209934,0.00287,-0.001235,0.001951,0.05706930606661888
1758010674.174976,-0.8822040461938652,1.1153559780132396,2.145403915143932,-0.5087657315597582,0.7691273025452247,-0.13555177497848042,-0.12561908653021353,-2.6423412390604903e-06,-0.07454619,-0.16705449,-9.828707670000002,0.002402,-0.000638,0.004706,0.05571486599292863
1758010674.1994247,-0.8876693551662848,1.123535932085217,2.145454216343494,-0.5100842041412053,0.7694793394078773,-0.13569076410859734,-0.1254123305046618,-2.6875957366010496e-06,-0.0779895,-0.17244018,-9.80790066,0.004707,-0.000987,0.006025,0.05739026967014747
1758010674.2201607,-0.8870296122936479,1.1224227484906264,2.145448537607539,-0.5093321659332094,0.7691194218440599,-0.13583776674191364,-0.12522258715601814,-2.6902535879081796e-06,-0.06870924,-0.16495515000000002,-9.81494424,0.003922,0.000949,0.004531,0.05666486352252434
1758010674.2402494,-0.8876489160866506,1.1232138122185256,2.1454289929965036,-0.5089903868616749,0.7689815036509056,-0.13598645479667323,-0.1250378859443955,-2.683515818675001e-06,-0.0754389,-0.15956946,-9.80985285,0.002793,-0.001617,0.003861,0.056529481845383145
1758010674.2608285,-0.8868481261900804,1.1218435487384009,2.14543866820992,-0.5085283421888248,0.7687834986283044,-0.13614167815206915,-0.12486379421196447,-2.65324513470605e-06,-0.0782838,-0.16959528000000001,-9.82032993,0.004675,-0.001361,0.005854,0.05595053497592292
1758010674.2811232,-0.8923423441897047,1.130077250566298,2.1453938405387145,-0.5098247261792742,0.7692294270996454,-0.1362757088684379,-0.12465714482824192,-2.7042429933216988e-06,-0.08248248000000001,-0.17289144,-9.82466595,0.003148,-0.001208,0.002743,0.05759397232537512
1758010674.3021166,-0.8904624279649292,1.1270869443987266,2.1453991964536847,-0.5088541006644665,0.7687959590926235,-0.13642290070865667,-0.12447472447699783,-2.69361016515926e-06,-0.07275096,-0.17334270000000002,-9.819133110000001,0.002941,0.000189,0.00549,0.05642509082431214
1758010674.3243232,-0.8994512981053336,1.1405478973571286,2.1453506049355378,-0.5114822807529988,0.7692869586746336,-0.13656767321120183,-0.1242829380178961,-2.7087928164466993e-06,-0.08816247,-0.16466085000000003,-9.81014715,0.002612,-0.00031,0.003673,0.05986248907091914
1758010674.3460708,-0.8900645292688528,1.1262014090307633,2.145332056929222,-0.5080571182058012,0.7682927737618818,-0.13672483616267855,-0.12411389093733795,-2.672588750659278e-06,-0.08816247,-0.16466085000000003,-9.81014715,0.002612,-0.00031,0.003673,0.05566399269845244
1758010674.370815,-0.8909861937537406,1.1273224390239331,2.1452911451882004,-0.5081007460633367,0.7684520409776873,-0.13702616062202916,-0.12375744537062254,-2.6521762342736587e-06,-0.08083440000000001,-0.17004654,-9.822870720000001,0.002533,-0.001163,0.002094,0.055526154917041784
1758010674.3916373,-0.8936016032445299,1.1311646292340918,2.1452496644580243,-0.5086949453968661,0.7685317707631514,-0.13717545519892232,-0.12357310529867817,-2.6633373395149838e-06,-0.07484049000000001,-0.17154747,-9.82078119,0.003723,-0.000113,0.002822,0.05630263475663179
1758010674.4124744,-0.8910823114918357,1.1271848812289271,2.1452258967586637,-0.5078706894183239,0.768265764632184,-0.13733744705075646,-0.12340874299474767,-2.6292675216056546e-06,-0.08007903000000001,-0.1764819,-9.82197801,0.001619,-1e-06,0.003735,0.055179168246411586
1758010674.4335058,-0.8949807591397883,1.13298033408886,2.145195718978105,-0.5088914800299116,0.768811235929013,-0.13748431907461411,-0.12322140370357866,-2.6543181111773068e-06,-0.08786817,-0.17214588000000003,-9.82062423,0.00325,0.001038,0.003263,0.05644342399236586
1758010674.453897,-0.8925609102374255,1.129160485620991,2.1451777574489856,-0.5080218678799978,0.7683603090864762,-0.13764472206905695,-0.12305391704607596,-2.632233541403606e-06,-0.06466752,-0.17558919000000003,-9.81928026,0.002985,5.2e-05,0.003964,0.05530724131985236
1758010674.4740076,-0.8975648178874452,1.13664549806133,2.1451740890422917,-0.5088095112766003,0.76847697015322,-0.1377901099365872,-0.12285982863597358,-2.675914165902226e-06,-0.0663156,-0.15507648,-9.811795230000001,0.002746,-0.000388,0.004125,0.05689318992979057
1758010674.4941976,-0.8936825526140704,1.130603670951026,2.145144942955689,-0.5074841104006355,0.7680924270662127,-0.13795438308297245,-0.12269886337678323,-2.6400649759181664e-06,-0.08023599000000001,-0.17244018,-9.831258270000001,0.005102,-0.00094,0.003037,0.055165374779736695
1758010674.5144982,-0.8984663675549661,1.1377620683530987,2.145130118776504,-0.5085921722790855,0.7685170071121551,-0.13810134887875264,-0.12251018961467924,-2.6739461961651594e-06,-0.07873506000000001,-0.16585766999999998,-9.81823059,0.003139,-0.000504,0.003769,0.0567152078395783
1758010674.534625,-0.8949806448214359,1.132322539370217,2.1451341139770044,-0.5074047482049029,0.768169368351154,-0.13826522037576935,-0.12235113444474323,-2.635801183293317e-06,-0.08143281,-0.17109621000000003,-9.80925444,0.001636,9.3e-05,0.006011,0.055155211732873854
1758010674.5550287,-0.9003220380828362,1.1403450474679486,2.1451499104607095,-0.5086785427002711,0.7683734335093171,-0.13841086315234066,-0.122158611437805,-2.6789787404628972e-06,-0.06885639,-0.16794720000000002,-9.8333478,0.002467,-0.001175,0.004794,0.05688738636812061
1758010674.575565,-0.896578491740276,1.1345177393192238,2.1451348450033176,-0.5073945321921578,0.7681242559774433,-0.13857397589161274,-0.12199938998678381,-2.641470447733497e-06,-0.09385227000000002,-0.17184177000000003,-9.811343970000001,0.002953,5.8e-05,0.00439,0.05520232908132773
1758010674.5963404,-0.900838643818653,1.1408934590881001,2.1451303318447277,-0.5085245517162683,0.7683110801602705,-0.13872213932697514,-0.12181217424811137,-2.6736927302635624e-06,-0.07139718,-0.173637,-9.84202965,0.002159,-0.000797,0.004179,0.056565863673534424
1758010674.6181407,-0.9167835036499531,1.1649839625626022,2.145143292809081,-0.5141651216835004,0.7700491438112821,-0.13872213932697514,-0.12181217424811137,-2.6736927302635624e-06,-0.08322804,-0.1707921,-9.81733788,0.002291,-0.000144,0.004588,0.06350248905291635
1758010674.6440973,-0.8985600787516367,1.137100566924773,2.1450998102581496,-0.5067025045967545,0.7677232604704949,-0.13916079371672457,-0.1212815548526114,-2.6792754076532464e-06,-0.08262963000000001,-0.17468667000000002,-9.82616688,0.003025,0.001112,0.003926,0.05450747474901436
1758010674.664686,-0.8985600787516367,1.137100566924773,2.1450998102581496,-0.5067025045967545,0.7677232604704949,-0.13916079371672457,-0.1212815548526114,-2.6792754076532464e-06,-0.08262963000000001,-0.17468667000000002,-9.82616688,0.003025,0.001112,0.003926,0.05450747474901436
1758010674.6851327,-0.899801019097932,1.1387464947477135,2.1451045132072224,-0.5067157514278484,0.7676036259329834,-0.13947930374352435,-0.1209531532057021,-2.6360840954854613e-06,-0.06751242,-0.16346403,-9.820182780000001,0.004257,0.000114,0.00574,0.05472403724213046
1758010674.705867,-0.899801019097932,1.1387464947477135,2.1451045132072224,-0.5067157514278484,0.7676036259329834,-0.13947930374352435,-0.1209531532057021,-2.6360840954854613e-06,-0.06751242,-0.16346403,-9.820182780000001,0.004257,0.000114,0.00574,0.05472403724213046
1758010674.7267332,-0.9012381087520727,1.1406981907199425,2.1450973031746425,-0.5068462049480911,0.7677914021295681,-0.13979543032779165,-0.1206209880340323,-2.6102026159076473e-06,-0.07364367000000001,-0.16944813,-9.826912440000001,0.002321,-0.000791,0.002949,0.05488571330846447
1758010674.7523758,-0.9153758452875496,1.1621146133971607,2.1451025833273487,-0.5117005188678599,0.7692716481810549,-0.13979543032779165,-0.1206209880340323,-2.6102026159076473e-06,-0.07903917,-0.16555356,-9.81928026,0.003395,-0.00048,0.004364,0.06103158035445298
1758010674.7673078,-0.9020993572053844,1.1417750275845284,2.145060842362075,-0.5067904850300351,0.7678286832543583,-0.14011426792528942,-0.12029248597406364,-2.586444996722274e-06,-0.08203122,-0.17334270000000002,-9.8128449,0.003388,-0.001997,0.002946,0.0548257360234524
1758010674.7924695,-0.9069625267614613,1.1490821837824723,2.1450179178681523,-0.5082425418439148,0.768400435150974,-0.14026257917358953,-0.12011068904038515,-2.623124937393459e-06,-0.08352234000000001,-0.17662905,-9.8302086,0.002356,-0.000878,0.002817,0.056456109763034446
1758010674.8130746,-0.9040262225900354,1.1444908463461994,2.145000109600013,-0.5071028087297346,0.7680441384283062,-0.1404257508016294,-0.11995497558087674,-2.5962408412658595e-06,-0.07844076,-0.16286562,-9.799817220000001,0.003577,-0.002811,0.004023,0.055111424532149685
1758010674.8334212,-0.9040262225900354,1.1444908463461994,2.145000109600013,-0.5071028087297346,0.7680441384283062,-0.1404257508016294,-0.11995497558087674,-2.5962408412658595e-06,-0.07844076,-0.16286562,-9.799817220000001,0.003577,-0.002811,0.004023,0.055111424532149685
1758010674.8537188,-0.9040262225900354,1.1444908463461994,2.145000109600013,-0.5071028087297346,0.7680441384283062,-0.1404257508016294,-0.11995497558087674,-2.5962408412658595e-06,-0.07844076,-0.16286562,-9.799817220000001,0.003577,-0.002811,0.004023,0.055111424532149685
1758010674.876338,-0.9194345277075484,1.1680077272890552,2.1449793429596147,-0.5087163866889346,0.7687569554920758,-0.14062059255759984,-0.11947855084639225,-2.922366387323103e-06,-0.08427771,-0.16151184,-9.82377324,0.003553,-0.000606,0.003793,0.058609625605629004
1758010674.8963478,-0.9103765467888134,1.1540152075649426,2.1449418561744764,-0.5054122163636758,0.7668697595527311,-0.14094122885754404,-0.11918676975287258,-2.768290324958095e-06,-0.07289811,-0.16600482,-9.835594290000001,0.003172,0.000774,0.004879,0.054684553273723346
1758010674.9185963,-0.9146985001665124,1.160428803144954,2.144933233428155,-0.5070791738584703,0.7671902171714865,-0.14112386196609145,-0.11905516292325129,-2.6749813802136704e-06,-0.08053028999999999,-0.16375833,-9.836045550000001,0.003413,0.000648,0.004682,0.05686747185605903
1758010674.9390612,-0.9052484845777635,1.1459136108902153,2.144902596426041,-0.5043410504967649,0.7661281341274312,-0.1413212207885605,-0.11893430007544584,-2.5692702494611324e-06,-0.08053028999999999,-0.16375833,-9.836045550000001,0.003413,0.000648,0.004682,0.053274057459503525
1758010674.960009,-0.9126539558707264,1.1571241161189727,2.1448937885015606,-0.506798401252258,0.7669219712474727,-0.1414930673210504,-0.11876176632166013,-2.5934780606314875e-06,-0.07918631999999999,-0.17394111,-9.80521272,0.001868,-0.00027,0.004104,0.05614825850733521
1758010674.9809208,-0.9084337248472111,1.1505725619551685,2.144891005741197,-0.5055146456279087,0.7665544679572281,-0.14168331808599535,-0.11861913619736048,-2.545598312645059e-06,-0.08532738,-0.16690734000000002,-9.81777933,0.00401,0.000243,0.00584,0.05445560757249901
1758010675.0046701,-0.9076785599268211,1.149185730080703,2.1448866622049465,-0.5055110998656175,0.7664440289984403,-0.14206076737159543,-0.11831636032370683,-2.50253658625644e-06,-0.07380063,-0.16884972000000004,-9.81404172,0.004082,0.00037,0.004858,0.05416781686433667
1758010675.0247793,-0.9076785599268211,1.149185730080703,2.1448866622049465,-0.5055110998656175,0.7664440289984403,-0.14206076737159543,-0.11831636032370683,-2.50253658625644e-06,-0.08292393,-0.155979,-9.82990449,0.002796,0.000784,0.003201,0.05416781686433667
1758010675.0456119,-0.9086779669019246,1.1504704463666509,2.1448171345540192,-0.5056693697713488,0.7668962161052755,-0.1424329753050864,-0.11800986122008068,-2.485893625804036e-06,-0.08038314,-0.17483382000000003,-9.80550702,0.004722,-0.000573,0.002805,0.054407659752598175
1758010675.0674574,-0.9229482869889654,1.172112758777844,2.1448061333611124,-0.5106626383330434,0.7688813774767395,-0.1424329753050864,-0.11800986122008068,-2.485893625804036e-06,-0.0928026,-0.16854560999999998,-9.823920390000001,0.003232,-0.00052,0.003785,0.06062137278707441
1758010675.087885,-0.909304786365266,1.1512065765052977,2.1447868621003714,-0.5057614841995424,0.7673775283897831,-0.1427944601709787,-0.11770234316598373,-2.4809136190928066e-06,-0.07139718,-0.15986376000000002,-9.82766781,0.002855,-0.000175,0.004431,0.05437532368855651
1758010675.1119087,-0.9139394704651843,1.1581782622912207,2.1447974343908296,-0.5071252218670447,0.7680533688250911,-0.14296475896870672,-0.1175357534619466,-2.5118172352683364e-06,-0.08397360000000001,-0.16930098,-9.79727643,0.004798,-0.000765,0.00472,0.0559876557090952
1758010675.1329157,-0.9106495944633067,1.1530528821325197,2.144764215797366,-0.5060453975576753,0.7676406853121642,-0.14314969367656252,-0.11739302223486493,-2.484805158845886e-06,-0.07139718,-0.16256151,-9.839940120000001,0.003388,-0.000195,0.002732,0.05458279381595518
1758010675.153328,-0.9151295475846923,1.159794114161103,2.14478793037801,-0.5072317901149948,0.7680709913760098,-0.1433173048367442,-0.11722470259210352,-2.5214857381090225e-06,-0.07589016,-0.16720164,-9.79517709,0.002544,-0.001132,0.005158,0.05609015383670628
1758010675.173735,-0.9120321298719569,1.154965573955947,2.144749094773694,-0.5061285596288049,0.7676997669170933,-0.1434989586664046,-0.11708066811738631,-2.4988137211272957e-06,-0.07484049000000001,-0.15926535,-9.82197801,0.003435,0.000138,0.00226,0.054725982463640716
1758010675.1942146,-0.9160013814002598,1.1609338418685013,2.144773451689205,-0.5072360828095391,0.767984692269654,-0.14366532097992407,-0.11691263804384489,-2.5356832655071994e-06,-0.07260381,-0.17139051000000002,-9.80266212,0.002645,0.000574,0.005218,0.0560313730207789
1758010675.2147863,-0.9145826640479565,1.1586715465054747,2.1447553460914515,-0.5065405297913933,0.7677448707108998,-0.14383901220243306,-0.11675983791110348,-2.533968609496194e-06,-0.07364367000000001,-0.16165899,-9.79368597,0.004472,-0.000407,0.003718,0.055244249080793575
1758010675.2362638,-0.9161417730000694,1.1609548792219173,2.1447587636537087,-0.506892503229447,0.7678635526722982,-0.1440066558119039,-0.11659995677265865,-2.5505334929029023e-06,-0.07679268,-0.17019369,-9.839037600000001,0.002006,0.00031,0.004667,0.05563282763815299
1758010675.256516,-0.9133098946043156,1.156533979091005,2.1447250769663384,-0.506032325259474,0.767452668671404,-0.14418696903588296,-0.11645797299978879,-2.5244865082600924e-06,-0.0691605,-0.16974243,-9.79562835,0.003681,0.000298,0.002796,0.05445848491083861
1758010675.2767215,-0.9183282923149703,1.164096045058109,2.1447536266755725,-0.5073080478367918,0.7682200076377376,-0.14434643123732901,-0.11629020565923257,-2.5635186780435946e-06,-0.08667135000000001,-0.16645608,-9.811049670000001,0.003938,-0.000657,0.004135,0.056167946253717536
1758010675.2967334,-0.9142957958325424,1.157847656116969,2.1447361439520973,-0.506015423359002,0.7678183713845181,-0.14452358824158096,-0.11615177330906667,-2.5284593271753887e-06,-0.08667135000000001,-0.16645608,-9.811049670000001,0.003938,-0.000657,0.004135,0.054466452233909085
1758010675.3173678,-0.9180342929657769,1.1634628680313508,2.144725306018241,-0.5069033855271002,0.767974897489582,-0.1446878985076683,-0.11599127014657822,-2.5516592790698652e-06,-0.06885639,-0.16361118,-9.8213796,0.001939,-0.000443,0.003996,0.05574219918498635
1758010675.337846,-0.9157598677519451,1.1598903311504363,2.1447129403731395,-0.5060398102478351,0.7678095573176384,-0.14486208814042792,-0.11585005253828798,-2.5272311135674505e-06,-0.08667135000000001,-0.15851979,-9.84053853,0.003617,0.000394,0.004348,0.05471669599360224
1758010675.358514,-0.9256288527159569,1.174801703879365,2.144720291084136,-0.5089472147222696,0.7691133904954746,-0.14501930464194246,-0.11568798597890921,-2.555486915492072e-06,-0.08667135000000001,-0.15717582000000002,-9.831258270000001,0.002949,0.000324,0.002521,0.058554712263228254
1758010675.3790047,-0.9160367759131336,1.1601285680810263,2.144702543672847,-0.5057773796793563,0.7679254439113266,-0.14519381408537269,-0.11555374107804602,-2.515285930409291e-06,-0.08667135000000001,-0.15717582000000002,-9.831258270000001,0.002949,0.000324,0.002521,0.05443541226536047
1758010675.4039729,-0.917109315987133,1.1615901204893984,2.1446763501676536,-0.5058776052406952,0.7678670742258441,-0.14552549618984437,-0.11525888652092159,-2.5075213727941177e-06,-0.08172711,-0.1707921,-9.82377324,0.004022,-0.000903,0.0043,0.05452085612387775
1758010675.4288065,-0.9200075700665034,1.1659244195225476,2.1446945818318417,-0.5066758133594738,0.7682279792560426,-0.14568651793345097,-0.11510623832210597,-2.518284139659731e-06,-0.08232552,-0.16794720000000002,-9.82107549,0.003051,-0.000142,0.005257,0.055491722232046625
1758010675.449206,-0.9179536932677783,1.1626959125175282,2.1446948281487606,-0.5059871072397182,0.7678636845302049,-0.14585732055546008,-0.11496752086676515,-2.4941312487655766e-06,-0.07260381,-0.16600482,-9.80026848,0.003242,-0.000253,0.005242,0.05458045103716198
1758010675.4715586,-0.9346366669023284,1.1880132564194883,2.144762194147395,-0.5117626689695568,0.7693414993010556,-0.14585732055546008,-0.11496752086676515,-2.4941312487655766e-06,-0.06271533,-0.16899687,-9.838890450000001,0.000876,-0.000423,0.006218,0.061849552698853366
1758010675.4920833,-0.9201054458595544,1.1658604131927885,2.1447420969140456,-0.5060506150901143,0.7674253464007396,-0.14617266044154487,-0.11464612488236907,-2.5449089573201515e-06,-0.07409493,-0.17124336,-9.8128449,0.003359,0.000773,0.003638,0.054762052383584295
1758010675.5127304,-0.9224645977920622,1.169375001792801,2.1447653585965316,-0.5065792418626737,0.7675765240788531,-0.14633322451861572,-0.11449122545676065,-2.554432871057423e-06,-0.0751446,-0.16690734000000002,-9.83470158,0.00333,-0.001405,0.005598,0.05551026101051489
1758010675.532773,-0.9195759219348739,1.1648737978871126,2.14474656712325,-0.5056043786729426,0.7672119404132158,-0.14650687866880174,-0.11435573172074431,-2.517113854015517e-06,-0.07739109000000001,-0.16151184,-9.8245188,0.003198,-0.001448,0.00424,0.05432398382263623
1758010675.5566833,-0.9260323949012569,1.1746583913130637,2.1447486532452853,-0.5071538609407313,0.7678352759818033,-0.14665592167318744,-0.11418543154148882,-2.570495295640532e-06,-0.07634142000000001,-0.16450389,-9.803417490000001,0.003802,-0.001079,0.004316,0.05652284741869633
1758010675.5773766,-0.9214659029908786,1.1676181295351422,2.144734999211341,-0.5057115536996638,0.7672410965432993,-0.1468262099698613,-0.11404763615556597,-2.5378108158679534e-06,-0.07963758,-0.17767872,-9.8418825,0.001855,-0.000251,0.004651,0.054553058138656844
1758010675.5983608,-0.9305255923356904,1.1812962703823595,2.1447362665034184,-0.5088322581673166,0.7681434374471403,-0.1469870167000094,-0.11389225590674863,-2.5528233947773627e-06,-0.07574301000000001,-0.16914402,-9.834397469999999,0.002305,-0.000629,0.00496,0.058243544365303906
1758010675.6187828,-0.9208752273095179,1.1665545067803489,2.1447169750994135,-0.5056021743305736,0.7669921592866225,-0.14716135004777925,-0.11375627597363741,-2.519671842083694e-06,-0.07574301000000001,-0.16914402,-9.834397469999999,0.002305,-0.000629,0.00496,0.05415879790829532
1758010675.6446064,-0.9318875558095085,1.1831887737614415,2.1447493397281274,-0.509025473761994,0.7680928722641436,-0.14732485491967393,-0.11360179707128931,-2.5345962062068423e-06,-0.07275096,-0.16151184,-9.82766781,0.001848,-0.000923,0.004153,0.058701986857419994
1758010675.65979,-0.9222080589458994,1.168415468890291,2.14473207484689,-0.5057057998914373,0.7669558398790971,-0.1474967412943474,-0.11346118955531581,-2.515515903419644e-06,-0.07275096,-0.16151184,-9.82766781,0.001848,-0.000923,0.004153,0.054484423298477976
1758010675.6845388,-0.9228073096401074,1.1691719131433065,2.1447168237109944,-0.5054182308568831,0.7672501138408045,-0.1478176991620686,-0.113165680136727,-2.516363285655837e-06,-0.07813665,-0.16989939,-9.79593246,0.003409,-0.000347,0.004831,0.05427320255207205
1758010675.7096817,-0.9257339293860665,1.1735599678719162,2.144693326907448,-0.5062048280378597,0.7675457879031158,-0.14797759266362245,-0.11301674652697569,-2.5233628991937178e-06,-0.07708698000000001,-0.16705449,-9.82601973,0.002428,0.000108,0.003698,0.055293544401722794
1758010675.7300034,-0.9231388307266762,1.1695129665686539,2.1446737587434708,-0.505492954616809,0.7673258452465399,-0.14814786984049264,-0.11288386152652176,-2.491208520000543e-06,-0.08607294000000001,-0.17334270000000002,-9.822870720000001,0.004018,-0.000161,0.004128,0.0542272398167515
1758010675.7565963,-0.9298734008297824,1.1797316734939547,2.144624793140438,-0.5071538098780329,0.7682005080249118,-0.14829089238371432,-0.11271627184662418,-2.5532394654282788e-06,-0.08322804,-0.16600482,-9.796530870000002,0.003031,-0.001964,0.002687,0.056513510126300896
1758010675.7771626,-0.9251921057200573,1.1725214375107869,2.1446091306095063,-0.5056107256234377,0.7674981133554488,-0.14845641821307715,-0.1125818551672222,-2.525503991484347e-06,-0.07439904,-0.17289144,-9.82646118,0.004076,0.00034,0.004252,0.05448506883764649
1758010675.7983918,-0.9340831591884067,1.185958482165641,2.144588470045761,-0.5087123574844665,0.7686617783299347,-0.14861097720081426,-0.11243146543260545,-2.542675540325447e-06,-0.08172711,-0.17483382000000003,-9.8242245,0.002479,-0.000453,0.004344,0.05808971472459176
1758010675.8188524,-0.9243907725950505,1.171147789412524,2.144570863743782,-0.5054858821691073,0.7674143265308908,-0.14878006116425893,-0.11230095547923905,-2.509745671840125e-06,-0.08172711,-0.17483382000000003,-9.8242245,0.002479,-0.000453,0.004344,0.05400798930648251
1758010675.8441327,-0.9253677012274256,1.1724836377066856,2.1445587062246148,-0.5054300927736314,0.7675200309866465,-0.1491000985655965,-0.1120174866399344,-2.5078387028588227e-06,-0.08023599000000001,-0.16286562,-9.8245188,0.002206,-0.000897,0.004837,0.05415952461348415
1758010675.8647747,-0.9253677012274256,1.1724836377066856,2.1445587062246148,-0.5054300927736314,0.7675200309866465,-0.1491000985655965,-0.1120174866399344,-2.5078387028588227e-06,-0.08023599000000001,-0.16286562,-9.8245188,0.002206,-0.000897,0.004837,0.05415952461348415
1758010675.884783,-0.93057821230544,1.1803842207080062,2.14454662288448,-0.5068503864808259,0.7679538798917577,-0.14924763486961096,-0.11185683015928785,-2.5581534947679666e-06,-0.07334937000000001,-0.17198892,-9.84262806,0.002796,-0.000347,0.003827,0.05594831172320116
1758010675.9055867,-0.935718119481329,1.1881958586261057,2.144574032554199,-0.5078775278567659,0.7682201725930362,-0.1493740659292841,-0.11167369209016745,-2.662496010938398e-06,-0.07304526,-0.17662905,-9.807302250000001,0.003763,0.001067,0.004811,0.057305767816317875
1758010675.9257863,-0.9265458041591794,1.174066961614801,2.1445577406551832,-0.5046748686713418,0.7668651570531835,-0.14969619181178428,-0.11141202887753948,-2.5833259665451676e-06,-0.07679268,-0.16600482,-9.80385894,0.003422,-0.001846,0.004979,0.05347959788942707
1758010675.9471884,-0.9405525849712432,1.1953505896177792,2.1445789244950832,-0.509627548602738,0.7683304313093462,-0.14969619181178428,-0.11141202887753948,-2.5833259665451676e-06,-0.06571719000000001,-0.17303859,-9.826912440000001,0.00314,-8.2e-05,0.004938,0.05958481711429427
1758010675.968224,-0.9267930806359989,1.1742995571698143,2.1445367504348862,-0.5047482829289769,0.766686002212977,-0.15002804773523434,-0.11113982129216557,-2.5472670577801825e-06,-0.08921214,-0.15687171,-9.81898596,0.004684,-0.001185,0.003142,0.053636796535308465
1758010675.9920259,-0.9309548090788491,1.1805888397197475,2.1445146276553366,-0.5060733994756641,0.7672165842480657,-0.15018586127144232,-0.11098973017060973,-2.571853355504972e-06,-0.07753824,-0.17378415000000003,-9.835447140000001,0.004002,-0.000404,0.003624,0.055196983585194176
1758010676.0125833,-0.9274120538583273,1.1751007178395463,2.1444936938034846,-0.5050012609731516,0.7668820095772378,-0.1503581784917182,-0.11086182189103012,-2.539694023442679e-06,-0.08382645000000001,-0.16720164,-9.81418887,0.00378,0.000632,0.003871,0.05381136583454617
1758010676.0327013,-0.931470533161409,1.181227734195985,2.1444970003027732,-0.505934169653527,0.767200049262335,-0.1505165459783356,-0.11071234404543996,-2.5662347717340063e-06,-0.06885639,-0.16106057999999998,-9.819133110000001,0.003119,-0.001153,0.004518,0.05527632345869067
1758010676.0529878,-0.9282860820846327,1.176290893222039,2.1444817209933538,-0.5049303045811311,0.7667690709158422,-0.15068860722783115,-0.11058298693471931,-2.5402223884884946e-06,-0.07065162,-0.16540641000000003,-9.82542132,0.002782,-0.000296,0.004223,0.053982611897106444
1758010676.0763934,-0.9341758244694265,1.185220196406477,2.144461608581368,-0.5062543544550104,0.7676324767891565,-0.1508373664824779,-0.11042671182813114,-2.588300177731562e-06,-0.08217837000000001,-0.15956946,-9.81628821,0.003009,-0.00104,0.003565,0.05601322468235295
1758010676.096871,-0.9295688467719788,1.178117972201813,2.144445518102227,-0.5047295729733914,0.7670236060092667,-0.15100686832372476,-0.11030162541610884,-2.5524113734607363e-06,-0.07753824,-0.15866694,-9.835751250000001,0.00257,-0.000323,0.004206,0.05408451680060378
1758010676.1177292,-0.9325833163718009,1.1826670527162684,2.1444526639057866,-0.5058024396495622,0.7673410865357365,-0.1511638644992037,-0.1101568849054071,-2.569837883602579e-06,-0.07559586,-0.17798283,-9.80191656,0.003532,-0.000424,0.004731,0.05514700319883016
1758010676.1379561,-0.9297258039620525,1.178227104762783,2.144435707034603,-0.5049057243074174,0.7670764629526228,-0.1513324723511232,-0.11003050881782248,-2.540401024132483e-06,-0.08427771,-0.16420959000000002,-9.819427410000001,0.002689,-0.000325,0.004086,0.053993551438150315
1758010676.1580622,-0.9390196603995895,1.1923078615321625,2.1444273983469557,-0.5079550872336094,0.7681435450957772,-0.15148724040563058,-0.10988127484951128,-2.5735739776045077e-06,-0.08532738,-0.17064495000000002,-9.80266212,0.003152,2.1e-05,0.004733,0.05772427327065051
1758010676.1784415,-0.929281593450748,1.1774251998944691,2.1444108412257457,-0.5047987291829106,0.7669128871609979,-0.15165873063857988,-0.10975723002718761,-2.5399189204799073e-06,-0.08532738,-0.17064495000000002,-9.80266212,0.003152,2.1e-05,0.004733,0.05366491248480207
1758010676.2033744,-0.9299185059040012,1.1782579897424468,2.1443864188467696,-0.504834683324073,0.7670980112970968,-0.1519847206006393,-0.10948804177312799,-2.5353611411901757e-06,-0.07888221,-0.16256151,-9.79488279,0.002577,-0.000458,0.004172,0.05379691354034892
1758010676.2235525,-0.9427437957533492,1.1977460611106103,2.1444198319634564,-0.5091450094654631,0.7692721836831198,-0.1519847206006393,-0.10948804177312799,-2.5353611411901757e-06,-0.09504909,-0.16315992,-9.82901178,0.004361,0.001302,0.00549,0.059386469574338935
1758010676.2437773,-0.9307836286352639,1.1794333444530027,2.1443778168332575,-0.5051632548093128,0.7677009365072978,-0.15230386365082188,-0.10922603666947242,-2.5182433127940433e-06,-0.08292393,-0.17753157,-9.81045126,0.002953,-0.000707,0.002926,0.05400238871969448
1758010676.2639139,-0.9307836286352639,1.1794333444530027,2.1443778168332575,-0.5051632548093128,0.7677009365072978,-0.15230386365082188,-0.10922603666947242,-2.5182433127940433e-06,-0.08292393,-0.17753157,-9.81045126,0.002953,-0.000707,0.002926,0.05400238871969448
1758010676.2846298,-0.9311278674958361,1.179837001575251,2.1443911286296373,-0.5050980460012225,0.7678861241393015,-0.15261053292270033,-0.10895819549150565,-2.5181205644245013e-06,-0.07963758,-0.15986376000000002,-9.83095416,0.0033,-0.000341,0.004999,0.053845710653867326
1758010676.3063383,-0.945288012716367,1.2013642656712535,2.144415356126604,-0.5100452115110402,0.7699792729973298,-0.15261053292270033,-0.10895819549150565,-2.5181205644245013e-06,-0.0836793,-0.17064495000000002,-9.796226760000001,0.00386,-0.000443,0.005039,0.06001750553427952
1758010676.3268828,-0.931737104230153,1.1806496921229888,2.1443857688542103,-0.5052696433559734,0.768080886333783,-0.1529140846278822,-0.10869344682158444,-2.5111952194698783e-06,-0.08876088000000001,-0.17453952,-9.84143124,0.003052,0.000309,0.003547,0.053846648199528044
1758010676.3479846,-0.9341488963954814,1.1842772307070688,2.14437314618273,-0.5060624214587772,0.7683094409697147,-0.15306368818586466,-0.10855666072712142,-2.5225747999119097e-06,-0.07648857,-0.17408826000000002,-9.80176941,0.003792,0.000676,0.003997,0.054716247860320144
1758010676.3687806,-0.9336600437387976,1.1834692714542372,2.144333133836475,-0.5059378346282218,0.7682432969467585,-0.1532149469020642,-0.10842318898185353,-2.527056300247782e-06,-0.08098155,-0.17678601,-9.83664396,0.004127,-0.000606,0.002501,0.05441471543784929
1758010676.393043,-0.9370738098951362,1.1886199899869518,2.1443199236389585,-0.5063748206909297,0.7686428447090591,-0.15335335475073564,-0.1082790099247495,-2.562070758392993e-06,-0.08038314,-0.15478218000000002,-9.83065986,0.003814,0.000247,0.003769,0.05548086842829272
1758010676.4134455,-0.9327838393520237,1.1820034792116334,2.144306658797838,-0.5049798862762291,0.7679213368048929,-0.1535115843122528,-0.108160312891476,-2.527599519536504e-06,-0.07125003,-0.16211025,-9.80251497,0.0047,0.000259,0.004374,0.05373839092259762
1758010676.4342632,-0.9347847088629344,1.1849943396370928,2.144268837419058,-0.5054107781049693,0.7681048466336606,-0.15366275615962705,-0.10803125486210463,-2.526280910398179e-06,-0.07619427,-0.15956946,-9.833946209999999,0.001674,0.000346,0.002935,0.05448994802607518
1758010676.4546974,-0.9334092097221607,1.1828305750862507,2.1442855074521603,-0.5051833235925396,0.7678410861543498,-0.15381932777709578,-0.10790723882199843,-2.51095983040197e-06,-0.07439904,-0.1790325,-9.80266212,0.002893,0.001068,0.005905,0.05393305211426136
1758010676.4748797,-0.9378223053916748,1.189524120157621,2.144305015988677,-0.506292132172305,0.7684290018518913,-0.15395795273580756,-0.10776250766837993,-2.5513675904109577e-06,-0.08053028999999999,-0.16734879000000003,-9.841284090000002,0.00294,-0.00061,0.004925,0.05543242404034408
1758010676.4949281,-0.9338409855822378,1.1833805679423355,2.144284442269756,-0.5049996711310578,0.7678796030784301,-0.15411416347735943,-0.10764272485143336,-2.52339114444823e-06,-0.08188407,-0.16435674000000003,-9.81868185,0.003659,-3.7e-05,0.003627,0.05379084062313873
1758010676.5154333,-0.9384889094286344,1.1904420513168599,2.1442949351538774,-0.5062539331337265,0.7683346177296508,-0.15425226251032964,-0.10749834022144583,-2.562684619674754e-06,-0.07484049000000001,-0.17004654,-9.81194238,0.004759,-0.001087,0.004604,0.05540702285249226
1758010676.5363967,-0.9343359953274669,1.1840369185727222,2.144269969618824,-0.5049344278006663,0.7678123557222352,-0.1544083917882733,-0.10737958875546653,-2.5322054674954767e-06,-0.08712261,-0.16600482,-9.84876912,0.00377,-0.001196,0.003246,0.05371561372487992
1758010676.5579684,-0.9441244797112854,1.1988946710154624,2.144235088095032,-0.5081073082658628,0.7690982209934146,-0.15454725211986847,-0.10723795712533404,-2.5673482603409703e-06,-0.07229970000000001,-0.17019369,-9.84412899,0.003878,-0.000583,0.003891,0.05763165040733839
1758010676.5783732,-0.9343209962578926,1.1839127909079523,2.1442212618486245,-0.5048901729552869,0.7677001867126599,-0.1547047768234055,-0.10711979968718971,-2.5382084903799046e-06,-0.07229970000000001,-0.17019369,-9.84412899,0.003878,-0.000583,0.003891,0.053531089703660203
1758010676.5995703,-0.9417641532281685,1.1952721122075864,2.1442296267585093,-0.506938815207547,0.7683094570920509,-0.1548339789490382,-0.10695973639442165,-2.623373860308885e-06,-0.06840513000000001,-0.17468667000000002,-9.811500930000001,0.002472,-0.001057,0.004203,0.05613156387948856
1758010676.6198936,-0.9374262459831649,1.1886054890653557,2.1442103297883177,-0.5053654106512292,0.7676350305290947,-0.15498406281937624,-0.106831314724871,-2.616568744915764e-06,-0.07813665,-0.16854560999999998,-9.82406754,0.002472,-0.001677,0.003234,0.05422597986474899
1758010676.6432557,-0.9350223564672522,1.1848159816702173,2.1441576362185994,-0.5043155222602476,0.7671283006465904,-0.1552888959947912,-0.10657980354570235,-2.597724417603384e-06,-0.07813665,-0.16106057999999998,-9.79443153,0.003417,-0.000953,0.003252,0.053203534863351595
1758010676.6688533,-0.9379732436338282,1.1892725116300356,2.1441693606441152,-0.5052808912769488,0.767484768446072,-0.1554400382900688,-0.10644820493129213,-2.6076316534816803e-06,-0.07454619,-0.17094906,-9.84891627,0.003676,0.00148,0.004863,0.05438362872250462
1758010676.6896281,-0.9353950156108471,1.185264478588464,2.144139197683117,-0.5044397251967775,0.7671242863621865,-0.1556020474327554,-0.10633066047671859,-2.582233810816379e-06,-0.07244685000000001,-0.1588239,-9.795334050000001,0.002416,-0.000319,0.002913,0.053425357328806156
1758010676.713867,-0.9407001012100148,1.1933292863770568,2.144135670176736,-0.5057101758726595,0.7677069568497842,-0.15574449602736892,-0.106187337350316,-2.629122318063788e-06,-0.07170129,-0.16241436,-9.83454462,0.002599,-0.001995,0.003997,0.055316556098732664
1758010676.7344947,-0.9360931092078653,1.186234520131719,2.1441101458499743,-0.5043595276197864,0.7671650458905646,-0.15590592672680964,-0.10607098914470534,-2.60089902465203e-06,-0.08412075,-0.17229302999999999,-9.828707670000002,0.003274,-0.00029,0.00284,0.053467361704663416
1758010676.7545817,-0.9388201717916408,1.1903615964797158,2.1440964731933105,-0.5052907282707357,0.7672520631919783,-0.15605762788996458,-0.10593582032967755,-2.6263269031365616e-06,-0.062273880000000004,-0.17543223,-9.807302250000001,0.003128,-0.000866,0.003707,0.05449078859310153
1758010676.775279,-0.9362860095007092,1.1864257814504116,2.144090949192818,-0.5046013687775435,0.767183702860692,-0.15621792627814093,-0.10581597134200306,-2.610059106751892e-06,-0.09145863,-0.17109621000000003,-9.84278502,0.002818,-1.9e-05,0.004461,0.053511374474474
1758010676.802894,-0.9463393248849654,1.2016691158128932,2.1440880074955446,-0.508004356103215,0.7687046023225605,-0.15636750993600573,-0.10568054375676825,-2.6370636031082135e-06,-0.08217837000000001,-0.16256151,-9.82078119,0.003475,-0.000511,0.00338,0.05771661310201473
1758010676.8179748,-0.9365120933120533,1.1866618997985683,2.1440790965265784,-0.5047433132980996,0.7673760615406238,-0.1565257793642957,-0.10556006779948322,-2.623990544581647e-06,-0.08217837000000001,-0.16256151,-9.82078119,0.003475,-0.000511,0.00338,0.05353961546926551
1758010676.843103,-0.9369950904844122,1.1872962109796148,2.1440449460444997,-0.5048517332696038,0.7676620291120234,-0.15682482372498893,-0.10530339944183154,-2.6446522565429743e-06,-0.08007903000000001,-0.17109621000000003,-9.82122264,0.002748,-0.000468,0.003315,0.053567499800749575
1758010676.863532,-0.9369950904844122,1.1872962109796148,2.1440449460444997,-0.5048517332696038,0.7676620291120234,-0.15682482372498893,-0.10530339944183154,-2.6446522565429743e-06,-0.08007903000000001,-0.17109621000000003,-9.82122264,0.002748,-0.000468,0.003315,0.053567499800749575
1758010676.8841026,-0.9378677342756347,1.1885516643902008,2.1440420772214432,-0.5047867972401547,0.7678079700642747,-0.15711034679605848,-0.10503977157937329,-2.6818628082325316e-06,-0.08203122,-0.16256151,-9.808803180000002,0.003829,-0.000393,0.004773,0.05355769541669294
1758010676.9093547,-0.9406354733298283,1.192730968720137,2.144079756326482,-0.5054296701626374,0.7682021455647293,-0.1572524658126161,-0.10491080676422553,-2.6912396410833496e-06,-0.07858791000000001,-0.16286562,-9.835447140000001,0.001839,-0.000226,0.005822,0.05455658079988572
1758010676.9304025,-0.9376460886931802,1.1881029182310343,2.1440647970903557,-0.5045372975590721,0.767760819582956,-0.157406972166477,-0.10479748695550373,-2.6590099941735227e-06,-0.07574301000000001,-0.16570071,-9.81373761,0.003144,-0.002346,0.003938,0.05339434920052498
1758010676.9506917,-0.9417067762718548,1.194258661554238,2.1440538958699715,-0.5054735647951879,0.7685735808259921,-0.15754452324982943,-0.10466830482301412,-2.674314883032266e-06,-0.08831943,-0.1591182,-9.82556847,0.003375,-0.002112,0.003862,0.054850458456238066
1758010676.9709854,-0.9382896670156127,1.18898200433239,2.144057889289794,-0.5046034847524778,0.7680939975131047,-0.1576958161410933,-0.10455622743074419,-2.641426379199962e-06,-0.08217837000000001,-0.17947395,-9.822272309999999,0.00364,-0.000541,0.005414,0.053474836858824405
1758010676.9918087,-0.9413591328257773,1.1936348252386957,2.1440637272422167,-0.5054490344185741,0.7683567154668172,-0.15783554727763877,-0.10442791071141043,-2.655208672073978e-06,-0.07199559,-0.16765290000000002,-9.823027680000001,0.00222,-0.001291,0.004531,0.05457822582362886
1758010677.0125155,-0.9387699427430979,1.189618360048309,2.1440470194931933,-0.5046195076335539,0.7680387952828606,-0.15798579557711048,-0.1043147106620079,-2.628276456727701e-06,-0.08262963000000001,-0.16286562,-9.8128449,0.003556,-0.000623,0.003768,0.05353386972939267
1758010677.0327735,-0.9397453708471272,1.1910515084857285,2.1440379457015037,-0.5049242250913601,0.7683712148451582,-0.1581309866349541,-0.10419734394490485,-2.6163154943718495e-06,-0.08756406,-0.16495515000000002,-9.81329616,0.002947,-0.000327,0.004126,0.05391440194725292
1758010677.0536184,-0.938775854743374,1.189518347617055,2.144019351641049,-0.5049417031966704,0.7682892234012058,-0.1582786358917039,-0.10408147762387902,-2.602177150483945e-06,-0.0811287,-0.18351567000000002,-9.824371650000002,0.003349,-0.001447,0.003612,0.05354965604004759
1758010677.0741057,-0.9441674769878017,1.197733953149273,2.144027906196995,-0.506251624930309,0.7688971334210853,-0.1584052312659379,-0.10394089896365848,-2.6570750051435084e-06,-0.07439904,-0.16675038,-9.815238540000001,0.004942,-0.001016,0.004309,0.05538556786403269
1758010677.0944543,-0.9394992777669976,1.1905506206986562,2.1440292045269356,-0.5047004812597484,0.7682080804821032,-0.15855260694982312,-0.10382908337989165,-2.627741218395122e-06,-0.08203122,-0.16076628,-9.8245188,0.003546,0.001156,0.005388,0.053457870185581235
1758010677.115686,-0.9423573577372584,1.1948817007503536,2.144036769410044,-0.5056115023963137,0.7686611651133171,-0.1586876944157508,-0.10370229882350658,-2.6418711030838922e-06,-0.08337519,-0.16346403,-9.821821049999999,0.001686,-0.000276,0.003695,0.05448773474352164
1758010677.1359205,-0.9394223135753493,1.1903375151444322,2.1440187175305887,-0.5046859927375152,0.7682759361448659,-0.15883488411082428,-0.10359168498381334,-2.6123116749173284e-06,-0.08337519,-0.16346403,-9.821821049999999,0.001686,-0.000276,0.003695,0.053337275915250115
1758010677.1560373,-0.9424154898422896,1.1948726387488486,2.144036958469224,-0.505469594834256,0.7686036439824725,-0.15897066332364854,-0.1034664363576693,-2.624779990252162e-06,-0.07499745000000001,-0.16585766999999998,-9.81628821,0.003049,-8.5e-05,0.005042,0.05442667319343301
1758010677.1764774,-0.9424154898422896,1.1948726387488486,2.144036958469224,-0.505469594834256,0.7686036439824725,-0.15897066332364854,-0.1034664363576693,-2.624779990252162e-06,-0.08517042000000001,-0.16899687,-9.811500930000001,0.003078,-0.000224,0.003714,0.05442667319343301
1758010677.2033947,-0.9498352463659643,1.2061517480311896,2.1440452901043727,-0.5067168058905415,0.769362740903961,-0.1592044097678708,-0.1031930796406842,-2.703801141094158e-06,-0.0754389,-0.15223158,-9.795029940000001,0.003592,-0.000518,0.005009,0.05659757856313094
1758010677.218503,-0.939978274621533,1.19105448910344,2.144026286415701,-0.5037118671024793,0.7677690291604935,-0.15935643986697118,-0.10309583464422746,-2.6325406055247848e-06,-0.0754389,-0.15223158,-9.795029940000001,0.003592,-0.000518,0.005009,0.052677714628799735
1758010677.2425346,-0.9399167050458339,1.1908665744593792,2.1440005122210835,-0.5039682925369748,0.7675634774246433,-0.15964987916628776,-0.10287388644478634,-2.580629905918208e-06,-0.07155414,-0.17214588000000003,-9.82257642,0.002901,-0.000109,0.004706,0.0528524690135464
1758010677.2629957,-0.9399167050458339,1.1908665744593792,2.1440005122210835,-0.5039682925369748,0.7675634774246433,-0.15964987916628776,-0.10287388644478634,-2.580629905918208e-06,-0.07155414,-0.17214588000000003,-9.82257642,0.002901,-0.000109,0.004706,0.0528524690135464
1758010677.2863169,-0.9419663052843562,1.1939465255136001,2.1439835243222864,-0.5042201983278248,0.7676093710240806,-0.15992695519920025,-0.10262521886407751,-2.607653013247399e-06,-0.07394778,-0.16046217000000002,-9.83470158,0.002284,0.001041,0.00423,0.05336210233377395
1758010677.3074055,-0.9551939733510022,1.2140839218305797,2.144024929148568,-0.5088066252340636,0.7693694532750384,-0.15992695519920025,-0.10262521886407751,-2.607653013247399e-06,-0.06646275,-0.17124336,-9.80565417,0.003266,-8.9e-05,0.005753,0.05913297093023007
1758010677.3282259,-0.9404046966195906,1.1914749835392304,2.1440089844354677,-0.5038157484556887,0.7672447400610756,-0.16022231656779773,-0.10239398688808178,-2.582973378693929e-06,-0.08816247,-0.16645608,-9.83738952,0.002276,0.001024,0.004465,0.05274970169962062
1758010677.3518333,-0.9450109506898712,1.1984842022885132,2.1440687441842305,-0.5050998785082015,0.7678486573315049,-0.16036225500499923,-0.10226757455020215,-2.601207566831269e-06,-0.07304526,-0.1651023,-9.80550702,0.004351,-0.000261,0.006399,0.05450673957793489
1758010677.3721466,-0.9405686359106158,1.1916364919436837,2.1440500817769106,-0.5038212996174055,0.7673043201806328,-0.16051968104305023,-0.10216367739579904,-2.55740897100322e-06,-0.08203122,-0.16270866,-9.81688662,0.00395,-0.000763,0.003967,0.05282417869439503
1758010677.392827,-0.9431635393932315,1.1955573434159474,2.144027841307306,-0.5046223749185734,0.7677883081648808,-0.16066662966655004,-0.10204633214382688,-2.556222307667651e-06,-0.07784234999999999,-0.16450389,-9.8387433,0.004275,0.001568,0.003611,0.05387484765805611
1758010677.413189,-0.9435177258879865,1.1960600857788481,2.1440114069824787,-0.5048765325110873,0.7678435346292014,-0.16081115572395285,-0.10192614206111844,-2.5640685861384487e-06,-0.07469334000000001,-0.17782587000000002,-9.8014653,0.00397,-0.000192,0.003689,0.05393225342185422
1758010677.4335737,-0.9430800837618766,1.1953442300375323,2.143977407259695,-0.5048945558723252,0.7680548921574195,-0.16095517656853267,-0.10180881194444888,-2.565907887596449e-06,-0.09011466,-0.17753157,-9.83679111,0.003315,0.000951,0.002745,0.05371245807839607
1758010677.4542406,-0.9415686044711867,1.192981504137143,2.1439816262210396,-0.5045005037381699,0.767780766995361,-0.16110507791178028,-0.1016976334560344,-2.550958633443803e-06,-0.06870924,-0.16810416,-9.808803180000002,0.003025,-0.000255,0.005066,0.05317312805901553
1758010677.4754431,-0.9463072133297937,1.2002072353404583,2.1440241913280316,-0.5060554101298207,0.7685740438397678,-0.1612345257276077,-0.10156234150438825,-2.6025594600263704e-06,-0.07963758,-0.18037647,-9.83709522,0.004343,-0.000462,0.005584,0.054845404310145986
1758010677.4963124,-0.9415941531042613,1.192958616852195,2.14400358104095,-0.5046225120547845,0.7679978225690819,-0.16138310166616213,-0.10145359010274589,-2.5764905277261676e-06,-0.08712261,-0.17064495000000002,-9.7986204,0.003305,0.001167,0.003415,0.052980612162313236
1758010677.5185096,-0.9521557000194293,1.208999257430999,2.14396337927702,-0.5076563391965162,0.7699137332018253,-0.16151804623403665,-0.10133376114554539,-2.587342920975617e-06,-0.07469334000000001,-0.15851979,-9.834397469999999,0.004203,-0.000346,0.003665,0.05738122877604764
1758010677.5388813,-0.9422531856501298,1.193860513401629,2.143951698340511,-0.5044422821619933,0.7683598975489031,-0.16166370988494386,-0.10122764229186461,-2.5607085506024024e-06,-0.07469334000000001,-0.15851979,-9.834397469999999,0.004203,-0.000346,0.003665,0.053182587064345616
1758010677.5638664,-0.9425451179921455,1.194237364389088,2.143972526736377,-0.5046009315748593,0.7684366526129575,-0.1619367979155353,-0.10099620625281354,-2.560355863953605e-06,-0.07693983,-0.16570071,-9.84098979,0.003545,-0.000114,0.004102,0.05313534401908866
1758010677.5855858,-0.9560721106813769,1.214837082565571,2.1439879207458894,-0.5089581358205365,0.7706977592040934,-0.1619367979155353,-0.10099620625281354,-2.560355863953605e-06,-0.08053028999999999,-0.15851979,-9.81434583,0.003487,-0.000443,0.004749,0.059030673984598
1758010677.6057713,-0.9421516870558969,1.1935434549314856,2.1439665093068285,-0.5041996023716705,0.7683976216115647,-0.1622130150305338,-0.10077591089100073,-2.5329569840332905e-06,-0.07813665,-0.16226721000000002,-9.813590460000002,0.003041,-8.4e-05,0.004023,0.05289018808804369
1758010677.6286259,-0.9452832755218754,1.1982939787417883,2.1439542589575655,-0.5050665123869679,0.7690374019993899,-0.1623458909650999,-0.10066178817447943,-2.5349743318048783e-06,-0.08532738,-0.16301277,-9.82406754,0.004439,-0.001126,0.003958,0.05407518918797599
1758010677.648841,-0.9433145205269462,1.1952415640299527,2.1439435658839923,-0.5046244733268375,0.768583805909822,-0.16248676484743488,-0.10055482993102756,-2.5168934027619574e-06,-0.06885639,-0.1764819,-9.816582510000002,0.002687,-0.001306,0.004176,0.05328020152230964
1758010677.669479,-0.9459713055167063,1.1992705175897642,2.143943385788303,-0.5052644573064685,0.7689207585900885,-0.16261721913369925,-0.1004366610150424,-2.532516957064454e-06,-0.07574301000000001,-0.16406244,-9.83035575,0.002399,0.000673,0.004341,0.054209900259239996
1758010677.6898048,-0.9460833427372423,1.1994155129066622,2.1439561971883014,-0.5053825073868047,0.7688026137210485,-0.16274685942333283,-0.10031777550235484,-2.547717668609809e-06,-0.07364367000000001,-0.18126918000000003,-9.80101404,0.002059,6e-06,0.005058,0.054084654219026924
1758010677.7099411,-0.9462784958600818,1.1996795494027503,2.14394556170115,-0.5053402687877045,0.7687630481899566,-0.16287571987645455,-0.10019977909297832,-2.5601881318012804e-06,-0.07679268,-0.17124336,-9.82601973,0.003266,-0.00077,0.003907,0.05402108816745792
1758010677.7304542,-0.942994307862571,1.1946075837300087,2.143923829376174,-0.5044094108628957,0.768303288389227,-0.16301758917790235,-0.10009685043323638,-2.530775791062999e-06,-0.08038314,-0.16825131000000002,-9.82542132,0.004691,0.000984,0.003502,0.05280152673796283
1758010677.7522743,-0.9604989561206753,1.2212702084336025,2.143927446051041,-0.5104627112745528,0.7712273300515042,-0.16301758917790235,-0.10009685043323638,-2.530775791062999e-06,-0.07963758,-0.17064495000000002,-9.80535987,0.003332,-0.001299,0.004279,0.06044222273094542
1758010677.773266,-0.9454484582912255,1.1983249509816558,2.143935340985232,-0.5046931671345937,0.7685910505956173,-0.16326511827969387,-0.0998542301005892,-2.574577510233586e-06,-0.08203122,-0.16016787000000002,-9.83798793,0.003478,0.000889,0.00553,0.05335061289284419
1758010677.793747,-0.9457622506624105,1.1987678939282782,2.1439260043876356,-0.5048755093425739,0.7685018207008458,-0.16339908360967137,-0.09974343632156345,-2.5661181664453148e-06,-0.07215255000000001,-0.17318574,-9.79069392,0.003614,-0.00048,0.00415,0.053500095433600695
1758010677.8137572,-0.9438875226032561,1.1958507196380024,2.143921755264321,-0.5043658710315627,0.7681874109293684,-0.16354052007721712,-0.09963977930061366,-2.5394490433215887e-06,-0.07394778,-0.16630893,-9.82946304,0.003377,-0.000965,0.004698,0.052865737891270984
1758010677.8339067,-0.9467250061491576,1.20015712032153,2.1438945147575836,-0.505189481243767,0.7686351548126894,-0.1636706504053268,-0.09952221122229016,-2.556774144528058e-06,-0.07679268,-0.16870257000000002,-9.819133110000001,0.004078,-0.001657,0.00326,0.05394470466739826
1758010677.8541093,-0.9438260920873905,1.1956761415761745,2.1438882601389784,-0.5042952803416932,0.7681289870463219,-0.1638127624109,-0.09941848192299922,-2.5340890903200366e-06,-0.06930765,-0.16315992,-9.808803180000002,0.003869,-0.00046,0.004547,0.052849588711006604
1758010677.8744674,-0.9466363693303534,1.1999397454377352,2.1438935128449454,-0.5051351203690081,0.7686909188514846,-0.16394300433691958,-0.09930204311182232,-2.5499301861257746e-06,-0.08083440000000001,-0.16870257000000002,-9.820182780000001,0.003499,6.2e-05,0.004547,0.053910658102143974
1758010677.8954363,-0.9436627305484032,1.1953440170014376,2.143882842067823,-0.5043197390149463,0.7683122752468553,-0.16408445914826925,-0.09919959016976003,-2.5255677327087458e-06,-0.07978473,-0.16899687,-9.808351920000002,0.003283,0.001339,0.004251,0.05278775961286036
1758010677.9159067,-0.9478044863122178,1.2016436041984124,2.1438724041135373,-0.5053043743829829,0.7691936247762848,-0.16420882227738187,-0.09908219707162405,-2.5476550877857895e-06,-0.08622009,-0.16002072,-9.835751250000001,0.0035,-0.000371,0.003885,0.054295973456453164
1758010677.9362826,-0.9443272146725301,1.1962751135622571,2.143853511263373,-0.5042429634875667,0.7688088846065111,-0.1643466257446074,-0.09898336630107306,-2.516190204772908e-06,-0.0925083,-0.16121754000000002,-9.81898596,0.0029,-0.000817,0.003632,0.052915360162638474
1758010677.9567006,-0.9467714805182531,1.199992186267545,2.143843739983807,-0.5050409155046244,0.7689433253658059,-0.16447537666714135,-0.09887034811891741,-2.5280762106822896e-06,-0.06691401,-0.17124336,-9.81344331,0.002626,-0.00075,0.003945,0.05382785378278406
1758010677.9767797,-0.9484234823640547,1.202482296148472,2.143857776641082,-0.5052362447711131,0.7693748413566284,-0.16459653117544404,-0.09875604428371669,-2.54304685075172e-06,-0.08891784,-0.16016787000000002,-9.82107549,0.002609,-0.000342,0.00492,0.05426767416156909
1758010678.002893,-0.9443095761189759,1.1961176646485712,2.1438565119301023,-0.5039897683072937,0.7686876527584323,-0.16485222192287996,-0.09854760457366875,-2.5111737891971565e-06,-0.08921214,-0.16630893,-9.823174830000001,0.002095,-0.000673,0.005414,0.052484724377387854
1758010678.0233681,-0.9443095761189759,1.1961176646485712,2.1438565119301023,-0.5039897683072937,0.7686876527584323,-0.16485222192287996,-0.09854760457366875,-2.5111737891971565e-06,-0.08921214,-0.16630893,-9.823174830000001,0.002095,-0.000673,0.005414,0.052484724377387854
1758010678.0436068,-0.9448167950831261,1.1968467656177926,2.1437924143952944,-0.5042090931691479,0.7686740806960645,-0.16510545221189868,-0.09833098569585061,-2.511223793384791e-06,-0.07648857,-0.17035065,-9.81269775,0.003114,-0.000944,0.001756,0.052601610911850644
1758010678.0647764,-0.9581236324891095,1.2171332323804713,2.143821661399498,-0.5086997675518682,0.7710422002205398,-0.16510545221189868,-0.09833098569585061,-2.511223793384791e-06,-0.08217837000000001,-0.16660323000000002,-9.82661814,0.004027,-0.000409,0.005283,0.058401886382173286
1758010678.0852585,-0.951397246611515,1.16717847309065,2.1500415250843856,-0.5046918242732719,0.7554798251074125,-0.16521044817435754,-0.09776271841432917,-3.6600418737633125e-06,-0.08471916,-0.17214588000000003,-9.83035575,0.003656,0.000795,0.005836,0.05262258850504917
1758010678.1089902,-0.9576965742119005,1.1570582232879423,2.152977241492458,-0.5057882968424839,0.7501198446740308,-0.1652984899862951,-0.09744459610261014,-4.0417648039978e-06,-0.07155414,-0.16989939,-9.816141060000001,0.00208,-0.00117,0.003462,0.053763743553900345
1758010678.12923,-0.9583653222618521,1.1387180592893713,2.15579172126896,-0.5052139883253765,0.7449221765015535,-0.16542717109955937,-0.09712310599637562,-4.1986081058991365e-06,-0.0865242,-0.16495515000000002,-9.81718092,0.002078,-0.001285,0.004139,0.05275898553980608
1758010678.1501625,-0.9613803832825305,1.124052740605415,2.158520850892078,-0.5055810898385195,0.7404374319216394,-0.16557806256089352,-0.09678803392995303,-4.225535618207203e-06,-0.07079877000000001,-0.17394111,-9.818829,0.003988,0.000994,0.005081,0.052757319598876015
1758010678.1712074,-0.9647977953119917,1.1101429885427745,2.161153168463578,-0.5062903859242721,0.7367872755858461,-0.16574423006290864,-0.09644016129659133,-4.1402270437961726e-06,-0.08712261,-0.18561501000000002,-9.818534699999999,0.003885,-0.000585,0.004981,0.052882180383982166
1758010678.1914778,-0.9719706510320332,1.1017997537827826,2.163710529844442,-0.507522491285267,0.7337982950442824,-0.1659057511493678,-0.09607124781338355,-4.023932305810906e-06,-0.07993188000000001,-0.16690734000000002,-9.8387433,0.003092,-0.000313,0.003873,0.054219804109923164
1758010678.2118607,-0.9728140933388009,1.0844413895766056,2.1661533516223948,-0.5073264178330684,0.7302206178018844,-0.16609541071518202,-0.09570613515888426,-3.7295934089063634e-06,-0.07844076,-0.19295289,-9.80805762,0.003108,-0.000471,0.004223,0.05316482629308439
1758010678.2328646,-0.9777655168859035,1.0731506812273397,2.1685185977509693,-0.5078659902429189,0.7276017846630592,-0.1662900083538373,-0.09533214525134734,-3.3624525555135196e-06,-0.07873506000000001,-0.15926535,-9.82886463,0.002361,-0.001165,0.00399,0.05371641598599826
1758010678.2537785,-0.9782175589637703,1.0555878461592352,2.170747638078593,-0.5074484460477421,0.7246687175207015,-0.16651038584508093,-0.09496637472999166,-2.8400465911290277e-06,-0.07813665,-0.16780005,-9.80790066,0.003134,-0.000354,0.002648,0.05264939742974452
1758010678.2747853,-0.9837371084381556,1.0454276382127488,2.1729384354745758,-0.5084581050422061,0.7227067918153881,-0.16673006968756937,-0.09458698548883565,-2.2841743942314418e-06,-0.07603731000000001,-0.16450389,-9.81718092,0.003391,-0.001584,0.00418,0.05350543714908703
1758010678.294767,-0.9850254521914614,1.0294055045391857,2.1750065884832424,-0.5084531626066686,0.7204313937916856,-0.16696720505934112,-0.09421297785485046,-1.614247752460222e-06,-0.07858791000000001,-0.17318574,-9.819731520000001,0.002935,0.00019,0.002945,0.05276124447603285
1758010678.316907,-0.997983209117667,1.0300113849890726,2.1770370038073237,-0.5116127681022427,0.7202770637423767,-0.16719483133557325,-0.09382505990494486,-9.363821467872719e-07,-0.08382645000000001,-0.17019369,-9.82901178,0.003561,-0.001083,0.004903,0.05663436470525955
1758010678.3374102,-1.0015908952889645,1.0175560092935048,2.1790059277208336,-0.512580582203729,0.7188616274675171,-0.16744825863113605,-0.09345428540367608,-1.1445292441425823e-07,-0.08322804,-0.1704978,-9.81688662,0.004342,-0.000261,0.006347,0.056984105217852535
