timestamp,x,y,theta,vx,vy,bias_accel_x,bias_accel_y,bias_angular_velocity,accel_x,accel_y,accel_z,gyro_x,gyro_y,gyro_z,cov_trace
1757944702.2641408,0.0,0.0,0.0,0.0,0.0,-2.810884941980198,0.3463065591683168,0.017817689108910892,0.09265545000000001,0.30880899,9.78485697,0.003812,0.000222,0.002449,3.13
1757944702.2847352,-0.0004898882633160718,-2.0946662305917885e-05,0.602695032332532,-0.3860136344499007,-0.016505186696186086,-2.810884941980198,0.3463065591683168,0.0008484306104349082,0.09744273000000002,0.29024847,9.783650340000001,0.003599,0.000251,0.004612,0.935664373017425
1757944702.30554,-0.005834237420561788,0.0005690636038974076,0.9190120247658342,-0.45081792248289493,0.04819256671194064,-2.810884941980198,0.3463065591683168,0.0004336588140969106,0.10852803000000001,0.30027429,9.79248915,0.004008,-0.000705,0.00639,0.5871122412899351
1757944702.326336,-0.0059269738758737246,0.0006845128497880398,1.113139080809284,-0.24592924308881936,0.03212637078575206,-2.810884941980198,0.3463065591683168,0.0002904759105615592,0.10597743000000001,0.29578131,9.787544910000001,0.00407,0.000203,0.003626,0.4097385033840659
1757944702.3477814,-0.011341814853683886,0.0037277101440251286,1.2521319070788435,-0.26649478651342934,0.09875921312736738,-2.810884941980198,0.3463065591683168,0.00021735120957955067,0.10269108,0.30132396,9.7667379,0.005316,-0.00182,0.005391,0.33451653616694393
1757944702.3678238,-0.011971858502330434,0.005974467030970241,1.3564537195038557,-0.28630651510266625,0.1601272360233463,-2.810884941980198,0.3463065591683168,0.00017338605861089813,0.10269108,0.29623257000000003,9.80521272,0.003055,-0.000367,0.004049,0.28262990203009075
1757944702.3879092,-0.017011880494224738,0.01113733248423968,1.4385245154394415,-0.30655018512862087,0.2199318707962202,-2.810884941980198,0.3463065591683168,0.00014362621828180246,0.08562168,0.29474145,9.780658290000002,0.003418,0.001909,0.005245,0.24867565053987428
1757944702.4132223,-0.023906111731644714,0.020883660930684167,1.5602493140386295,-0.34346546763210783,0.3243825721197134,-2.810884941980198,0.3463065591683168,0.00010608529069085401,0.10463346000000001,0.28994436,9.803564640000001,0.002752,0.000682,0.006062,0.20242509252949842
1757944702.4353251,-0.021704624640709554,0.02810398909378539,1.6390126710085209,-0.25436246128775686,0.3743715573086538,-2.810884941980198,0.3463065591683168,9.333315382998341e-05,0.09700128,0.29938158000000004,9.79517709,0.002724,-0.000306,0.003031,0.17943281862476407
1757944702.4615407,-0.02333203535743652,0.037955790407790055,1.6957602715401077,-0.22384275210193488,0.4239934560647441,-2.810884941980198,0.3463065591683168,8.292759047999492e-05,0.10343664,0.28725642,9.79562835,0.004898,-0.000518,0.003063,0.16498320521701115
1757944702.4818635,-0.02313812876961827,0.0423372633629029,1.7407536725910813,-0.2163593831988316,0.46756118692204796,-2.810884941980198,0.3463065591683168,7.445225075059131e-05,0.10762551000000001,0.29907747,9.79697232,0.003902,-0.00022,0.004882,0.15206289920128058
1757944702.5022948,-0.025601652516865792,0.050767717040641945,1.7781267871308124,-0.2184661775796044,0.5072441538852234,-2.810884941980198,0.3463065591683168,6.7299500655006e-05,0.09744273000000002,0.29907747,9.76554108,0.003861,0.000683,0.004806,0.143180477371795
1757944702.5224295,-0.028521984071328697,0.05932552358861997,1.8098415627666427,-0.22595118919271637,0.5430733688360418,-2.810884941980198,0.3463065591683168,6.117662948178997e-05,0.10463346000000001,0.30402171,9.787397760000001,0.004246,-0.001237,0.005662,0.13580941082005038
1757944702.5460882,-0.03453443362028284,0.07457732774562507,1.8372959794811896,-0.23668408444959396,0.5770718058366356,-2.810884941980198,0.3463065591683168,5.5746114759885586e-05,0.09190989000000001,0.30221667,9.787250610000001,0.003044,-0.000179,0.00469,0.13145941818446397
1757944702.5669816,-0.0356868561648695,0.07734403848232638,1.861045576530464,-0.2493212862708641,0.6056947548316506,-2.810884941980198,0.3463065591683168,5.1113391699311885e-05,0.10717425000000001,0.3034233,9.79069392,0.002805,0.001416,0.003528,0.12404472759968663
1757944702.5881166,-0.04012672260517498,0.08751935139974858,1.8819173362339825,-0.2628860259144829,0.6316537445776657,-2.810884941980198,0.3463065591683168,4.700152390279442e-05,0.09205704,0.30446316,9.78829047,0.002791,0.000539,0.004269,0.11983490109064937
1757944702.6132083,-0.047737694822703146,0.10338340804349551,1.916737101870428,-0.2906562917802004,0.6752116800325515,-2.810884941980198,0.3463065591683168,4.01002454833141e-05,0.10208286000000001,0.29728224000000003,9.77781339,0.002451,-0.001937,0.004098,0.1116708304783498
1757944702.6356845,-0.0531032386162155,0.1143283081565163,1.9314155615873663,-0.30439145949942903,0.6938333400631274,-2.810884941980198,0.3463065591683168,3.714613468602391e-05,0.09655002,0.30147111000000004,9.795334050000001,0.003937,-0.00054,0.005236,0.10901997315678078
1757944702.6557457,-0.0531032386162155,0.1143283081565163,1.9314155615873663,-0.30439145949942903,0.6938333400631274,-2.810884941980198,0.3463065591683168,3.714613468602391e-05,0.09176274,0.29099403,9.79218504,0.001642,-0.002263,0.004522,0.10901997315678078
1757944702.6764457,-0.06203571436247123,0.1310922356790249,1.9565621041724697,-0.330653072939221,0.7256163079007799,-2.810884941980198,0.3463065591683168,3.201243346970166e-05,0.10687995,0.3125466,9.78455286,0.003655,-0.00063,0.004565,0.1029784950933974
1757944702.6965916,-0.06721389384768182,0.14064015050656814,1.9673548107519228,-0.3427637348346357,0.7387695363237382,-2.810884941980198,0.3463065591683168,2.9802350050483642e-05,0.0925083,0.29324052,9.791292330000001,0.003261,-0.001607,0.003364,0.10085011242305529
1757944702.717212,-0.0726174396775427,0.15041972370960455,1.9771841047825305,-0.3542703348704506,0.750596932894567,-2.810884941980198,0.3463065591683168,2.7771014204814224e-05,0.11211849,0.30177522,9.787250610000001,0.00384,0.000497,0.001135,0.09892374997406131
1757944702.7380838,-0.0726174396775427,0.15041972370960455,1.9771841047825305,-0.3542703348704506,0.750596932894567,-2.810884941980198,0.3463065591683168,2.7771014204814224e-05,0.11211849,0.30177522,9.787250610000001,0.00384,0.000497,0.001135,0.09892374997406131
1757944702.7581224,-0.08346817291538773,0.16942517256856168,1.9944599547297512,-0.3755997435835628,0.7710567205040578,-2.810884941980198,0.3463065591683168,2.4128258433546044e-05,0.10148445,0.29084688000000003,9.78605379,0.001617,-0.00033,0.00419,0.09498228053203922
1757944702.7789576,-0.08844391512754542,0.17775903952199745,2.002015359369498,-0.38505172152332207,0.7793602480366729,-2.810884941980198,0.3463065591683168,2.2545806743279648e-05,0.1070271,0.2951829,9.7692885,0.003053,-0.000486,0.003091,0.09325315378383284
1757944702.7992613,-0.09491396349148984,0.18896141373601844,2.0089932493731046,-0.39394784390982374,0.7868572745140895,-2.810884941980198,0.3463065591683168,2.1069121091664668e-05,0.09385227000000002,0.3008727,9.775419750000001,0.003121,0.000968,0.003761,0.09226232267580126
1757944702.8267603,-0.10439107684023573,0.20592108706102621,2.015490778666882,-0.40243702066971704,0.7937832068381524,-2.810884941980198,0.3463065591683168,1.966267475500139e-05,0.10044459,0.31090833,9.77302611,0.002531,-0.000938,0.004886,0.09244032338720445
1757944702.8532743,-0.1103486821542896,0.2139548529088977,2.0269909720483046,-0.41709859838271,0.8046893625673313,-2.810884941980198,0.3463065591683168,1.7231986723581224e-05,0.09370512,0.29249496,9.792783450000002,0.003444,0.000117,0.004142,0.08756968275806656
1757944702.8732848,-0.11601307284181615,0.22313381537935487,2.03214197997589,-0.4236457759969154,0.8092127972348918,-2.810884941980198,0.3463065591683168,1.61431359534952e-05,0.09190989000000001,0.30506157,9.76972995,0.00326,-0.001061,0.004404,0.08660839487184843
1757944702.8999603,-0.12440066356290339,0.23738982600425368,2.0369746477917783,-0.42981296196634855,0.8133038695010099,-2.810884941980198,0.3463065591683168,1.5108212983515801e-05,0.09550035000000001,0.30371760000000003,9.772280550000001,0.003072,6e-06,0.00402,0.08669774354416263
1757944702.9204504,-0.12717422372897272,0.24096179847711616,2.0414653194707064,-0.4354201456365235,0.8167830086290901,-2.810884941980198,0.3463065591683168,1.4162706658415438e-05,0.09400923,0.29833191000000003,9.77856876,0.004331,-0.000548,0.003929,0.08445833787098324
1757944702.9408164,-0.132928159715496,0.2501136642276411,2.0456733958605664,-0.4406227129292185,0.8198357969481905,-2.810884941980198,0.3463065591683168,1.3278129243732164e-05,0.09744273000000002,0.30282489,9.7983261,0.004196,-0.00011,0.004681,0.08368242822492135
1757944702.9611506,-0.14014372706583628,0.26191122169642206,2.049635886128346,-0.44547492910751296,0.822524254463303,-2.810884941980198,0.3463065591683168,1.2442333356282845e-05,0.08876088000000001,0.30221667,9.77092677,0.001127,-0.000298,0.004184,0.08345145370859283
1757944702.9821117,-0.14427331502061772,0.26796776508618303,2.0533490768550298,-0.44992728755683276,0.8248151523474004,-2.810884941980198,0.3463065591683168,1.1669190759148701e-05,0.10717425000000001,0.30476727000000003,9.77362452,0.003125,-0.001588,0.005374,0.08199310725490558
1757944703.002436,-0.1501181182055959,0.2771482760233318,2.056847925212681,-0.4540518895120431,0.8267860644473183,-2.810884941980198,0.3463065591683168,1.0944424484591398e-05,0.10313253,0.30192237,9.81449298,0.002872,-0.000157,0.004934,0.08134885247598561
1757944703.0231526,-0.15652449874352692,0.28730652352050384,2.0601540186505662,-0.4578768193288158,0.8284675165083975,-2.810884941980198,0.3463065591683168,1.0262459243428175e-05,0.09520605,0.30161826,9.77317326,0.003914,0.000765,0.005195,0.08091348789585823
1757944703.0436938,-0.16148012350181967,0.2948100172189608,2.0632727499428665,-0.46140311555790775,0.8298737385522467,-2.810884941980198,0.3463065591683168,9.626914476104364e-06,0.10523187,0.30027429,9.77991273,0.003526,0.000442,0.002526,0.07993504222702068
1757944703.06409,-0.16680992654591353,0.30297128574588167,2.066221782213825,-0.46466207422908196,0.831039104535441,-2.810884941980198,0.3463065591683168,9.032544151579955e-06,0.09954207,0.30161826,9.80251497,0.002684,-0.000745,0.004046,0.07919380684682648
1757944703.084198,-0.17242695722216442,0.3116264006059175,2.0690161699980623,-0.46767743519843696,0.8319888499183397,-2.810884941980198,0.3463065591683168,8.475321173312474e-06,0.09999333,0.28785483,9.79069392,0.003372,0.001844,0.003508,0.07860707056832959
1757944703.1046047,-0.17924444157986902,0.322385433842275,2.071674635051825,-0.47047242259475147,0.8327382834791125,-2.810884941980198,0.3463065591683168,7.948870272261465e-06,0.10178856,0.30371760000000003,9.78993855,0.005316,0.000987,0.00389,0.07846164028151925
1757944703.1257129,-0.18363740001868747,0.3288357037334207,2.074192892156394,-0.47305033141251296,0.8333131469510359,-2.810884941980198,0.3463065591683168,7.459396591927898e-06,0.10148445,0.29788065,9.799071660000001,0.003144,-0.000621,0.002882,0.07741110922436273
1757944703.146486,-0.18938483032298342,0.3376649235317268,2.0765890100976723,-0.4754364162505176,0.8337289770616436,-2.810884941980198,0.3463065591683168,6.9997470197089256e-06,0.10912644,0.29309337,9.795029940000001,0.004906,0.000332,0.00266,0.07697321603205431
1757944703.1666613,-0.19459186342354748,0.3455341839008015,2.078868698719252,-0.4776440527067677,0.8340052166580914,-2.810884941980198,0.3463065591683168,6.569524643117463e-06,0.10059174,0.28575549,9.787093650000001,0.002408,-0.000781,0.004505,0.07635685200290898
1757944703.1873288,-0.20018013791635994,0.35405914031054064,2.081042045205443,-0.4796877368908835,0.8341535039698111,-2.810884941980198,0.3463065591683168,6.165669536291436e-06,0.09595161,0.30101985000000003,9.799974180000001,0.002861,-0.000544,0.003638,0.07592338996486411
1757944703.207723,-0.20576442995473235,0.3625655989748829,2.0831161621015273,-0.48157937538537343,0.8341860886816759,-2.810884941980198,0.3463065591683168,5.786529577489149e-06,0.09595161,0.30101985000000003,9.799974180000001,0.002861,-0.000544,0.003638,0.07550374393342865
1757944703.2339242,-0.21652908023709802,0.3788522718214543,2.087004036695517,-0.4849368277366928,0.8339044911471671,-2.810884941980198,0.3463065591683168,5.0912008000074895e-06,0.11286405000000001,0.29997999,9.79802199,0.003164,5.8e-05,0.004378,0.07434196652363945
1757944703.2544656,-0.22211983819234393,0.3873438442020462,2.0888146323006005,-0.48643610226562795,0.8336594571068738,-2.810884941980198,0.3463065591683168,4.778821645831431e-06,0.1041822,0.29757654,9.78500412,0.003401,-0.001104,0.005079,0.07407775546521629
1757944703.2744892,-0.22705895639326257,0.3947145283813965,2.0905464613909928,-0.48782769409175986,0.8333502301670366,-2.810884941980198,0.3463065591683168,4.486413862043295e-06,0.09729558,0.28845324,9.78589683,0.002649,-0.00167,0.00411,0.07358132207128662
1757944703.294584,-0.22705895639326257,0.3947145283813965,2.0905464613909928,-0.48782769409175986,0.8333502301670366,-2.810884941980198,0.3463065591683168,4.486413862043295e-06,0.09729558,0.28845324,9.78589683,0.002649,-0.00167,0.00411,0.07358132207128662
1757944703.3151743,-0.2380084035548566,0.4112721464322102,2.09381312204376,-0.490284634240105,0.8324735782754945,-2.810884941980198,0.3463065591683168,3.948147269402066e-06,0.10104300000000001,0.30835773000000005,9.768533130000002,0.003434,-0.001549,0.004757,0.07275681493830342
1757944703.3354893,-0.24290400356492425,0.4185635869758236,2.0953389210793816,-0.49139341703195244,0.8319984133532947,-2.810884941980198,0.3463065591683168,3.7071587319169464e-06,0.10208286000000001,0.2894931,9.77991273,0.002103,0.00138,0.004107,0.07237270350233427
1757944703.3557665,-0.24832775340226843,0.4267475090158076,2.0968048318566073,-0.49242083169139184,0.8314775144155147,-2.810884941980198,0.3463065591683168,3.480569853213738e-06,0.09849240000000001,0.31150674,9.764942670000002,0.001259,-0.000662,0.004095,0.07218789786503121
1757944703.3762863,-0.25328943595767883,0.4341495322338602,2.098212534720277,-0.49337548080380206,0.8309234835295055,-2.810884941980198,0.3463065591683168,3.2681240249892265e-06,0.10896948000000001,0.30926025,9.78485697,0.003601,0.001267,0.0042,0.07183313513931008
1757944703.3963332,-0.2585760992042448,0.4420978891246618,2.099566392041103,-0.49425972861864076,0.8303338928799753,-2.810884941980198,0.3463065591683168,3.068474260524703e-06,0.10073889000000001,0.29129814000000004,9.78156081,0.002802,-0.001274,0.004506,0.07161257833214901
1757944703.4182174,-0.26616945795472985,0.45390889350753644,2.1008767571598828,-0.49505642580043746,0.8296638738448988,-2.810884941980198,0.3463065591683168,2.878268975594417e-06,0.10852803000000001,0.29742939,9.77871591,0.003961,-0.00037,0.005188,0.07215088754537205
1757944703.4385724,-0.26890586667192357,0.4575802073387472,2.102129962325108,-0.495814897600385,0.8290185170670917,-2.810884941980198,0.3463065591683168,2.7025839749421254e-06,0.10867518,0.29713509,9.78814332,0.003184,-0.000689,0.003731,0.07092731687805465
1757944703.4592845,-0.2743646025075698,0.4658107011379278,2.1033379693781837,-0.49651420441576466,0.8283442189085434,-2.810884941980198,0.3463065591683168,2.537228719011668e-06,0.09894366,0.30012714,9.783503190000001,0.002776,-0.000815,0.003739,0.07083885533267724
1757944703.4796598,-0.27909857182129166,0.4728320379088426,2.104500848006013,-0.49716465306980356,0.8276583233573727,-2.810884941980198,0.3463065591683168,2.382299883914747e-06,0.09116433,0.30386475,9.77766624,0.003515,-0.000643,0.004407,0.07048637500483376
1757944703.5032911,-0.2890958748886241,0.4885978325989704,2.1056359452776956,-0.4977117555950135,0.8268431235636116,-2.810884941980198,0.3463065591683168,2.232532736619959e-06,0.09834525,0.29039562,9.787093650000001,0.003106,-0.000369,0.004448,0.07188982250538162
1757944703.523516,-0.2889454884722889,0.48750858709408096,2.1067153609636,-0.49827099834080985,0.826134350688041,-2.810884941980198,0.3463065591683168,2.0967188319210924e-06,0.09759969,0.29637972,9.78814332,0.002518,-0.001251,0.00344,0.0696274907857337
1757944703.5437171,-0.294053266822776,0.4951546305702115,2.1077572179576585,-0.4987878054366971,0.8254137671879545,-2.810884941980198,0.3463065591683168,1.9689960640513626e-06,0.09205704,0.2980278,9.7894971,0.003645,0.00077,0.00368,0.06957543255783677
1757944703.564726,-0.2994552352412933,0.5032865268201353,2.1087640288160046,-0.4992608308080709,0.8246752191881886,-2.810884941980198,0.3463065591683168,1.8486812421551962e-06,0.11137293000000001,0.28261629000000005,9.7784118,0.002883,-0.000602,0.004106,0.06958659639469517
1757944703.5855305,-0.3041917437485888,0.5103196893963914,2.109735654887963,-0.49969921331736783,0.823934002244916,-2.810884941980198,0.3463065591683168,1.7358291190252943e-06,0.09520605,0.3097017,9.783208890000001,0.002919,-0.001394,0.004099,0.06933909334513644
1757944703.6060324,-0.30907822585381833,0.5176020865346839,2.110674132066494,-0.5001031868278966,0.8231874352502558,-2.810884941980198,0.3463065591683168,1.6298488007575376e-06,0.09220419,0.29293641,9.79368597,0.002847,-0.001215,0.004675,0.0691628107366973
1757944703.6329188,-0.318594992988549,0.5317501188456295,2.112462776812686,-0.500786574055005,0.8216259008882465,-2.810884941980198,0.3463065591683168,1.4356322399329617e-06,0.09430353000000001,0.29189655000000003,9.78919299,0.00363,-0.001592,0.004234,0.06856082527892254
1757944703.6532245,-0.32369307009558224,0.5393842626346627,2.11331001927811,-0.5010990464150568,0.8208701046365344,-2.810884941980198,0.3463065591683168,1.3479923130114578e-06,0.09729558,0.30027429,9.7926363,0.003937,-5.7e-05,0.004955,0.06855198912007902
1757944703.6740885,-0.32834527708959477,0.5462895969493652,2.1141291538012847,-0.5013865010199787,0.8201168674855639,-2.810884941980198,0.3463065591683168,1.2657467036462325e-06,0.09789399,0.30775932,9.78574968,0.003288,-8.1e-05,0.005949,0.0683679527499032
1757944703.700959,-0.3370692769796426,0.5598466291959386,2.1149299354248043,-0.501597776575513,0.8192677310201153,-2.810884941980198,0.3463065591683168,1.186694953156054e-06,0.10059174,0.29982303,9.7692885,0.002491,0.000487,0.003598,0.06951897533234296
1757944703.7215464,-0.3377993409948111,0.5603506895856534,2.1156961517908455,-0.5018376506821176,0.818518057711549,-2.810884941980198,0.3463065591683168,1.1144290346576067e-06,0.09415638000000001,0.29818476,9.78620094,0.003512,0.001855,0.003928,0.06779503656562649
1757944703.7420266,-0.34226877127616595,0.5669657329910995,2.1164374138559845,-0.5020590224753104,0.8177770198134002,-2.810884941980198,0.3463065591683168,1.0466202757144194e-06,0.09759969,0.29293641,9.78814332,0.004366,-0.001252,0.00396,0.06766361653110825
1757944703.7622902,-0.3471678804472362,0.5742829050383423,2.1171556131100786,-0.5022570962147372,0.8170338230640107,-2.810884941980198,0.3463065591683168,9.828138021189942e-07,0.10717425000000001,0.30716091,9.7695828,0.003544,-0.000339,0.002357,0.0676717120548404
1757944703.783069,-0.35219615780678876,0.581811190614209,2.1178518865998814,-0.5024306340588076,0.8162846123284176,-2.810884941980198,0.3463065591683168,9.22737595965464e-07,0.10148445,0.30132396,9.80176941,0.003877,0.00033,0.004836,0.06769409491800193
1757944703.8034043,-0.3564858014793826,0.5881419116168393,2.1185257181046353,-0.5025895811654522,0.815546210103445,-2.810884941980198,0.3463065591683168,8.664335877868491e-07,0.09924777,0.29938158000000004,9.78005988,0.002983,-0.000488,0.003284,0.06744970759971454
1757944703.8246,-0.3615756038862047,0.5957730907507971,2.119179465259646,-0.5027242642181617,0.8147994117794796,-2.810884941980198,0.3463065591683168,8.133925830418438e-07,0.10508471999999999,0.29862621,9.76584519,0.003318,-0.00085,0.004641,0.0675017743636994
1757944703.8457184,-0.36592318901768606,0.6022034459659471,2.119812575075544,-0.5028448608937547,0.8140614413778078,-2.810884941980198,0.3463065591683168,7.636604911587881e-07,0.09894366,0.3065625,9.78993855,0.004521,-0.000548,0.005019,0.06728309484768374
1757944703.8663862,-0.37070579943403126,0.6093406011210919,2.1204266136032786,-0.5029462614574466,0.8133217119344249,-2.810884941980198,0.3463065591683168,7.168945469981517e-07,0.09655002,0.29742939,9.791439480000001,0.003003,5.4e-05,0.003648,0.0672396224436888
1757944703.8869624,-0.3748888235856457,0.6155111122364689,2.121021318231241,-0.5030369048251799,0.8125941987567848,-2.810884941980198,0.3463065591683168,6.73075810114061e-07,0.09655002,0.29742939,9.791439480000001,0.003003,5.4e-05,0.003648,0.06699575017637283
1757944703.9123962,-0.38351738891918347,0.62828625408664,2.122158925383486,-0.5031595887094656,0.8111239034379567,-2.810884941980198,0.3463065591683168,5.930406327967051e-07,0.0928026,0.30357045,9.76898439,0.002921,-0.001362,0.00321,0.06657315390367423
1757944703.9339528,-0.3885476129195042,0.6358317996285929,2.1227016297323624,-0.5032064489644879,0.8104054213279022,-2.810884941980198,0.3463065591683168,5.567299017778172e-07,0.09805095000000001,0.28769787,9.78005988,0.001319,0.000127,0.004328,0.06671822329891008
1757944703.9544837,-0.3923312731187958,0.6413728342057324,2.123227192674711,-0.5032496934573356,0.8097072694121928,-2.810884941980198,0.3463065591683168,5.227622973121822e-07,0.10193571,0.28860039000000004,9.79038981,0.002969,-0.001596,0.004112,0.06640915743349657
1757944703.9749107,-0.3968908473763531,0.6481657515276632,2.1237374163170957,-0.5032790965843371,0.8090103590074368,-2.810884941980198,0.3463065591683168,4.90818101971538e-07,0.10088604,0.29503575000000004,9.767493270000001,0.004303,-0.001253,0.004963,0.06640855782425775
1757944703.995893,-0.4012215518157962,0.6545934162416102,2.124232524970658,-0.5032977401327836,0.8083192158181243,-2.810884941980198,0.3463065591683168,4.6081958055687544e-07,0.0981981,0.29637972,9.78335604,0.004707,-0.000548,0.004609,0.06631999346737945
1757944704.0169127,-0.405526877914637,0.6609832890087262,2.124713035899603,-0.5033060611981894,0.8076337346625391,-2.810884941980198,0.3463065591683168,4.3264861940043246e-07,0.11780829000000001,0.29353482000000003,9.791586630000001,0.003307,-0.001013,0.003254,0.06623163336237946
1757944704.0377698,-0.4097162380602289,0.6671902065807642,2.1251793276869932,-0.5033057358071765,0.8069560054112168,-2.810884941980198,0.3463065591683168,4.062082525006309e-07,0.09640287000000002,0.30926025,9.77467419,0.002471,0.000321,0.004906,0.06611489013366473
1757944704.0607882,-0.4181216824342965,0.6801531793613972,2.1256371936349066,-0.5032349747484127,0.8061784532975522,-2.810884941980198,0.3463065591683168,3.807747728675194e-07,0.09834525,0.29653668000000005,9.78215922,0.002137,-0.001227,0.003905,0.06737767909694184
1757944704.081637,-0.4184507582472574,0.6801817341815569,2.12607663395021,-0.5032128098879478,0.8055060729108721,-2.810884941980198,0.3463065591683168,3.575138944343586e-07,0.10104300000000001,0.29503575000000004,9.79727643,0.001836,-0.002159,0.002888,0.0657387955035198
1757944704.105076,-0.4283818500627023,0.6955795873101176,2.1265101297594935,-0.5030975733782254,0.804694362880739,-2.810884941980198,0.3463065591683168,3.349336971747471e-07,0.0953532,0.30027429,9.77871591,0.002417,-0.001704,0.004019,0.0675831167760913
1757944704.1252067,-0.42726493884980965,0.6933104557582053,2.1269245491955324,-0.5030554809433353,0.8040278367058834,-2.810884941980198,0.3463065591683168,3.144729925775153e-07,0.09789399,0.30072555,9.77347737,0.001908,0.000291,0.00377,0.06542755637025541
1757944704.1463006,-0.43127456537114517,0.6992445749163314,2.127326901433774,-0.503011027276055,0.8033762177870339,-2.810884941980198,0.3463065591683168,2.952681103234167e-07,0.08576883000000002,0.29353482000000003,9.77632227,0.002445,-0.001523,0.004464,0.06542960893126995
1757944704.1725276,-0.4387477296079101,0.7102520550065513,2.1280965177929705,-0.5029191691965197,0.8021218662530164,-2.810884941980198,0.3463065591683168,2.6036243003909783e-07,0.10253412,0.29548701,9.78245352,0.004138,-0.000825,0.006274,0.0652062543313351
1757944704.1948545,-0.44385369647878753,0.7179439295993966,2.128465774381361,-0.5028550634157114,0.8014894168135196,-2.810884941980198,0.3463065591683168,2.444030139842051e-07,0.09400923,0.29084688000000003,9.77392863,0.00287,0.000225,0.00496,0.06556910239247779
1757944704.2160292,-0.44847979277030076,0.7248721576792256,2.1288251236898716,-0.5027764891558897,0.8008488149865794,-2.810884941980198,0.3463065591683168,2.2936770366898715e-07,0.09385227000000002,0.29414304,9.7894971,0.004992,0.000542,0.004444,0.06568528311330223
1757944704.2369778,-0.450830792247132,0.7281811061868385,2.129172621921036,-0.5027155683363994,0.8002539486357911,-2.810884941980198,0.3463065591683168,2.1539586490104997e-07,0.09864936,0.29129814000000004,9.77766624,0.003498,6.5e-05,0.004465,0.06503157143866048
1757944704.257837,-0.45465514827649517,0.7338403259642512,2.129510225888283,-0.5026517894606952,0.7996694942266802,-2.810884941980198,0.3463065591683168,2.022764943126017e-07,0.10852803000000001,0.29713509,9.77467419,0.004019,-0.000545,0.004828,0.06499981371235901
1757944704.2778306,-0.4585865592454503,0.7396730856918113,2.129838374435331,-0.502582952237321,0.7990912241361927,-2.810884941980198,0.3463065591683168,1.8994765504120306e-07,0.10432935000000002,0.28814913000000003,9.77781339,0.003999,0.001279,0.003429,0.06500010634499853
1757944704.2984898,-0.4649636264747617,0.7493945202264625,2.130159588935685,-0.5024725743767594,0.7984574410136419,-2.810884941980198,0.3463065591683168,1.7819481949064764e-07,0.09849240000000001,0.28410741,9.803564640000001,0.003692,-0.000429,0.003911,0.06578800066211224
1757944704.319048,-0.4663995219692544,0.7512678695957888,2.1304695468147195,-0.5023919577509137,0.7978874128282515,-2.810884941980198,0.3463065591683168,1.6733424631242914e-07,0.10612458,0.29967588,9.780658290000002,0.003409,-0.000405,0.004687,0.06479058415294084
1757944704.3400679,-0.47013458448020057,0.7567980628620725,2.130770797238787,-0.5023087798798471,0.7973264341187165,-2.810884941980198,0.3463065591683168,1.5713566021686902e-07,0.10193571,0.29907747,9.807007950000001,0.003178,-0.000876,0.004509,0.06476820945890999
1757944704.3608372,-0.473861687967812,0.7623188982074803,2.1310636251337467,-0.5022225029646888,0.7967731509303204,-2.810884941980198,0.3463065591683168,1.4755762371958515e-07,0.09924777,0.29114118,9.79712928,0.004948,-0.001639,0.004797,0.06473985822526317
1757944704.381283,-0.4777373887971197,0.7680785380526266,2.131348430847739,-0.5021304407821338,0.7962226645067799,-2.810884941980198,0.3463065591683168,1.3855323688726544e-07,0.11525769000000001,0.28769787,9.787250610000001,0.004001,-0.000633,0.00487,0.06476003465184407
1757944704.401935,-0.48148651052836966,0.7736404731215772,2.1316253666057676,-0.5020338344438228,0.795676664063091,-2.810884941980198,0.3463065591683168,1.300946403070637e-07,0.08262963000000001,0.29458449000000003,9.7781175,0.003021,-0.001749,0.004227,0.06472988250625841
1757944704.4225485,-0.48593739977917344,0.7803169790731705,2.131895228430996,-0.501922075672293,0.7951171731961307,-2.810884941980198,0.3463065591683168,1.2211527702782316e-07,0.08397360000000001,0.29878317000000004,9.784248750000001,0.004082,-2e-05,0.004263,0.06493267216151064
1757944704.4428172,-0.48927568156251383,0.7852338361495388,2.132157358131119,-0.501810894678265,0.7945699726806352,-2.810884941980198,0.3463065591683168,1.1464134750379074e-07,0.11480643,0.30206952000000004,9.76988691,0.00236,-0.000811,0.003532,0.06472679224697392
1757944704.4636893,-0.49278850687444636,0.7904305440756293,2.1324121603156376,-0.5016979548618005,0.7940308296595666,-2.810884941980198,0.3463065591683168,1.0763002627238643e-07,0.09295956000000001,0.2980278,9.775723860000001,0.003239,0.000308,0.003672,0.06462512230339312
1757944704.4839532,-0.49658400236475414,0.7960776423459187,2.1326600833061526,-0.5015790289483639,0.7934924096172273,-2.810884941980198,0.3463065591683168,1.0103986260860357e-07,0.09040896000000001,0.29069973,9.78829047,0.002745,-0.000464,0.00402,0.06463752539857184
1757944704.5046868,-0.5011833704639598,0.802998470670356,2.132901896155528,-0.501441718074829,0.7929339685570314,-2.810884941980198,0.3463065591683168,9.481654689089259e-08,0.11137293000000001,0.29249496,9.787692060000001,0.003998,-0.001497,0.002845,0.06490869937035264
1757944704.524822,-0.5089809038247957,0.8149750953705248,2.133139895842323,-0.5012322842564813,0.7922671211552582,-2.810884941980198,0.3463065591683168,8.883582932412218e-08,0.09655002,0.29742939,9.77617512,0.003259,-0.001048,0.004649,0.06615609231579964
1757944704.5451107,-0.5086017061249846,0.8140310619494653,2.1333685637823336,-0.5010827871728798,0.7917083759230976,-2.810884941980198,0.3463065591683168,8.337293682091189e-08,0.10523187,0.30012714,9.7866522,0.003673,-0.000218,0.003899,0.06447862219910563
1757944704.5664725,-0.5106556027866855,0.8169381392438823,2.1335900174041527,-0.5009551364180396,0.7911949397608209,-2.810884941980198,0.3463065591683168,7.829099906440095e-08,0.09265545000000001,0.29054277,9.77737194,0.004467,-0.001634,0.004356,0.06398524736708752
1757944704.5924351,-0.5170633158261774,0.8263961255825868,2.1340152632294247,-0.5006968716192474,0.7901899643619694,-2.810884941980198,0.3463065591683168,6.9023152619604e-08,0.09939492000000001,0.2894931,9.77721498,0.003854,0.001216,0.003398,0.06386770571697517
1757944704.613013,-0.5209567276221088,0.8322179228767691,2.134219162693306,-0.5005712031253343,0.7897059305434604,-2.810884941980198,0.3463065591683168,6.481122356391376e-08,0.09684432000000001,0.29144529,9.771525180000001,0.003111,0.000565,0.004124,0.06409239168223328
1757944704.633536,-0.5240512571627879,0.8367823292996145,2.1344173824898878,-0.500448866516881,0.7892354893816007,-2.810884941980198,0.3463065591683168,6.086154464890248e-08,0.11047041,0.29324052,9.79173378,0.001901,-0.000432,0.003868,0.06399860612274821
1757944704.6598823,-0.5310893623834719,0.8475662475563402,2.1346123429837967,-0.5002685571683917,0.788678501016398,-2.810884941980198,0.3463065591683168,5.707009215470355e-08,0.10882233000000001,0.29533986,9.7781175,0.003433,-0.00022,0.002827,0.06521103170552625
1757944704.6802704,-0.5310893623834719,0.8475662475563402,2.1346123429837967,-0.5002685571683917,0.788678501016398,-2.810884941980198,0.3463065591683168,5.707009215470355e-08,0.10882233000000001,0.29533986,9.7781175,0.003433,-0.00022,0.002827,0.06521103170552625
1757944704.701341,-0.542191479002822,0.8647521063700734,2.134806190126847,-0.4999431465380045,0.7878940348255878,-2.810884941980198,0.3463065591683168,5.336151364669824e-08,0.08996751000000001,0.28546119000000003,9.79443153,0.002833,0.000132,0.00433,0.06744943887537594
1757944704.7216222,-0.5433904903724865,0.8663314374482901,2.1349932808365883,-0.4996590240127323,0.7871841047814199,-2.810884941980198,0.3463065591683168,4.9953650568606275e-08,0.10223982000000001,0.29757654,9.77617512,0.004253,0.000283,0.002176,0.06602107261471125
1757944704.7416737,-0.5464900093461232,0.8709091678720202,2.1351749633082875,-0.49938364149402614,0.7864959562094161,-2.810884941980198,0.3463065591683168,4.677862563675386e-08,0.10432935000000002,0.31045707000000006,9.76419711,0.003385,4.7e-05,0.003765,0.0655898450432667
1757944704.7621562,-0.5507828565575241,0.877368651334418,2.135352048555081,-0.49909792345771276,0.7857984770739478,-2.810884941980198,0.3463065591683168,4.379733825551496e-08,0.09894366,0.30012714,9.78679935,0.004436,-0.000111,0.005175,0.06566674574555675
1757944704.7826989,-0.5530047534225465,0.8805707370501625,2.135523625413425,-0.49883892823473114,0.7851512776252954,-2.810884941980198,0.3463065591683168,4.103114476260532e-08,0.10867518,0.28889469,9.791135370000001,0.004436,-0.000111,0.005175,0.06506335020701065
1757944704.80285,-0.555548745651519,0.8842836790430755,2.135690088633962,-0.4986015124466663,0.7845457660716958,-2.810884941980198,0.3463065591683168,3.8455406099588436e-08,0.09190989000000001,0.29997999,9.783208890000001,0.003132,0.000154,0.00426,0.0647116891914319
1757944704.8235738,-0.5593986218554875,0.890054202057532,2.1358522576214725,-0.49836409203047377,0.7839467986004178,-2.810884941980198,0.3463065591683168,3.603599302647775e-08,0.09714843000000001,0.3005784,9.775566900000001,0.00312,-0.000449,0.002824,0.06486989035375215
1757944704.8441389,-0.5615361934344176,0.8931344680729528,2.1360094609420157,-0.49815281871738587,0.7833963204539636,-2.810884941980198,0.3463065591683168,3.378602251308007e-08,0.10463346000000001,0.30686661000000004,9.78904584,0.001965,0.001068,0.004899,0.06442973309738577
1757944704.865331,-0.5654896937617152,0.8990732585992017,2.136162721059626,-0.4979384803728509,0.7828469824130606,-2.810884941980198,0.3463065591683168,3.1668489345158795e-08,0.11630736000000001,0.30042144,9.78620094,0.003265,-1.1e-05,0.004229,0.06468772867718964
1757944704.8853927,-0.5673084007556752,0.9016590809498701,2.136311201120135,-0.4977524608730719,0.7823491506820638,-2.810884941980198,0.3463065591683168,2.9700892699479256e-08,0.09849240000000001,0.31105548,9.7869465,0.003026,-0.000699,0.00495,0.06418430639469228
1757944704.9123373,-0.5728682883188074,0.9098622700723381,2.1365963015679412,-0.49739792333503113,0.7813985185630753,-2.810884941980198,0.3463065591683168,2.612394997693796e-08,0.10269108,0.29637972,9.77601816,0.002441,0.001288,0.003406,0.06396365458996725
1757944704.9328606,-0.5728682883188074,0.9098622700723381,2.1365963015679412,-0.49739792333503113,0.7813985185630753,-2.810884941980198,0.3463065591683168,2.612394997693796e-08,0.10269108,0.29637972,9.77601816,0.002441,0.001288,0.003406,0.06396365458996725
1757944704.9533098,-0.5728682883188074,0.9098622700723381,2.1365963015679412,-0.49739792333503113,0.7813985185630753,-2.810884941980198,0.3463065591683168,2.612394997693796e-08,0.10269108,0.29637972,9.77601816,0.002441,0.001288,0.003406,0.06396365458996725
1757944704.9735548,-0.595110212368746,0.9445310568245022,2.136740546967266,-0.49684906325849604,0.7803363894369454,-2.810884941980198,0.3463065591683168,2.4327257481366808e-08,0.09729558,0.29967588,9.78649524,0.005106,-0.000866,0.003402,0.07018834903091056
1757944704.9944859,-0.5892572125808642,0.9348170160506688,2.1370093029810615,-0.49617157516469096,0.7789001284625675,-2.810884941980198,0.3463065591683168,2.128025315829869e-08,0.10148445,0.28755072000000004,9.80505576,0.003696,0.001394,0.003995,0.0644873588310123
1757944705.0148485,-0.5892572125808642,0.9348170160506688,2.1370093029810615,-0.49617157516469096,0.7789001284625675,-2.810884941980198,0.3463065591683168,2.128025315829869e-08,0.10148445,0.28755072000000004,9.80505576,0.003696,0.001394,0.003995,0.0644873588310123
1757944705.0351558,-0.5892572125808642,0.9348170160506688,2.1370093029810615,-0.49617157516469096,0.7789001284625675,-2.810884941980198,0.3463065591683168,2.128025315829869e-08,0.10148445,0.28755072000000004,9.80505576,0.003696,0.001394,0.003995,0.0644873588310123
1757944705.0559297,-0.613886523038927,0.9732142914407675,2.137145002438321,-0.4954249474920843,0.7775397485770223,-2.810884941980198,0.3463065591683168,1.976634463541861e-08,0.11661147000000001,0.28680516,9.77452704,0.003755,0.000139,0.00396,0.07153607376739493
1757944705.076423,-0.6158144348312731,0.9759783296850849,2.1372760285895147,-0.4947464547277645,0.7762929413476657,-2.810884941980198,0.3463065591683168,1.838487711009249e-08,0.11316816,0.28740357,9.75836016,0.003034,0.00119,0.001933,0.0696729365866908
1757944705.0968175,-0.609577622775519,0.965691748359442,2.137519909573954,-0.4938991052461504,0.774626770875235,-2.810884941980198,0.3463065591683168,1.604745112371619e-08,0.10223982000000001,0.28201788,9.79069392,0.002242,-0.000277,0.003943,0.06448854398559341
1757944705.1228495,-0.6007756732521637,0.9511866987340005,2.1378464731170244,-0.49353642116999435,0.773612826103835,-2.810884941980198,0.3463065591683168,1.3317558486827642e-08,0.10073889000000001,0.29623257000000003,9.78215922,0.004152,-0.001024,0.004721,0.06017624945700722
1757944705.1435301,-0.5981873186480724,0.9469072232906689,2.1379462945789474,-0.4935928967604469,0.7735666464078571,-2.810884941980198,0.3463065591683168,1.256038604987949e-08,0.09624591,0.28874754,9.768533130000002,0.004217,0.000722,0.004206,0.05928150404203915
1757944705.1646242,-0.6012527476829288,0.9514922998588143,2.138043841317007,-0.49369099335656363,0.7735899024914901,-2.810884941980198,0.3463065591683168,1.1837522610606449e-08,0.10463346000000001,0.28814913000000003,9.77092677,0.002951,-0.001077,0.00366,0.06046018342163777
1757944705.1850111,-0.603844824129393,0.9553381237875429,2.138138997890067,-0.49381370239871053,0.7736553359669868,-2.810884941980198,0.3463065591683168,1.1150903740961215e-08,0.09789399,0.30161826,9.77737194,0.003973,0.000288,0.003252,0.06118206802858497
1757944705.205791,-0.605959279071064,0.9584383981005411,2.1382316734423927,-0.49395109616561,0.773747115732359,-2.810884941980198,0.3463065591683168,1.0501529818121449e-08,0.09774684000000002,0.29264211,9.78964425,0.002708,0.000501,0.00408,0.061556184802841765
1757944705.231706,-0.6104084680839305,0.9649919795366387,2.138410244794218,-0.4942185240422097,0.7739277170844236,-2.810884941980198,0.3463065591683168,9.303113001608779e-09,0.09684432000000001,0.30730806,9.78290478,0.002446,-0.000354,0.002614,0.06201479252496663
1757944705.2537868,-0.6138962334593465,0.9702503943448932,2.1384962779716803,-0.4943342692693137,0.7739939215298077,-2.810884941980198,0.3463065591683168,8.751129435586642e-09,0.09968922,0.30042144,9.763147440000001,0.004344,0.000674,0.002992,0.06263097239568743
1757944705.2749355,-0.6169495121856986,0.9748304736506126,2.138580300526711,-0.4944258932494617,0.7740247857925631,-2.810884941980198,0.3463065591683168,8.228003053970337e-09,0.0896634,0.29054277,9.803711790000001,0.002841,-0.001128,0.004427,0.06296308121418928
1757944705.2973247,-0.620502335844288,0.9801944188699079,2.1386624772743588,-0.494482871052193,0.7740036243059519,-2.810884941980198,0.3463065591683168,7.731323184044684e-09,0.09744273000000002,0.30431601,9.771230880000001,0.004468,-0.000859,0.003819,0.06339167602990334
1757944705.3175418,-0.6203195290473843,0.9797141482285906,2.138741895273137,-0.49455216596044316,0.7740052322431555,-2.810884941980198,0.3463065591683168,7.271051225169464e-09,0.10328949000000001,0.30775932,9.77333022,0.00355,0.00013,0.004076,0.06249304990882013
1757944705.3376858,-0.6234934142391274,0.9844899191221207,2.138819507651572,-0.49459554174363873,0.7739686879125796,-2.810884941980198,0.3463065591683168,6.834710265831312e-09,0.09879651,0.28485297000000004,9.79817895,0.001976,-1.7e-05,0.005418,0.06291489118013636
1757944705.358092,-0.6266222220885829,0.9891970191575639,2.1388953311302465,-0.49461028798943535,0.7738896503567196,-2.810884941980198,0.3463065591683168,6.421700285905157e-09,0.09805095000000001,0.28905165000000005,9.76240188,0.00278,-0.000934,0.002619,0.06322561145213233
1757944705.3814697,-0.632005033662893,0.9974318810974423,2.1389699207843424,-0.49455975938201396,0.7737099608970708,-2.810884941980198,0.3463065591683168,6.025923642241952e-09,0.1013373,0.29264211,9.763451550000001,0.00312,0.000443,0.002859,0.0642148385841468
1757944705.4017754,-0.6299435660884495,0.9940237728159841,2.139041557276766,-0.4945535085183129,0.7736034079498777,-2.810884941980198,0.3463065591683168,5.664315462595396e-09,0.10148445,0.29293641,9.77422293,0.004503,-7.7e-05,0.004079,0.0625306085316624
1757944705.4222002,-0.6334879975794858,0.9993873402413872,2.1391116569035695,-0.49451934694512395,0.7734554046925296,-2.810884941980198,0.3463065591683168,5.321091420386735e-09,0.10523187,0.29997999,9.76613949,0.002012,-0.000117,0.003875,0.06309511769523189
1757944705.442578,-0.6344711879955584,1.0007473872659378,2.1391796796104234,-0.4944911198252651,0.7733195087443278,-2.810884941980198,0.3463065591683168,5.0008016810200704e-09,0.08352234000000001,0.29952873,9.76164651,0.003994,-0.000452,0.001458,0.06267690292097786
1757944705.4640036,-0.636855732596201,1.0043013499397915,2.1392460023296067,-0.49445146196203826,0.7731681009529152,-2.810884941980198,0.3463065591683168,4.69902555815168e-09,0.10597743000000001,0.28919880000000003,9.77362452,0.002381,-0.000429,0.004352,0.06281663660944672
1757944705.4850028,-0.6391985512403886,1.0077921651188455,2.1393106583667567,-0.4944003270734769,0.7730010218851517,-2.810884941980198,0.3463065591683168,4.414861719839449e-09,0.1013373,0.2860596,9.78679935,0.002708,-0.000762,0.003886,0.06290809956432274
1757944705.511457,-0.643357012073288,1.0139557027441037,2.1394353968970243,-0.494238842165735,0.7725803622081159,-2.810884941980198,0.3463065591683168,3.893747494041309e-09,0.09415638000000001,0.30386475,9.75895857,0.002823,0.000306,0.004315,0.06272258448187255
1757944705.5319786,-0.643357012073288,1.0139557027441037,2.1394353968970243,-0.494238842165735,0.7725803622081159,-2.810884941980198,0.3463065591683168,3.893747494041309e-09,0.09415638000000001,0.30386475,9.75895857,0.002823,0.000306,0.004315,0.06272258448187255
1757944705.5544434,-0.6490665604142947,1.022551031626733,2.1395547921184184,-0.493945874323681,0.7719611311116451,-2.810884941980198,0.3463065591683168,3.4269235948136755e-09,0.10896948000000001,0.29039562,9.7610481,0.003768,-0.000631,0.004551,0.06282848830536786
1757944705.5746045,-0.6510326807900495,1.0254630887789322,2.139611672069657,-0.4938362788768746,0.7717131609167586,-2.810884941980198,0.3463065591683168,3.2184372605326593e-09,0.09894366,0.29398608000000004,9.77347737,0.003499,0.001665,0.00388,0.06284128160059786
1757944705.5947673,-0.6524129350555254,1.02746186433334,2.1396669608114145,-0.4937362138189361,0.7714823746340378,-2.810884941980198,0.3463065591683168,3.0233781705237586e-09,0.10523187,0.29967588,9.756260820000001,0.003355,0.000203,0.003793,0.06264963660932824
1757944705.6158438,-0.654131106848037,1.0299908506853501,2.1397207717052247,-0.4936410708421854,0.7712613971187002,-2.810884941980198,0.3463065591683168,2.8403820935601085e-09,0.10088604,0.30790647,9.771230880000001,0.001684,0.001864,0.004857,0.06260798566304658
1757944705.6363647,-0.6565626953478513,1.0336363942585485,2.1397732711884547,-0.4935397549167184,0.7710326281849993,-2.810884941980198,0.3463065591683168,2.6679114300098634e-09,0.09640287000000002,0.28934595,9.76988691,0.002535,-0.000607,0.003859,0.062808531828127
1757944705.6566849,-0.6598539416504858,1.038626494944268,2.1398246316572838,-0.49341704817913035,0.7707719956547399,-2.810884941980198,0.3463065591683168,2.504593062676476e-09,0.10073889000000001,0.29010132000000005,9.75446559,0.002589,-0.000198,0.00281,0.06324855273672267
1757944705.6769037,-0.66051811355252,1.0395149140310327,2.1398744405606145,-0.49331159308343264,0.7705404095254434,-2.810884941980198,0.3463065591683168,2.3525421698443153e-09,0.10568313,0.29129814000000004,9.77886306,0.002702,0.001028,0.004255,0.06272020953838703
1757944705.697006,-0.66051811355252,1.0395149140310327,2.1398744405606145,-0.49331159308343264,0.7705404095254434,-2.810884941980198,0.3463065591683168,2.3525421698443153e-09,0.10568313,0.29129814000000004,9.77886306,0.002702,0.001028,0.004255,0.06272020953838703
1757944705.7255714,-0.6694849380552025,1.053245444111567,2.139944456720513,-0.4928845188178268,0.7697753148202423,-2.810884941980198,0.3463065591683168,2.066708096957923e-09,0.09640287000000002,0.31749084,9.77063247,0.003938,0.002078,0.004142,0.06407184881319228
1757944705.7460163,-0.6703625741647774,1.0544530808498773,2.1400185205585522,-0.49272029037016296,0.7694229958170248,-2.810884941980198,0.3463065591683168,1.9388549798877475e-09,0.0981981,0.29010132000000005,9.775871010000001,0.002355,-0.000255,0.004258,0.06341466396602544
1757944705.7665672,-0.6712241685328681,1.0556571954030147,2.140063693143208,-0.49256166586008887,0.7691146358739887,-2.810884941980198,0.3463065591683168,1.819804017495793e-09,0.09460764,0.28695231,9.796079610000001,0.004403,0.000611,0.003278,0.06298132874375291
1757944705.792463,-0.672510001161717,1.057388756811116,2.140150551264502,-0.4922479602983732,0.7685084028763581,-2.810884941980198,0.3463065591683168,1.6033293819369627e-09,0.09355797,0.30027429,9.78829047,0.002427,-0.001649,0.002677,0.061952256908417574
1757944705.813296,-0.6738199547730953,1.0592993203191117,2.140191860745894,-0.4921521366181963,0.7683037044085741,-2.810884941980198,0.3463065591683168,1.5067886074296632e-09,0.08846658,0.29084688000000003,9.771378030000001,0.002417,0.00136,0.004557,0.0619942698901195
1757944705.8336818,-0.6760268696509488,1.0626118730086687,2.140232166855326,-0.4920599207912794,0.7681061371536642,-2.810884941980198,0.3463065591683168,1.4157309236554886e-09,0.09609875999999999,0.29938158000000004,9.763893,0.002237,0.00013,0.003256,0.062311221406230605
1757944705.8552654,-0.6797663406156208,1.068318019094543,2.140271691094762,-0.49194364019630094,0.767872083310254,-2.810884941980198,0.3463065591683168,1.329094143899347e-09,0.09415638000000001,0.29922462000000005,9.787996170000001,0.000946,0.000324,0.004543,0.06306014467986064
1757944705.8757977,-0.6803202292690521,1.06905357610358,2.14031002607331,-0.4918462440425725,0.7676690693332238,-2.810884941980198,0.3463065591683168,1.2483869918320654e-09,0.10223982000000001,0.28785483,9.799522920000001,0.003325,-0.00125,0.003107,0.06257853188097626
1757944705.9018316,-0.6866592477723648,1.0788193592304622,2.140347940357338,-0.49167584972674677,0.767352616819284,-2.810884941980198,0.3463065591683168,1.1704583872443478e-09,0.09939492000000001,0.30446316,9.76628664,0.003325,-0.00125,0.003107,0.06413540074006882
1757944705.9225063,-0.6834294611513887,1.073653452685537,2.1403842328262908,-0.4915806607082754,0.7671556706341001,-2.810884941980198,0.3463065591683168,1.0996953998949717e-09,0.09834525,0.29922462000000005,9.7897914,0.003563,0.001384,0.005027,0.06216401326962571
1757944705.9436011,-0.6852664114762657,1.076396759614827,2.140419606385917,-0.4914901053536185,0.766967341639119,-2.810884941980198,0.3463065591683168,1.033111548034105e-09,0.09564750000000001,0.29429019,9.75745764,0.00126,0.000669,0.003217,0.062338457519973495
1757944705.963898,-0.6874305621850106,1.079652187183321,2.140454121554627,-0.49139662130474404,0.7667756639066914,-2.810884941980198,0.3463065591683168,9.703463948034843e-10,0.09609875999999999,0.30161826,9.75356307,0.003978,0.00113,0.004095,0.06257520634910332
1757944705.985177,-0.6919931146106612,1.0866510847012745,2.1404880683204706,-0.4912586699309771,0.7665153316521183,-2.810884941980198,0.3463065591683168,9.103547832946114e-10,0.09684432000000001,0.29233800000000004,9.7784118,0.002856,-0.000978,0.004886,0.06355667117271385
1757944706.011218,-0.6923376784707259,1.0869538515021653,2.1405526739850895,-0.4910716797144634,0.7661378325731497,-2.810884941980198,0.3463065591683168,8.032193093272496e-10,0.10717425000000001,0.30221667,9.763147440000001,0.003101,0.002094,0.004327,0.06242725424153791
1757944706.0313356,-0.6941563333987112,1.0896763582109756,2.140583739469383,-0.4909808208845452,0.7659549443913983,-2.810884941980198,0.3463065591683168,7.544189120682476e-10,0.09939492000000001,0.29309337,9.75685923,0.004903,0.001666,0.004154,0.06253883074055303
1757944706.0531034,-0.6966489588931115,1.0934516439340682,2.1406140890906347,-0.4908777004021178,0.7657538955059328,-2.810884941980198,0.3463065591683168,7.083310215185479e-10,0.10193571,0.29474145,9.79248915,0.003108,0.001043,0.003693,0.06285017929101332
1757944706.0739748,-0.6978012792349818,1.0951376055317763,2.1406436001377696,-0.490780910054846,0.7655638386969835,-2.810884941980198,0.3463065591683168,6.651895971329666e-10,0.10612458,0.30117681,9.780962400000002,0.004701,0.000538,0.002784,0.06264657807486247
1757944706.0942655,-0.6978012792349818,1.0951376055317763,2.1406436001377696,-0.490780910054846,0.7655638386969835,-2.810884941980198,0.3463065591683168,6.651895971329666e-10,0.10612458,0.30117681,9.780962400000002,0.004701,0.000538,0.002784,0.06264657807486247
1757944706.116118,-0.7032127436189428,1.103359055805586,2.140701203438997,-0.49041563666055965,0.7649174126298566,-2.810884941980198,0.3463065591683168,5.846497871754491e-10,0.09145863,0.28650105,9.812246490000001,0.002996,0.001256,0.002443,0.06286090724244892
1757944706.136442,-0.702298460071098,1.1018261603603423,2.1407283961344854,-0.4903151171292792,0.7647245682571062,-2.810884941980198,0.3463065591683168,5.492650404231228e-10,0.10747836000000001,0.30386475,9.78230637,0.004511,0.000864,0.003477,0.06201295417285881
1757944706.1568892,-0.7037460151124886,1.1039785537145148,2.1407548782067707,-0.4902247859551164,0.764548729272034,-2.810884941980198,0.3463065591683168,5.160169412355003e-10,0.09550035000000001,0.29383893,9.78005988,0.002858,0.001078,0.004811,0.06213996252502988
1757944706.1814795,-0.7106178496200709,1.1145911402154018,2.140781152737576,-0.4900527121247037,0.7642456713447685,-2.810884941980198,0.3463065591683168,4.837452683262684e-10,0.10956789,0.30132396,9.7986204,0.00281,0.000672,0.002902,0.0640413114417889
1757944706.2016253,-0.7081113043435042,1.1105796266207766,2.140806366496709,-0.48994391258157716,0.7640426728440831,-2.810884941980198,0.3463065591683168,4.5428009811436584e-10,0.08576883000000002,0.29847906,9.767189160000001,0.003816,-0.000247,0.004175,0.06238810388175931
1757944706.2217968,-0.7088446814440751,1.1116223694720166,2.14083085733826,-0.4898527202736457,0.7638681999572492,-2.810884941980198,0.3463065591683168,4.267334310472838e-10,0.11496339000000001,0.30177522,9.768690090000002,0.00212,0.000215,0.003276,0.0622021912061127
1757944706.2418997,-0.7104561813915348,1.114035826116924,2.14085472282545,-0.4897657285877643,0.7637011858828006,-2.810884941980198,0.3463065591683168,4.0082222972179587e-10,0.09684432000000001,0.29324052,9.771525180000001,0.003228,-0.000201,0.003417,0.06234604008316419
1757944706.2633376,-0.7139876323742029,1.1194441180950514,2.1408781341519756,-0.489650280186175,0.7634904050509195,-2.810884941980198,0.3463065591683168,3.761693684441043e-10,0.1041822,0.30730806,9.77661657,0.004545,-0.000613,0.00162,0.06309744442881407
1757944706.2843273,-0.713759231082731,1.1189912651144192,2.1409007912580753,-0.48956056183745345,0.763320728244284,-2.810884941980198,0.3463065591683168,3.532847379552259e-10,0.10612458,0.29833191000000003,9.79817895,0.005907,0.000235,0.00573,0.06242310244109886
1757944706.3045492,-0.7174630665428638,1.1246706133736577,2.1409230315336583,-0.4894378268394528,0.763100129294382,-2.810884941980198,0.3463065591683168,3.314920973183691e-10,0.09924777,0.29474145,9.79413723,0.002612,0.00033,0.00443,0.0632252502715549
1757944706.3307786,-0.7178566234762704,1.1250975810767436,2.1409654028698792,-0.48926964156451314,0.7627822812606281,-2.810884941980198,0.3463065591683168,2.9244160962985483e-10,0.09774684000000002,0.29757654,9.763451550000001,0.0035,-0.000737,0.003323,0.06233917695387685
1757944706.3515813,-0.7192553234846104,1.1271869053475905,2.1409857587185233,-0.4891911483055994,0.7626332507305911,-2.810884941980198,0.3463065591683168,2.746703916906077e-10,0.10088604,0.30311919,9.76539393,0.005168,0.001356,0.003736,0.062392615279035314
1757944706.3718987,-0.7208932726342908,1.1296504051696,2.1410055992696684,-0.4891106001295459,0.7624817107872808,-2.810884941980198,0.3463065591683168,2.579475333496752e-10,0.11346246,0.28740357,9.7692885,0.004324,-0.000255,0.003474,0.0625132601504062
1757944706.3929222,-0.7223273968984811,1.131797347563346,2.1410249227567677,-0.48902962375279274,0.7623301869815123,-2.810884941980198,0.3463065591683168,2.4223426710330195e-10,0.09894366,0.29608542000000004,9.77482134,0.00375,0.001752,0.004033,0.06253947997718187
1757944706.413738,-0.7241359726482665,1.134529140549003,2.141043767973219,-0.4889417075550928,0.7621684717800612,-2.810884941980198,0.3463065591683168,2.2743631742337513e-10,0.10269108,0.29623257000000003,9.77721498,0.002567,0.000671,0.002655,0.06268872576914881
1757944706.4344118,-0.7254193834453929,1.136443460554264,2.1410621110315597,-0.4888539577936606,0.7620076741953893,-2.810884941980198,0.3463065591683168,2.1354977679942206e-10,0.09595161,0.30101985000000003,9.743390100000001,0.004898,0.001692,0.003968,0.06263264980217131
1757944706.4547315,-0.7280015399519217,1.1403832260587443,2.1410800493222126,-0.4887456650508962,0.761815375397412,-2.810884941980198,0.3463065591683168,2.0041389411114776e-10,0.10597743000000001,0.29144529,9.77437008,0.004422,-0.001103,0.00319,0.06303092826130507
1757944706.475516,-0.7282461572731362,1.1406806460393453,2.141097441313062,-0.4886526275821396,0.7616475765578415,-2.810884941980198,0.3463065591683168,1.8817536882231855e-10,0.09684432000000001,0.29069973,9.77960862,0.002706,0.001122,0.004359,0.06256252706267657
1757944706.5009897,-0.7342358379324656,1.1499333315552729,2.141114659065881,-0.4884793281866044,0.761354838118282,-2.810884941980198,0.3463065591683168,1.7635996372656258e-10,0.09475478999999999,0.29024847,9.76149936,0.002146,-0.001038,0.005682,0.06413007988515261
1757944706.5220456,-0.7308010290515691,1.1444982451157912,2.1411311216286553,-0.4883806466789163,0.7611794091484508,-2.810884941980198,0.3463065591683168,1.6562407134081645e-10,0.09071307,0.30670965,9.7493742,0.004328,0.001541,0.004254,0.062199402710785404
1757944706.5419025,-0.7321912062645041,1.1465845732384063,2.1411471564129574,-0.48828689783216195,0.761012343256611,-2.810884941980198,0.3463065591683168,1.555318824797372e-10,0.11092167,0.28785483,9.77377167,0.005399,-0.000338,0.004968,0.062337813103064986
1757944706.5622413,-0.7337535535783016,1.1489402811897198,2.1411627832842477,-0.48819335225895755,0.7608461860785383,-2.810884941980198,0.3463065591683168,1.4603571474747358e-10,0.09984618,0.2977335,9.79368597,0.002783,0.000421,0.00417,0.06249680130718861
1757944706.5826628,-0.7372161142486653,1.1542582712627758,2.141178117007195,-0.48806665303658503,0.7606287348314562,-2.810884941980198,0.3463065591683168,1.3700001409633205e-10,0.09744273000000002,0.29683098,9.77347737,0.002306,-0.000991,0.004333,0.06325772491022955
1757944706.6032257,-0.7361338879593623,1.1524946401707143,2.1411929088372395,-0.48797648403345933,0.7604689282998582,-2.810884941980198,0.3463065591683168,1.2865155896153705e-10,0.10343664,0.28441152000000003,9.7692885,0.003121,-0.000576,0.004401,0.06232561714769
1757944706.6233525,-0.7375219954370202,1.1545819249907565,2.1412073156743023,-0.48788866233134826,0.7603133367818075,-2.810884941980198,0.3463065591683168,1.2080237804323534e-10,0.09729558,0.29757654,9.752817510000002,0.003675,-0.000811,0.003162,0.062440388771172146
1757944706.64334,-0.7389339570657429,1.1567073827362075,2.1412213479612516,-0.48780108685039286,0.7601586422126969,-2.810884941980198,0.3463065591683168,1.1342245501245327e-10,0.09011466,0.30416886,9.76464837,0.003481,-0.000697,0.006077,0.06253538770919775
1757944706.6638527,-0.7453043046531344,1.1665601447752525,2.1412352653672855,-0.48762494661865746,0.7598659843969562,-2.810884941980198,0.3463065591683168,1.0627680068839456e-10,0.10238697000000001,0.29503575000000004,9.76628664,0.002574,-0.000314,0.005096,0.06427051141250019
1757944706.6839592,-0.7415396892934378,1.1606208973516687,2.1412485498146516,-0.4875281289232509,0.7596977659854152,-2.810884941980198,0.3463065591683168,9.979543070901072e-11,0.09415638000000001,0.28934595,9.77048532,0.00241,-0.000825,0.005396,0.06222987318775582
1757944706.7109218,-0.7434129625099454,1.1633972685218954,2.1412740919474125,-0.487341396048198,0.7593736429088805,-2.810884941980198,0.3463065591683168,8.796996581609979e-11,0.11077452,0.2832147,9.77797035,0.003751,0.001606,0.004433,0.06214960428580797
1757944706.732189,-0.7451985165311505,1.1661096846964256,2.1412863414747303,-0.48725930351683544,0.7592299016282444,-2.810884941980198,0.3463065591683168,8.259782101058394e-11,0.1013373,0.29383893,9.79473564,0.002843,-0.001191,0.003802,0.062465088266062216
1757944706.7527058,-0.7461325853010475,1.1674962901718657,2.141298250814202,-0.4871837241969021,0.7590967660607534,-2.810884941980198,0.3463065591683168,7.75594773444916e-11,0.09805095000000001,0.29563416000000003,9.76704201,0.00321,0.000552,0.002205,0.06241895662844922
1757944706.7761467,-0.7494723372390685,1.1726320023817138,2.1413099351108364,-0.4870750285147087,0.7589123006361617,-2.810884941980198,0.3463065591683168,7.276387897352035e-11,0.1013373,0.29833191000000003,9.77287896,0.003082,-0.000369,0.004283,0.063195010546168
1757944706.7967997,-0.7483609881036133,1.1708334957640179,2.141321202241471,-0.48700045769391265,0.7587815426503512,-2.810884941980198,0.3463065591683168,6.83296393495578e-11,0.09580446000000001,0.29683098,9.779010210000001,0.003671,-0.002187,0.00601,0.06230317689026725
1757944706.8168967,-0.7500620857950953,1.1734179021210915,2.1413321893831423,-0.4869206764711173,0.7586430626497218,-2.810884941980198,0.3463065591683168,6.41490919161678e-11,0.10523187,0.30206952000000004,9.759252870000001,0.003694,-0.00012,0.004068,0.06256712802568773
1757944706.8380594,-0.7506855243154016,1.174324185293436,2.1413428577248066,-0.4868499580422009,0.7585191303559804,-2.810884941980198,0.3463065591683168,6.023565619130024e-11,0.09370512,0.30491442,9.7664436,0.005305,-0.001185,0.004717,0.06240719512075029
1757944706.85837,-0.7529823988059219,1.1778384948618064,2.1413532839641736,-0.48676218178709035,0.7583689357458228,-2.810884941980198,0.3463065591683168,5.653295348031969e-11,0.10119015,0.29144529,9.77407578,0.003654,-0.000609,0.003292,0.0628499536849038
1757944706.8786657,-0.7526708610360184,1.1772898816058182,2.1413633692433116,-0.4866956731458369,0.7582523221739285,-2.810884941980198,0.3463065591683168,5.308852204847344e-11,0.09400923,0.29369178,9.76883724,0.001773,0.000674,0.004728,0.06231622449838711
1757944706.8991327,-0.7550295321471393,1.180902132240377,2.1413732286653815,-0.48661132425596615,0.758108216997947,-2.810884941980198,0.3463065591683168,4.982717054202838e-11,0.09131148000000001,0.28500993,9.787250610000001,0.004297,-0.00116,0.005549,0.0628080628811002
1757944706.9192939,-0.7546685772059168,1.1802783075580106,2.1413827633469857,-0.486548585327,0.7579982067236078,-2.810884941980198,0.3463065591683168,4.679350592502433e-11,0.09879651,0.28695231,9.78500412,0.00318,-0.000583,0.004099,0.062272909265089216
1757944706.9394443,-0.7563853131069999,1.1828921489189348,2.141392061569965,-0.48647804564552266,0.7578763693865037,-2.810884941980198,0.3463065591683168,4.3931480780674055e-11,0.0953532,0.29788065,9.75386718,0.00318,-0.000583,0.004099,0.06256290672609718
1757944706.960122,-0.7572612393109186,1.1841969204663638,2.141401097702751,-0.4864102621452069,0.7577591678659497,-2.810884941980198,0.3463065591683168,4.1246959804044024e-11,0.10269108,0.29383893,9.771829290000001,0.003433,-0.000995,0.005078,0.06250422429320275
1757944706.9807808,-0.7596193998557286,1.1878115138357108,2.1414099303326646,-0.48632125790746894,0.7576091579728896,-2.810884941980198,0.3463065591683168,3.87057044472219e-11,0.10044459,0.29144529,9.783503190000001,0.003222,-0.001444,0.003779,0.06296284612673413
1757944707.0008237,-0.7606593833114972,1.189373362864062,2.1414185169539603,-0.486229706519725,0.7574554830438158,-2.810884941980198,0.3463065591683168,3.632213584194978e-11,0.09714843000000001,0.30326634,9.78156081,0.002833,-0.000221,0.004997,0.06288104845502065
1757944707.0219774,-0.7601155444708014,1.1884688081668369,2.1414268124553235,-0.48616217400734674,0.7573396220014815,-2.810884941980198,0.3463065591683168,3.4107466401157145e-11,0.09789399,0.283509,9.77077962,0.003759,-0.000891,0.00462,0.062290588989516796
1757944707.0429742,-0.7611213300481884,1.1899790533703172,2.141434878618627,-0.48609767796190684,0.757228823784741,-2.810884941980198,0.3463065591683168,3.2026837401277905e-11,0.10313253,0.2948886,9.78110955,0.002818,-0.002266,0.003458,0.062358697621111944
1757944707.0641627,-0.7661731928632535,1.1977926289066094,2.14144284794758,-0.48596564975798356,0.7570129013544279,-2.810884941980198,0.3463065591683168,3.002407342121352e-11,0.10269108,0.30476727000000003,9.75102228,0.002881,-0.002801,0.004596,0.06377328292586731
1757944707.0845222,-0.7633326478657876,1.1933127386310955,2.1414504714018214,-0.48589226463027246,0.7568887817174681,-2.810884941980198,0.3463065591683168,2.8192774812840862e-11,0.0896634,0.29039562,9.77797035,0.003336,-0.000815,0.004397,0.062218859476423125
1757944707.1110227,-0.7648972918393271,1.195642147931522,2.141465132283214,-0.4857282407840973,0.7566145147804663,-2.810884941980198,0.3463065591683168,2.4841869644607406e-11,0.09669717,0.30042144,9.76809168,0.003312,-0.000149,0.005211,0.06210638301402416
1757944707.1314495,-0.7660795747383166,1.1974310026438906,2.1414721273443984,-0.48566726103779667,0.7565106318159502,-2.810884941980198,0.3463065591683168,2.332715118311626e-11,0.10044459,0.29069973,9.76688505,0.002227,-0.00251,0.002347,0.06229890797554564
1757944707.1521935,-0.7668417103853784,1.1985661233820957,2.14147892033757,-0.48561220768205926,0.7564162574899929,-2.810884941980198,0.3463065591683168,2.1905600438496878e-11,0.0865242,0.2977335,9.76972995,0.002829,-0.001426,0.004144,0.062300723097408854
1757944707.17258,-0.7668417103853784,1.1985661233820957,2.14147892033757,-0.48561220768205926,0.7564162574899929,-2.810884941980198,0.3463065591683168,2.1905600438496878e-11,0.0865242,0.2977335,9.76972995,0.002829,-0.001426,0.004144,0.062300723097408854
1757944707.1936572,-0.768309298725485,1.2007499635600252,2.141492046544897,-0.48542132733381727,0.7561021413200064,-2.810884941980198,0.3463065591683168,1.9285092691802026e-11,0.09864936,0.28755072000000004,9.755515260000001,0.003256,-0.001292,0.003017,0.0619145574520039
1757944707.214402,-0.7690939312552029,1.2019222268680585,2.141498259219894,-0.48537448349066237,0.7560213020241143,-2.810884941980198,0.3463065591683168,1.8114321073783017e-11,0.08592579,0.2948886,9.764942670000002,0.003463,0.000109,0.003576,0.06203180336080834
1757944707.23456,-0.7705504185757087,1.204141614552493,2.1415043096027233,-0.4853240456593149,0.7559351002250322,-2.810884941980198,0.3463065591683168,1.7009818013192503e-11,0.08562168,0.29084688000000003,9.77991273,0.002472,-0.000118,0.004841,0.06234160275580096
1757944707.2571352,-0.7742225685923632,1.2098125778757056,2.1415102549612888,-0.485228920112174,0.7557793903195149,-2.810884941980198,0.3463065591683168,1.595451585258343e-11,0.10852803000000001,0.30101985000000003,9.73904427,0.002263,0.00084,0.003911,0.0633276611612297
1757944707.2775216,-0.7721918723994521,1.2066017195893188,2.141515955694114,-0.4851767275855417,0.7556908616345647,-2.810884941980198,0.3463065591683168,1.498307148583253e-11,0.09355797,0.29458449000000003,9.75102228,0.00384,-0.001087,0.004433,0.062171389514061814
1757944707.3014183,-0.7779518743355726,1.215525725414392,2.1415216073459487,-0.48504415013003926,0.7554771523937132,-2.810884941980198,0.3463065591683168,1.4042902337062636e-11,0.09385227000000002,0.29982303,9.752219100000001,0.00384,-0.001087,0.004433,0.06391587730621724
1757944707.3215551,-0.7736453354297326,1.2087715116147544,2.141526971231052,-0.4849912602760303,0.7553879426836724,-2.810884941980198,0.3463065591683168,1.3190624065382181e-11,0.0981981,0.29458449000000003,9.74877579,0.00447,-0.001654,0.003498,0.06187229058125298
1757944707.34277,-0.7745174693161917,1.2100839288568705,2.1415321812387003,-0.484946028425438,0.7553109296865456,-2.810884941980198,0.3463065591683168,1.2389124007923424e-11,0.0896634,0.27767205,9.783650340000001,0.002729,0.000218,0.003646,0.06205146905687971
1757944707.3627505,-0.7754818107501965,1.211540570991165,2.1415372425784174,-0.4849039482524823,0.7552390452299629,-2.810884941980198,0.3463065591683168,1.163507199920879e-11,0.11106882000000001,0.28695231,9.76300029,0.004002,-0.001878,0.002678,0.06221152032650219
1757944707.3829026,-0.7812854255188252,1.2205347275714922,2.1415422615982536,-0.48477877347034304,0.7550377257577536,-2.810884941980198,0.3463065591683168,1.090486983474181e-11,0.09550035000000001,0.30221667,9.75910572,0.004589,-0.000462,0.003773,0.06396459572828694
1757944707.409566,-0.7771330089355716,1.2139797942417272,2.1415516294814356,-0.48469972908499637,0.7549028156992176,-2.810884941980198,0.3463065591683168,9.622476965207478e-12,0.10313253,0.27153099,9.783954450000001,0.004146,-0.001856,0.00378,0.0618421447475624
1757944707.4302924,-0.7783561227398371,1.2158418492360057,2.1415561087533597,-0.4846688552871636,0.7548491555240977,-2.810884941980198,0.3463065591683168,9.037810928148662e-12,0.08562168,0.29084688000000003,9.71854137,0.004783,0.0047,0.004372,0.06214440333474924
1757944707.450499,-0.7783561227398371,1.2158418492360057,2.1415561087533597,-0.4846688552871636,0.7548491555240977,-2.810884941980198,0.3463065591683168,9.037810928148662e-12,0.08562168,0.29084688000000003,9.71854137,0.004783,0.0047,0.004372,0.06214440333474924
1757944707.4710572,-0.7797357189998871,1.2179063046491188,2.141564729582422,-0.4845503517746049,0.7546537812412554,-2.810884941980198,0.3463065591683168,7.962351003424986e-12,0.10478061,0.26480133,9.835594290000001,-0.00128,0.000708,0.002486,0.0619646355226941
1757944707.491803,-0.7797357189998871,1.2179063046491188,2.141564729582422,-0.4845503517746049,0.7546537812412554,-2.810884941980198,0.3463065591683168,7.962351003424986e-12,0.10478061,0.26480133,9.835594290000001,-0.00128,0.000708,0.002486,0.0619646355226941
1757944707.5127745,-0.7824911685635068,1.222115660355899,2.1415728785820267,-0.4843840328131037,0.754384479600547,-2.810884941980198,0.3463065591683168,7.008534695459205e-12,0.09564750000000001,0.27977139,9.79069392,0.004221,0.000112,0.003919,0.06224421571289207
1757944707.5331492,-0.7819502983412934,1.2212332292654533,2.141576711812534,-0.48435223027590096,0.7543301704893783,-2.810884941980198,0.3463065591683168,6.5837580403375695e-12,0.10583028000000001,0.26944146,9.80550702,0.001931,-0.000331,0.003115,0.06188453917179507
1757944707.5537598,-0.7825480266119865,1.2221246066720879,2.1415804262450022,-0.4843284584879163,0.7542885574970791,-2.810884941980198,0.3463065591683168,6.1846385913928155e-12,0.07020036,0.29414304,9.75716334,0.004173,-0.000325,0.003085,0.06198369185288717
1757944707.5750556,-0.7858251469371836,1.22718925790303,2.1415840693138293,-0.484267727187402,0.7541894610648403,-2.810884941980198,0.3463065591683168,5.803451448823542e-12,0.11256975000000001,0.27886887000000005,9.78515127,0.003902,0.000863,0.004182,0.06296301789473348
1757944707.5953133,-0.7856754396879135,1.2269175642315588,2.14158758384362,-0.48421751298544696,0.7541068877613594,-2.810884941980198,0.3463065591683168,5.447841686114122e-12,0.09640287000000002,0.29623257000000003,9.78964425,0.003253,-0.001288,0.004266,0.06256436445459759
1757944707.6158998,-0.7867639875551965,1.2285747966728788,2.141590994385723,-0.48416078458941003,0.7540142982356526,-2.810884941980198,0.3463065591683168,5.113254577636847e-12,0.10717425000000001,0.32122845000000005,9.752219100000001,0.00125,0.000507,0.005323,0.06268389533526725
1757944707.6373532,-0.7891349301420554,1.2322296106766042,2.141594323249196,-0.4840747066406387,0.7538760821894477,-2.810884941980198,0.3463065591683168,4.7961025547771825e-12,0.11137293000000001,0.32557428000000005,9.759252870000001,0.00232,0.002877,0.005132,0.06321609018510968
1757944707.6573951,-0.7882251841280169,1.230775776704388,2.141597521223141,-0.48401212244292413,0.7537746240057773,-2.810884941980198,0.3463065591683168,4.5018256923459956e-12,0.07663572,0.30266793,9.767787570000001,0.003302,9.9e-05,0.001284,0.06252669994307877
1757944707.6781497,-0.7867454521881286,1.2284348696631409,2.141600585562526,-0.4839848611266616,0.7537283800772825,-2.810884941980198,0.3463065591683168,4.229266492818154e-12,0.09520605,0.30866184,9.77661657,0.002692,0.002532,0.001262,0.061800227591442346
1757944707.6988766,-0.7918710160913721,1.2363809647199981,2.14160361716774,-0.4838911158396599,0.7535786301581063,-2.810884941980198,0.3463065591683168,3.965888054565822e-12,0.12544047,0.33291216,9.772133400000001,0.002474,0.001851,0.006325,0.06347534063004528
1757944707.7195528,-0.7882582637933335,1.2307192201750776,2.1416064890235758,-0.48386170646195276,0.7535292797464261,-2.810884941980198,0.3463065591683168,3.725620416168192e-12,0.08308089000000002,0.30686661000000004,9.78110955,0.004188,-0.002838,0.003685,0.06180964379099984
1757944707.7397125,-0.7889511194734949,1.2317632023522875,2.1416092694688853,-0.4838389720229017,0.7534904830208388,-2.810884941980198,0.3463065591683168,3.499610764963114e-12,0.07933347,0.32363190000000003,9.77706783,0.00293,0.000301,0.002744,0.06198547059894346
1757944707.762113,-0.7952975292090294,1.241611797534956,2.1416120358975617,-0.48372226075315256,0.7533052920786975,-2.810884941980198,0.3463065591683168,3.2796734609058617e-12,0.1155618,0.30790647,9.796373910000002,0.003708,-0.001957,0.00261,0.06402604604832829
1757944707.7829096,-0.795533529922147,1.2419450198409259,2.1416147036265967,-0.4836047055179853,0.7531188717502677,-2.810884941980198,0.3463065591683168,3.074544963663838e-12,0.0865242,0.3153915,9.75716334,0.003554,-0.001564,0.00421,0.06355668539544845
1757944707.8044353,-0.7911747420667057,1.235123403916469,2.1416172177677115,-0.48356594570966327,0.7530553886699208,-2.810884941980198,0.3463065591683168,2.88833506672755e-12,0.09220419,0.29114118,9.76659075,0.004639,-0.001439,0.000885,0.06164983706480471
1757944707.8298247,-0.7919054993996651,1.2361954161727469,2.1416220036346996,-0.48351239598400136,0.7529662163808472,-2.810884941980198,0.3463065591683168,2.5482896594759877e-12,-0.030685680000000003,0.2689902,9.65447226,-0.000657,-0.009992,-0.009785,0.061786796882983025
1757944707.854559,-0.7947998082125777,1.2406702786643735,2.141624296084867,-0.4834693350154071,0.7528964093159589,-2.810884941980198,0.3463065591683168,2.391787759520885e-12,0.21615354000000003,0.37587015,9.61316235,0.007865,-0.004731,0.009391,0.06272537519056645
1757944707.8750076,-0.7930992372354528,1.237990124958147,2.141626483081584,-0.48346027218005494,0.7528796741406056,-2.810884941980198,0.3463065591683168,2.2469863475378995e-12,0.02140542,0.21510387,9.90595161,0.000309,-0.002321,0.001258,0.061886627785574744
1757944707.8951404,-0.7937783451796179,1.239016211225834,2.1416285962339643,-0.48345428537354823,0.7528678347969866,-2.810884941980198,0.3463065591683168,2.110725543525234e-12,0.10717425000000001,0.2977335,9.73470825,0.001767,0.00091,0.004048,0.06204523848165282
1757944707.9161627,-0.7949802762390644,1.2408568657187231,2.1416306428766525,-0.48344053701819956,0.7528439854664016,-2.810884941980198,0.3463065591683168,1.982122336268204e-12,0.14459940000000002,0.30311919,9.66958947,0.006838,0.001416,0.00379,0.06234073781561454
1757944707.9411879,-0.8003512187958767,1.2491900070567865,2.1416326686628757,-0.4833414484189874,0.7526871878482271,-2.810884941980198,0.3463065591683168,1.8577529796829877e-12,0.06287229,0.25282332,9.860747130000002,0.001335,-0.002797,0.003446,0.06397854355383695
1757944707.9625804,-0.7958204333994946,1.2421041470767658,2.141634567880752,-0.48331789716947315,0.7526481877132325,-2.810884941980198,0.3463065591683168,1.7449960027158053e-12,0.05972328,0.25836597,9.76224492,0.002008,0.00145,0.003341,0.06190709714540364
1757944707.983219,-0.7968447277557577,1.2436693569207853,2.1416364048579304,-0.48329257500201445,0.7526065476166407,-2.810884941980198,0.3463065591683168,1.638689939276345e-12,0.09116433,0.24908571000000002,9.85745097,0.001169,-0.001971,0.005124,0.06220227663025168
1757944708.003327,-0.79674421565202,1.2434833722932919,2.1416381693961046,-0.4832792178922154,0.7525836489484633,-2.810884941980198,0.3463065591683168,1.5392139501164696e-12,0.09116433,0.24908571000000002,9.85745097,0.001169,-0.001971,0.005124,0.06203946587962443
1757944708.0235932,-0.7975609927496057,1.2447262100796552,2.141639872569719,-0.48326417881776956,0.7525582172222498,-2.810884941980198,0.3463065591683168,1.4455479648021728e-12,0.09475478999999999,0.31210515000000005,9.78245352,0.004371,0.000931,0.003766,0.06222088298676491
1757944708.0442379,-0.7981088159992427,1.245550599618508,2.141641513167082,-0.48324923809376197,0.7525330157171544,-2.810884941980198,0.3463065591683168,1.3575316180460817e-12,0.09475478999999999,0.31210515000000005,9.78245352,0.004371,0.000931,0.003766,0.062266657261091096
1757944708.06975,-0.7989807370864267,1.2468520631588556,2.1416446242996656,-0.483192338730015,0.7524407156278722,-2.810884941980198,0.3463065591683168,1.1965916105353206e-12,0.09056592000000001,0.31464594,9.71988534,0.003462,0.000818,0.004524,0.06214474411189632
1757944708.090496,-0.7994434715110084,1.2475450578623177,2.1416460841757683,-0.4831771724129113,0.7524153810461888,-2.810884941980198,0.3463065591683168,1.1238057300781837e-12,0.07663572,0.23261472000000002,9.79593246,-0.001474,0.00493,0.006446,0.06218612321002619
1757944708.1106734,-0.8001516445235838,1.248620607530769,2.1416474896297153,-0.48315914836238893,0.7523856668716253,-2.810884941980198,0.3463065591683168,1.0553309045085609e-12,0.03098979,-0.50100651,9.873765,-0.01524,0.012671,-0.009579,0.06229903516349592
1757944708.1311874,-0.8001516445235838,1.248620607530769,2.1416474896297153,-0.48315914836238893,0.7523856668716253,-2.810884941980198,0.3463065591683168,1.0553309045085609e-12,0.03098979,-0.50100651,9.873765,-0.01524,0.012671,-0.009579,0.06229903516349592
1757944708.1520023,-0.8017170554455151,1.2510047081616622,2.1416501878192022,-0.48299389496891343,0.7521250409102714,-2.810884941980198,0.3463065591683168,9.284530507237967e-13,0.40400523,-2.31583689,10.436299830000001,-0.013857,-0.018821,0.003905,0.062091398814339595
1757944708.1765995,-0.8049328856830696,1.2559861549647071,2.1416514580318964,-0.4829111905902264,0.7519947339283313,-2.810884941980198,0.3463065591683168,8.708773226074807e-13,0.33978897,-2.5572806100000003,10.651099590000001,-0.016195,-0.023083,0.074197,0.06311646298343229
1757944708.1969223,-0.8019860486514147,1.2513714463528411,2.141652650167142,-0.48288218410335104,0.7519481649964025,-2.810884941980198,0.3463065591683168,8.18058078538759e-13,0.06615864,-2.76116184,10.134828720000002,-0.009833,-0.014377,0.027653,0.061810045877201666
1757944708.2172987,-0.8027401223354185,1.2525201632611884,2.141653796056697,-0.4828570144921659,0.7519076649442582,-2.810884941980198,0.3463065591683168,7.683158331131115e-13,0.0782838,-2.30490855,9.85146687,0.026876,-0.01726,0.019762,0.062057232028131466
1757944708.2382226,-0.8031430262532757,1.2531223662177169,2.1416548938581776,-0.4828374639935733,0.7518759870681296,-2.810884941980198,0.3463065591683168,7.215912481597803e-13,-0.025751250000000003,-1.4374593,10.048608630000002,-0.016374,0.057179,-0.036359,0.062119208718416266
1757944708.2591758,-0.8066146060175262,1.258503366338481,2.1416559665218173,-0.48277103714366043,0.7517713197152044,-2.810884941980198,0.3463065591683168,6.768732092387671e-13,0.25461855,0.265851,10.503802440000001,0.027125,-0.039641,-0.000801,0.06320690957178797
1757944708.2796705,-0.8042822509534668,1.254846855296349,2.1416569732228545,-0.4827458318639976,0.7517309220776255,-2.810884941980198,0.3463065591683168,6.356857295858396e-13,-0.18771435,1.7899816499999999,11.04343092,0.001648,0.074562,0.012677,0.0620819452740648
1757944708.3004277,-0.8046682812151918,1.2554237316623869,2.1416579357173227,-0.48272581474295295,0.751698675289845,-2.810884941980198,0.3463065591683168,5.97001496101442e-13,-0.054484740000000004,2.5738987500000006,9.164089980000002,0.045608,0.010933,-0.024064,0.06214012048164309
1757944708.3204572,-0.8052101303698731,1.256243556300236,2.141658856093885,-0.4827071062263272,0.7516685240317499,-2.810884941980198,0.3463065591683168,5.606335094125334e-13,0.39383226000000005,2.9079979199999997,9.74803023,0.012612,0.030682,0.007755,0.06223312801258187
1757944708.341108,-0.8052101303698731,1.256243556300236,2.141658856093885,-0.4827071062263272,0.7516685240317499,-2.810884941980198,0.3463065591683168,5.606335094125334e-13,0.39383226000000005,2.9079979199999997,9.74803023,0.012612,0.030682,0.007755,0.06223312801258187
1757944708.3616707,-0.8094217620395258,1.262754613816324,2.1416606474465105,-0.48243191491155946,0.7512378037798246,-2.810884941980198,0.3463065591683168,4.921759126490489e-13,-0.13666311,2.14803684,9.86508315,-0.00016,-0.007126,-0.020919,0.06277602943787274
1757944708.3829863,-0.8075855146268027,1.2598721507791293,2.141661450914821,-0.482381415026139,0.7511582433891871,-2.810884941980198,0.3463065591683168,4.62159930824799e-13,-0.2228832,1.04766876,9.70266879,-0.00016,-0.007126,-0.020919,0.0619721088747693
1757944708.409281,-0.8071234408613324,1.259107391833273,2.141662931290721,-0.48234758343068523,0.7511040009611325,-2.810884941980198,0.3463065591683168,4.078505619173395e-13,-0.24863445,-1.15364619,10.43075718,-0.030901,0.01076,-0.020565,0.06183679909309537
1757944708.4293196,-0.8075348955845566,1.25972592509909,2.1416636164304617,-0.4823448567515437,0.7510990683406058,-2.810884941980198,0.3463065591683168,3.831176584585825e-13,0.21435831,-2.17288557,9.581122890000001,-0.007908,0.051305,-0.038936,0.06197214434005001
1757944708.450259,-0.8075348955845566,1.25972592509909,2.1416636164304617,-0.4823448567515437,0.7510990683406058,-2.810884941980198,0.3463065591683168,3.831176584585825e-13,0.21435831,-2.17288557,9.581122890000001,-0.007908,0.051305,-0.038936,0.06197214434005001
1757944708.4711926,-0.8082731133119045,1.2608318680574337,2.1416649013727502,-0.482279597839564,0.7509961053959928,-2.810884941980198,0.3463065591683168,3.3755203512629383e-13,-0.14280417,-2.03950881,10.050099750000001,0.002194,-0.002925,0.000422,0.06183159253506594
1757944708.4916542,-0.8089328885921049,1.2618379034143004,2.1416654841189464,-0.482277442660694,0.7509921659291445,-2.810884941980198,0.3463065591683168,3.170507801668168e-13,0.15732297,-1.57412241,9.75162069,0.005894,-0.05296,-0.011006,0.06205803483520662
1757944708.512693,-0.8093831902670278,1.262518018452729,2.1416660347903953,-0.48227710167125487,0.7509910927044131,-2.810884941980198,0.3463065591683168,2.977746383438973e-13,0.14265702,-0.35281665,9.178314480000001,0.026701,0.043378,0.023968,0.06215444213596146
1757944708.53338,-0.8093831902670278,1.262518018452729,2.1416660347903953,-0.48227710167125487,0.7509910927044131,-2.810884941980198,0.3463065591683168,2.977746383438973e-13,0.14265702,-0.35281665,9.178314480000001,0.026701,0.043378,0.023968,0.06215444213596146
1757944708.554321,-0.8103725750140083,1.2640171726352598,2.141667067898715,-0.4821720525102305,0.7508264074282975,-2.810884941980198,0.3463065591683168,2.621271142364831e-13,-0.40311252,1.4516838,9.959985090000002,0.009153,0.007461,-0.011124,0.061930994914868906
1757944708.57521,-0.81177181314382,1.2661756991054536,2.141667532109368,-0.4821462707793493,0.7507857990672704,-2.810884941980198,0.3463065591683168,2.4608857345969534e-13,0.53498835,2.4224127300000005,9.377545770000001,0.009742,-0.020949,0.032543,0.06240488790491988
1757944708.595613,-0.8108468513082978,1.264715318588505,2.1416679614712617,-0.4821417653946734,0.7507783762612898,-2.810884941980198,0.3463065591683168,2.3115114250792635e-13,-0.29084688000000003,2.42435511,9.33324381,-0.016296,0.001051,-0.010404,0.0619713787502517
1757944708.6165612,-0.8112958437585549,1.2653946734462618,2.1416683633402247,-0.4821400189214423,0.7507752944123822,-2.810884941980198,0.3463065591683168,2.1710304808478004e-13,0.2342628,2.41552611,9.70162893,-0.003258,-0.032863,0.002808,0.06209960142142603
1757944708.6371133,-0.8129214829557906,1.2679064930800208,2.1416687433661927,-0.482120117961811,0.7507439627387378,-2.810884941980198,0.3463065591683168,2.0379817283580762e-13,0.14833701000000002,1.64627496,9.73096083,0.001468,-0.003397,0.047476,0.06259559042683785
1757944708.6588233,-0.8165978598334304,1.273611840754827,2.141669110481226,-0.4820393330398333,0.7506177985997776,-2.810884941980198,0.3463065591683168,1.910580818155349e-13,0.051041430000000006,0.65399346,9.84831786,-0.013258,0.00309,0.008198,0.06367678236368536
1757944708.6797125,-0.8123230383098395,1.266936130808697,2.1416694320790395,-0.4820277744451098,0.7505994968773783,-2.810884941980198,0.3463065591683168,1.794702899751319e-13,-0.05044302,-0.48902850000000003,9.281898270000001,-0.034596,0.017696,-0.002792,0.0618214605047543
1757944708.699884,-0.8128214682536105,1.2676934250411684,2.141669729844467,-0.4820206523325672,0.7505881613997258,-2.810884941980198,0.3463065591683168,1.6856625994841428e-13,0.12379239,-0.9833053500000001,9.903852270000002,-0.007382,0.005764,0.02039,0.06201750929787626
1757944708.7209892,-0.8132301308196888,1.2683111682839237,2.141670003790648,-0.48201628836034244,0.750581160046105,-2.810884941980198,0.3463065591683168,1.5831423341759625e-13,-0.00373761,-1.9949027400000001,10.00938825,-0.004389,0.009537,-0.007585,0.0621288312359196
1757944708.7416086,-0.8181976654847514,1.2760279948972992,2.141670271544861,-0.48193373811089163,0.750452378796447,-2.810884941980198,0.3463065591683168,1.4840636546790997e-13,0.19235448000000002,-1.9917537300000001,9.99636057,-0.005486,0.023645,-0.004513,0.06376003289898081
1757944708.76158,-0.8141313698293002,1.2696779171476278,2.1416704994766427,-0.48191708975551056,0.7504262712767489,-2.810884941980198,0.3463065591683168,1.3938351965409616e-13,0.12828537,-1.4865583500000001,9.783503190000001,-0.000102,-0.015472,-0.017007,0.06196120434300142
1757944708.7886915,-0.8156310135836552,1.2719951518105208,2.1416707097931678,-0.4818877575616122,0.7503804522921782,-2.810884941980198,0.3463065591683168,1.3084314784973696e-13,0.48529089000000003,-0.0031392000000000004,10.233772380000001,0.011646,-0.07274,0.037205,0.06247572949528091
1757944708.8032317,-0.8144035026911776,1.2700659923128936,2.1416708931635924,-0.4818835919052313,0.7503738645158706,-2.810884941980198,0.3463065591683168,1.229036399334997e-13,0.48529089000000003,-0.0031392000000000004,10.233772380000001,0.011646,-0.07274,0.037205,0.061936403155885514
1757944708.824407,-0.8246343751998257,1.2859796638680239,2.1416710592935813,-0.4818680490983967,0.7503495875033277,-2.810884941980198,0.3463065591683168,1.1539273819064847e-13,-0.2689902,2.1342636,8.77130739,0.018552,0.037277,-0.008319,0.06636744671827952
1757944708.8444452,-0.8153775929414813,1.2715480045034597,2.1416712027535363,-0.48186359998210715,0.7503426121872513,-2.810884941980198,0.3463065591683168,1.0837072592553493e-13,-0.2689902,2.1342636,8.77130739,0.018552,0.037277,-0.008319,0.06215745191965822
1757944708.8690107,-0.8160175933574316,1.2725106113390483,2.14167143591874,-0.48183088662508483,0.7502916249844918,-2.810884941980198,0.3463065591683168,9.552287062031557e-14,-0.008681850000000001,2.1483311400000003,9.736199370000001,-0.021001,0.009609,-0.025195,0.06214060940666532
1757944708.8904204,-0.8170175518791527,1.2740510332495283,2.1416715242675384,-0.48181575385024816,0.7502680721958838,-2.810884941980198,0.3463065591683168,8.968228570546561e-14,0.12453795000000001,2.04400179,9.442664550000002,0.009708,0.005946,-0.005,0.06243372467371297
1757944708.9111214,-0.8167066624338282,1.273550455708199,2.141671592845814,-0.48180951034753694,0.7502583858049003,-2.810884941980198,0.3463065591683168,8.42196224671731e-14,0.14055768000000002,0.9800091900000001,9.92451213,-0.010835,-0.004852,0.041667,0.06221215471412276
1757944708.9314322,-0.8167066624338282,1.273550455708199,2.141671592845814,-0.48180951034753694,0.7502583858049003,-2.810884941980198,0.3463065591683168,8.42196224671731e-14,0.14055768000000002,0.9800091900000001,9.92451213,-0.010835,-0.004852,0.041667,0.06221215471412276
1757944708.9539974,-0.8285966092444718,1.2920486402115727,2.141671677254644,-0.4815680955142665,0.7498823394530585,-2.810884941980198,0.3463065591683168,7.87228770047824e-14,-0.30266793,0.26405577,9.48158082,0.010866,0.007334,-0.014594,0.06614460021147647
1757944708.9749794,-0.8195191300258243,1.2778813615877151,2.1416717528309803,-0.48135860903454686,0.7495561151868119,-2.810884941980198,0.3463065591683168,6.926175548901992e-14,0.64306512,-1.23298947,10.44034155,0.015596,0.05605,0.039884,0.061857276489190344
1757944708.9953125,-0.8175069706925333,1.2747323855923354,2.1416717553934728,-0.4813426982064397,0.7495314543874909,-2.810884941980198,0.3463065591683168,6.508825910244676e-14,0.13531914,-1.5242778,10.10893032,0.022906,0.039944,0.003328,0.06125295150350624
1757944709.0155416,-0.8185027979122371,1.276267530254568,2.141671745081357,-0.48133499799582435,0.7495196374586677,-2.810884941980198,0.3463065591683168,6.114239924262184e-14,0.25102809000000004,-1.65256317,10.470428820000002,-0.003114,0.018137,-0.002581,0.06179477495735029
1757944709.0364134,-0.8207521650938313,1.279754807362831,2.1416717247656925,-0.4813070960454139,0.7494763756090859,-2.810884941980198,0.3463065591683168,5.738676368416308e-14,0.10762551000000001,-1.07251749,9.876315600000002,0.014104,0.018429,0.006286,0.06262719314959383
1757944709.0574481,-0.8199387839388689,1.2784730672417368,2.1416716870409322,-0.4812982661297022,0.7494628240149735,-2.810884941980198,0.3463065591683168,5.388616616247885e-14,0.30446316,-0.36673704,9.63261558,-0.009322,-0.028378,0.037041,0.06222182241551427
1757944709.0778694,-0.8189547610016823,1.2769258069652505,2.1416716322742495,-0.4813125947252983,0.7494853565440553,-2.810884941980198,0.3463065591683168,5.062322857816833e-14,-0.22408002000000002,0.6188148,9.57035151,0.024533,-0.052691,0.022788,0.061846387757470055
1757944709.0988808,-0.8207051325078154,1.2796366216970023,2.1416715672079194,-0.48131020694241095,0.7494818666621675,-2.810884941980198,0.3463065591683168,4.7526412155120185e-14,0.19025514000000002,0.9705817800000001,9.59474898,0.00946,-0.040002,0.00052,0.06248520519368185
1757944709.1194487,-0.8193521435241577,1.2775151741671498,2.1416714852366683,-0.4813319414173531,0.7495159540598926,-2.810884941980198,0.3463065591683168,4.464771396635133e-14,-0.23531247000000002,1.37893284,9.61390791,-0.003214,-0.004428,-0.036623,0.06191527633626232
1757944709.139857,-0.8217598160376298,1.2812498634776122,2.1416713950074175,-0.4813232166036892,0.7495026102628146,-2.810884941980198,0.3463065591683168,4.190471036448714e-14,0.32646699000000007,1.9428116400000002,9.8242245,0.009106,0.006631,0.004393,0.06275772210983702
1757944709.1597126,-0.8199806323804186,1.2784650989991166,2.1416712880868847,-0.48134237398163543,0.7495326992909674,-2.810884941980198,0.3463065591683168,3.9363247391694984e-14,-0.06885639,1.8390708900000001,10.009986660000001,0.000365,-0.002546,0.003573,0.06198066261800361
1757944709.1805503,-0.8225958940535223,1.282523378038453,2.141671173975327,-0.4813257779064243,0.7495071134521902,-2.810884941980198,0.3463065591683168,3.69390238909824e-14,-0.00299205,1.4209981200000001,9.94561344,-0.001286,-0.017494,0.003945,0.06288148994119588
1757944709.2007086,-0.8206032786062724,1.2794065938022317,2.141671043908614,-0.48133974704238414,0.7495291412633966,-2.810884941980198,0.3463065591683168,3.469664286633111e-14,0.48259314000000003,0.88331202,9.950861790000001,-0.009812,-0.030506,0.056844,0.062007527496781525
1757944709.222926,-0.8273784454047289,1.289942840209681,2.1416709150859417,-0.4812392079021688,0.7493728154349479,-2.810884941980198,0.3463065591683168,3.250389012814534e-14,-0.33305931000000005,0.17573634,9.61435917,-0.005577,4e-06,-0.021078,0.06431477037216662
1757944709.243867,-0.8226076877729719,1.282500306190571,2.1416707661003898,-0.4812155818603998,0.7493362907174437,-2.810884941980198,0.3463065591683168,3.051706242035172e-14,0.39607875000000003,-0.7695454500000001,9.38368683,-0.043137,-0.057793,0.008535,0.062191200551126126
1757944709.2662551,-0.8293848604000051,1.2930399799424162,2.141670618988658,-0.48107632726869193,0.7491196863464497,-2.810884941980198,0.3463065591683168,2.857655791724133e-14,-0.38874087000000007,-0.91894194,9.16977978,-0.003557,-0.015186,-0.024424,0.06449385711969867
1757944709.291075,-0.8224744355738558,1.2822527334815408,2.141670273652087,-0.481011350794018,0.7490191161148003,-2.810884941980198,0.3463065591683168,2.5195885485214792e-14,0.34488036,-1.0352493,9.78589683,0.009507,-0.013818,0.031472,0.0616221263409084
1757944709.3110943,-0.8218839518208488,1.2813202465201947,2.1416700842349847,-0.48102469291331584,0.749040263699323,-2.810884941980198,0.3463065591683168,2.3675479247121738e-14,-0.12334113000000002,-0.74859129,9.80176941,0.018427,0.025152,0.01385,0.06155173950380523
1757944709.3364625,-0.8256690635094537,1.287201444723065,2.1416698914248125,-0.480992980348754,0.7489912560156979,-2.810884941980198,0.3463065591683168,2.2213084532523565e-14,0.6920072100000001,-0.20357712,10.55978811,0.024266,-0.041831,0.031301,0.06298001013473181
1757944709.3572404,-0.8232218107001383,1.2833779286407863,2.1416696856123423,-0.48100136690339224,0.7490046997564513,-2.810884941980198,0.3463065591683168,2.0864378637868333e-14,-0.062273880000000004,0.60114699,9.926307360000001,0.031418,0.019173,0.002388,0.061952953372602024
1757944709.3784952,-0.8249150788065354,1.2860020697076955,2.141669473543786,-0.480992412006662,0.7489911464505858,-2.810884941980198,0.3463065591683168,1.9584942221775313e-14,0.27602397,1.0096550100000001,9.95369688,0.031418,0.019173,0.002388,0.06257494094781695
1757944709.399497,-0.8217513860397988,1.281063237479426,2.1416692484897872,-0.48103307056300115,0.7490548677958196,-2.810884941980198,0.3463065591683168,1.840900665773357e-14,0.004188870000000001,1.9160107200000003,9.577836540000002,-0.001036,0.002853,0.00734,0.06138518225465437
1757944709.4197903,-0.8233980175614588,1.2836150711632985,2.1416690175607425,-0.4810616072391722,0.7490997279202903,-2.810884941980198,0.3463065591683168,1.72917196188006e-14,-0.10568313,1.67322303,9.62603307,-0.000628,0.005177,0.004304,0.062104591269134264
1757944709.4402533,-0.8221836846236918,1.2817120251506537,2.141668777067368,-0.4811110992903985,0.7491772281032689,-2.810884941980198,0.3463065591683168,1.6250710286864234e-14,-0.10568313,1.67322303,9.62603307,-0.000628,0.005177,0.004304,0.061671224775452206
1757944709.4614909,-0.8210659333330133,1.2799459025395474,2.1416704447206305,-0.47515915731194996,0.7399048227292183,-2.810884941980198,0.3463065591683168,1.5245401293336864e-14,0.17004654,0.46882971,9.84577707,-0.000369,-0.003767,-0.002084,0.0652652395289092
1757944709.487875,-0.8236499943160608,1.2839597830920588,2.1416680182693257,-0.4811767058811123,0.7492806660060605,-2.810884941980198,0.3463065591683168,1.3460929668304167e-14,-0.07380063,-0.10777265999999999,9.857303820000002,-0.006398,-0.016356,0.014399,0.062101291177198564
1757944709.5081248,-0.8230564846988371,1.2830240148078962,2.141667750284416,-0.48121951763448045,0.7493477801730997,-2.810884941980198,0.3463065591683168,1.2648015832017012e-14,0.35999757000000004,-0.79903431,9.708809850000002,-0.017275,0.003008,-0.004101,0.06187374082734124
1757944709.52911,-0.8230564846988371,1.2830240148078962,2.141667750284416,-0.48121951763448045,0.7493477801730997,-2.810884941980198,0.3463065591683168,1.2648015832017012e-14,0.35999757000000004,-0.79903431,9.708809850000002,-0.017275,0.003008,-0.004101,0.06187374082734124
1757944709.5496356,-0.8237710221727368,1.2841138872677051,2.141667201620087,-0.48120079973438745,0.7493194870714466,-2.810884941980198,0.3463065591683168,1.1143054762924839e-14,0.06960195,-1.08239616,9.75431844,-0.028795,-0.007499,-0.017149,0.06177573482150382
1757944709.5697083,-0.8256098031127227,1.2869660165812242,2.141666918139431,-0.48119988335921576,0.7493185087919131,-2.810884941980198,0.3463065591683168,1.046178472997643e-14,0.20492109000000003,-0.9636951600000001,9.87392196,0.008923,-0.011727,-0.025001,0.062471092172225455
1757944709.5901299,-0.8240406966507245,1.284511570323175,2.1416666275928584,-0.48122298800667557,0.7493549497372545,-2.810884941980198,0.3463065591683168,9.829147535301722e-15,0.031588200000000004,-0.07289811,9.10107054,0.000778,-0.006609,-0.017285,0.06183865606385769
1757944709.6119716,-0.8272434245761867,1.289487865434118,2.1416663347818137,-0.4811987852765711,0.7493177201442617,-2.810884941980198,0.3463065591683168,9.223088520077258e-15,0.43963515000000003,0.56627244,8.99045298,0.031167,0.077156,-0.010836,0.06297690809021006
1757944709.6321132,-0.8244910330103893,1.285191062999664,2.1416660343573923,-0.4812149198331749,0.7493433148568789,-2.810884941980198,0.3463065591683168,8.665105412660482e-15,0.04685256,0.6965001900000001,9.29117853,0.028628,0.058722,0.049485,0.06182616100509815
1757944709.655943,-0.8296348974083669,1.2931903083251584,2.1416657337160014,-0.48114894409509046,0.7492410315909933,-2.810884941980198,0.3463065591683168,8.124286529305005e-15,-0.20716758000000002,1.1454156,9.37694736,0.031706,-0.008946,0.061173,0.06363066448719018
1757944709.676316,-0.8249365958731938,1.28586358386731,2.1416654244466375,-0.48115468864918276,0.7492504476701032,-2.810884941980198,0.3463065591683168,7.633151803094361e-15,-0.24638796000000002,1.55735712,9.938736630000001,0.036935,0.054736,0.026939,0.061677042835989265
1757944709.6973858,-0.8286619134251645,1.2916541378175594,2.1416651140618175,-0.48110882509904895,0.749179505325031,-2.810884941980198,0.3463065591683168,7.161088878016847e-15,-0.00703377,1.8745536600000001,9.99950958,0.014482,0.036278,-0.051536,0.06304940033914219
1757944709.7180629,-0.8266907957335625,1.288574378244886,2.1416647979590255,-0.48109427120868214,0.7491573275400097,-2.810884941980198,0.3463065591683168,6.7245175230255856e-15,0.06900354,1.7119921500000002,9.867928050000002,0.016568,-0.0064,-0.004085,0.06216666738074588
1757944709.7395058,-0.8320972729828957,1.2969830342345072,2.1416644822342468,-0.4809888079749752,0.748993564701455,-2.810884941980198,0.3463065591683168,6.301278452287874e-15,-0.25626663,1.37788317,9.96971661,0.003862,0.000629,0.011722,0.06400031846897428
1757944709.7605002,-0.8272380699941246,1.2894061802458285,2.1416641591406744,-0.4809630201064505,0.7489538895433209,-2.810884941980198,0.3463065591683168,5.917677891542319e-15,0.30237363,0.9984225600000001,9.79758054,-0.00134,-0.008981,0.034432,0.06193254379925424
1757944709.7806966,-0.8284742816296888,1.2913211825572264,2.1416638336238396,-0.4809286607428059,0.7489008867163495,-2.810884941980198,0.3463065591683168,5.554908691269126e-15,0.16106057999999998,0.49083354000000007,9.6944382,-0.000103,-0.002923,0.009344,0.06242389577312776
1757944709.801769,-0.8276616028311418,1.290045777797524,2.141663504188493,-0.48091343002233733,0.7488776827332511,-2.810884941980198,0.3463065591683168,5.21651118192345e-15,0.11106882000000001,-0.30177522,9.86343507,-0.015006,0.001349,0.044747,0.06209476445688392
1757944709.822637,-0.8288294594057164,1.2918545601457094,2.1416631722787463,-0.4808877047652741,0.7488381416612522,-2.810884941980198,0.3463065591683168,4.8966558124446186e-15,0.32931189000000005,-1.0404878400000002,10.360556820000001,-0.019922,-0.041102,0.056521,0.06251344710429137
1757944709.8430176,-0.8288294594057164,1.2918545601457094,2.1416631722787463,-0.4808877047652741,0.7488381416612522,-2.810884941980198,0.3463065591683168,4.8966558124446186e-15,0.32931189000000005,-1.0404878400000002,10.360556820000001,-0.019922,-0.041102,0.056521,0.06251344710429137
1757944709.8635073,-0.8348529022333929,1.3012148169631848,2.1416625115703276,-0.4804806654541659,0.7482051674733947,-2.810884941980198,0.3463065591683168,4.287716498499204e-15,0.62494605,-0.8165549700000001,9.83290635,-0.005746,-0.004772,0.001785,0.06357410924780364
1757944709.889141,-0.8282451735193151,1.290906364857567,2.141661831142007,-0.48041056078348354,0.7480970154331413,-2.810884941980198,0.3463065591683168,3.783666233379971e-15,0.08996751000000001,0.53663643,9.64324962,0.038342,-0.01279,-0.008254,0.0612635887053958
1757944709.9099245,-0.8283374153280983,1.2910407249618945,2.141661487071665,-0.48041944197267866,0.7481114039394137,-2.810884941980198,0.3463065591683168,3.555226196153325e-15,0.26884305000000003,0.80682345,10.197691200000001,0.001413,-0.060292,0.047924,0.06154059086229806
1757944709.9302173,-0.8283374153280983,1.2910407249618945,2.141661487071665,-0.48041944197267866,0.7481114039394137,-2.810884941980198,0.3463065591683168,3.555226196153325e-15,0.26884305000000003,0.80682345,10.197691200000001,0.001413,-0.060292,0.047924,0.06154059086229806
1757944709.9510396,-0.8286751840508524,1.2915483981674185,2.1416607944576853,-0.48037542499618074,0.748043953168358,-2.810884941980198,0.3463065591683168,3.1321145417265916e-15,-0.08007903000000001,0.022307940000000002,10.11596409,0.008243,-0.046475,-0.012039,0.061537342255492206
1757944709.972388,-0.830217373569156,1.293940916653355,2.1416604441452813,-0.4803845025765284,0.7480586449548124,-2.810884941980198,0.3463065591683168,2.9411089056549553e-15,-0.31644117000000005,1.10080953,8.68374333,-0.009652,0.018074,-0.005525,0.06223600817272828
1757944709.9924107,-0.8286798791291837,1.2915378380634142,2.1416600909025743,-0.48042218956772864,0.7481178895817292,-2.810884941980198,0.3463065591683168,2.7635333917328106e-15,2.25236619,2.72777841,7.77438576,0.085613,0.146615,0.803273,0.061708633156552936
1757944710.0130136,-0.8307002244320197,1.2946751424964176,2.141659736352847,-0.4804382031652761,0.7481433807272725,-2.810884941980198,0.3463065591683168,2.59449833293254e-15,2.30924457,3.6280028700000004,7.539966,0.046934,0.156159,1.29537,0.06251324596030003
1757944710.0335715,-0.8291083706503215,1.2921876023397088,2.1416593791504095,-0.4804788195862469,0.7482071809182291,-2.810884941980198,0.3463065591683168,2.4374786809385703e-15,-0.53319312,2.7969291,9.70507224,0.024978,0.138303,1.382838,0.061895134996671965
1757944710.0541904,-0.8310885074267347,1.2952624868235112,2.1416590208182757,-0.4804935943044036,0.7482307341114068,-2.810884941980198,0.3463065591683168,2.2881132123695084e-15,-0.12783411,1.84880241,11.51316315,-0.038933,0.028978,1.406337,0.06263825929652117
1757944710.0747194,-0.8295024627137836,1.29278417455284,2.1416586602307213,-0.48053086933273487,0.748289323691795,-2.810884941980198,0.3463065591683168,2.149401296794768e-15,0.22752333,2.2571534700000004,8.90707779,-0.008862,0.045589,1.352424,0.06199257930852021
1757944710.0955575,-0.8325704916326482,1.2975533196242863,2.141658299135564,-0.48052141932840814,0.7482751418765253,-2.810884941980198,0.3463065591683168,2.0166125114726505e-15,-0.03951468,2.0547731700000003,10.479110669999999,-0.044822,0.069015,1.33155,0.0630849392022903
1757944710.1156654,-0.8297659356691957,1.2931777002874856,2.1416579358173475,-0.4805514227733156,0.7483223999266668,-2.810884941980198,0.3463065591683168,1.8943696211538543e-15,0.08622009,0.9705817800000001,10.18212273,0.019888,-0.013768,1.346345,0.061926763627145096
1757944710.1365123,-0.8323632738605828,1.2972140669048624,2.1416575720950783,-0.4805440756242837,0.748311493060966,-2.810884941980198,0.3463065591683168,1.7776785853441165e-15,0.19264878,0.7771874400000001,8.64302202,0.004993,0.14954,1.310578,0.06288130824503019
1757944710.1576178,-0.8304572382890729,1.294237806038752,2.141657206773587,-0.48056389396624727,0.7483428913392083,-2.810884941980198,0.3463065591683168,1.6696078521191562e-15,0.24504399000000002,0.6408186300000001,8.414753130000001,0.021498,0.191934,1.325195,0.062080496926399574
1757944710.1780236,-0.8333516656062546,1.2987369801357727,2.141656841304785,-0.4805392884196713,0.7483051063976265,-2.810884941980198,0.3463065591683168,1.5663097513191577e-15,0.04745097,-0.34892208,10.3129587,0.019461,0.131073,1.389223,0.06310398137325961
1757944710.1986537,-0.8303067959716872,1.2939874742009199,2.1416564742670303,-0.48055953214446423,0.7483371666422517,-2.810884941980198,0.3463065591683168,1.4713738529171141e-15,0.48229884,-0.9048645900000001,11.042989470000002,-0.052162,0.011912,1.51169,0.06186726338104263
1757944710.2193406,-0.8312848903211101,1.295502686650402,2.14165610674209,-0.4805707479281714,0.748355175641395,-2.810884941980198,0.3463065591683168,1.3816411013753229e-15,0.02963601,-0.76894704,9.342524070000001,0.024278,0.072696,1.499199,0.06228720351684022
1757944710.240287,-0.8310147270299035,1.2950741724157895,2.1416557384676524,-0.4805878032349207,0.7483822797539796,-2.810884941980198,0.3463065591683168,1.2975623904232113e-15,-0.16750575,-1.02836268,10.648705950000002,0.003506,0.144418,1.459303,0.06217851750928355
1757944710.2602985,-0.8350792787479138,1.3013958319957333,2.141655370458869,-0.4805372326602529,0.7483040582447721,-2.810884941980198,0.3463065591683168,1.2166406618055853e-15,0.03143124,-1.15155666,10.504253700000001,0.004802,0.067074,1.470111,0.06357161531809757
1757944710.2811034,-0.8318134743399079,1.2963025913309767,2.1416550014576767,-0.4805352141124036,0.7483014456967925,-2.810884941980198,0.3463065591683168,1.142452968351123e-15,-0.9876413700000001,-0.56357469,8.96620266,0.035302,0.120161,1.470212,0.06215886554668799
1757944710.3077512,-0.83118480932188,1.2953085631929857,2.1416542624807215,-0.48056146645449854,0.7483434138420065,-2.810884941980198,0.3463065591683168,1.0078467749894614e-15,-0.45849978,-0.39383226000000005,10.00324719,0.048258,0.107248,1.505933,0.06201439643786358
1757944710.3282614,-0.83118480932188,1.2953085631929857,2.1416542624807215,-0.48056146645449854,0.7483434138420065,-2.810884941980198,0.3463065591683168,1.0078467749894614e-15,-0.45849978,-0.39383226000000005,10.00324719,0.048258,0.107248,1.505933,0.06201439643786358
1757944710.349618,-0.8321297031737264,1.296765189896134,2.141653523908471,-0.4804717783017665,0.748204796982958,-2.810884941980198,0.3463065591683168,8.869313684877211e-16,-0.36658989000000003,0.09220419,10.32628068,0.003722,0.003472,1.469753,0.06196474372980845
1757944710.3719099,-0.8334523633982034,1.2988176069928128,2.141653154583576,-0.4804535105268883,0.748176886200188,-2.810884941980198,0.3463065591683168,8.325321980016447e-16,-0.02140542,-0.38380644,9.350156250000001,-0.011561,0.042416,1.504089,0.06250190882482407
1757944710.3923976,-0.8317425675684629,1.2961478780712878,2.141652785146798,-0.48046494014694835,0.7481952269266606,-2.810884941980198,0.3463065591683168,7.820512214466724e-16,0.37422207,0.13921371000000002,9.78515127,-0.014771,-0.039984,1.552149,0.06187017271840403
1757944710.4125748,-0.8335163411659675,1.2989029376113048,2.141652415976367,-0.4804560544914275,0.7481819335398902,-2.810884941980198,0.3463065591683168,7.341009984281335e-16,-0.30371760000000003,0.54321894,9.36632313,0.058071,0.044988,1.56353,0.06256923391280929
1757944710.4331622,-0.832033367608259,1.296586567958635,2.1416520467934808,-0.4804714159026882,0.7482063983978787,-2.810884941980198,0.3463065591683168,6.895401003279845e-16,0.21869433000000002,0.33380487000000003,8.79091758,0.048158,0.212906,1.568464,0.061990640285976575
1757944710.455968,-0.8359654274141903,1.3027027218668275,2.141651678121282,-0.48042605200953503,0.7481362877427148,-2.810884941980198,0.3463065591683168,6.466618809246533e-16,0.23605803000000003,1.17251082,10.05818319,0.046246,0.164882,1.65797,0.0633921194723514
1757944710.4764235,-0.8322849609867226,1.2969644789807753,2.1416513095338736,-0.4804362161510767,0.7481526479611456,-2.810884941980198,0.3463065591683168,6.0743299187825e-16,0.06271533,0.7403607,10.435848570000001,0.052385,0.023674,1.514214,0.06188053070565772
1757944710.4973423,-0.8322849609867226,1.2969644789807753,2.1416513095338736,-0.4804362161510767,0.7481526479611456,-2.810884941980198,0.3463065591683168,6.0743299187825e-16,0.06271533,0.7403607,10.435848570000001,0.052385,0.023674,1.514214,0.06188053070565772
1757944710.5182924,-0.8352059576175939,1.301499519785387,2.141650574908164,-0.4802599493336267,0.7478791721665184,-2.810884941980198,0.3463065591683168,5.337536066504853e-16,1.75360617,1.13823468,12.28689747,0.055821,-0.071844,1.573619,0.06242916969258013
1757944710.5384579,-0.8369126762777914,1.3041505780981477,2.1416502087767944,-0.48019433954893037,0.7477775207619392,-2.810884941980198,0.3463065591683168,5.006201904945364e-16,0.32227812,1.22759397,12.13660827,0.023397,0.036683,1.585272,0.06302609273836418
1757944710.5586474,-0.8325406857474917,1.2973357241773196,2.141649843165734,-0.4802007540779896,0.7477880375962309,-2.810884941980198,0.3463065591683168,4.704238578625241e-16,0.68796549,0.58648104,10.871893260000002,0.012121,0.053952,1.601839,0.061393161092694506
1757944710.579727,-0.8346602693000713,1.300629865609238,2.141649478272038,-0.4801916184947323,0.7477743520702538,-2.810884941980198,0.3463065591683168,4.4164793747301856e-16,0.40400523,0.5719622400000001,9.42874416,0.046154,0.098149,1.467765,0.06234939098791989
1757944710.600038,-0.8329824419333688,1.2980105992213429,2.1416491138987936,-0.48021344412118167,0.7478088817086548,-2.810884941980198,0.3463065591683168,4.1492357238409054e-16,-0.21570228000000002,0.56072979,10.83596904,0.046769,0.090216,1.502863,0.061772659348595355
1757944710.6210716,-0.8350134556063117,1.3011669537031145,2.1416487500632133,-0.48021294589415575,0.7478086452198988,-2.810884941980198,0.3463065591683168,3.8948510246348396e-16,0.9081607500000001,0.6860231099999999,10.16506314,0.0269,0.206361,1.622543,0.06259104770689125
1757944710.6419735,-0.8331186771457235,1.2982099698866472,2.1416483868221583,-0.4802424463273769,0.747855120521729,-2.810884941980198,0.3463065591683168,3.659007828076644e-16,0.26614530000000003,0.41688576,10.15233957,-0.015119,0.198422,1.626148,0.06187452770346541
1757944710.6622107,-0.8355395863201145,1.3019736202843466,2.1416480241526283,-0.48023973827862027,0.747851433238219,-2.810884941980198,0.3463065591683168,3.434008448595193e-16,-0.11840670000000002,0.36523611,10.39513707,0.030971,0.024189,1.521309,0.06279604358078825
1757944710.6829896,-0.8337015050723436,1.2991050500391235,2.1416476622513585,-0.48026390008486497,0.7478895850474377,-2.810884941980198,0.3463065591683168,3.225430960648712e-16,-0.11840670000000002,0.36523611,10.39513707,0.030971,0.024189,1.521309,0.062051384290977674
1757944710.709358,-0.8342288480601977,1.2999139844927972,2.1416469407322527,-0.4802954541869077,0.7479397672856466,-2.810884941980198,0.3463065591683168,2.843784836182446e-16,0.41987781,-0.50834439,11.080561770000001,-0.011223,0.044203,1.602367,0.06224712202768957
1757944710.7300937,-0.8342288480601977,1.2999139844927972,2.1416469407322527,-0.4802954541869077,0.7479397672856466,-2.810884941980198,0.3463065591683168,2.843784836182446e-16,0.41987781,-0.50834439,11.080561770000001,-0.011223,0.044203,1.602367,0.06224712202768957
1757944710.750197,-0.8341308456249863,1.2997493258192672,2.141646222818518,-0.4802580361729181,0.7478825091024216,-2.810884941980198,0.3463065591683168,2.504312304912419e-16,-0.13037490000000002,0.01946304,10.33496253,0.030172,-0.019189,1.61323,0.06192046816110019
1757944710.7709315,-0.8341615530084461,1.2997912252798018,2.1416458655822694,-0.48027621481251287,0.7479113316208934,-2.810884941980198,0.3463065591683168,2.3521787746115904e-16,-0.91758816,0.11226564,10.16131572,0.035567,0.04362,1.499171,0.062027368278212446
1757944710.794295,-0.8348310751609732,1.3008279776501233,2.1416455093119176,-0.48028829792258465,0.7479306626030509,-2.810884941980198,0.3463065591683168,2.2086707603320565e-16,0.33829785,-0.68976072,9.822272309999999,-0.027212,0.042884,1.550965,0.062319894394786864
1757944710.8245766,-0.8398434447768807,1.3086276806534782,2.141645153806043,-0.4802119992592046,0.7478123401471062,-2.810884941980198,0.3463065591683168,2.0697896887344285e-16,-0.24414147,0.13591755,9.43876998,-0.006985,0.053196,1.57638,0.06402135224620904
1757944710.8448007,-0.837978961766058,1.3057184433369962,2.141644799831349,-0.4801611863314869,0.7477337011113697,-2.810884941980198,0.3463065591683168,1.94148543038555e-16,-0.9334607400000001,0.03367773,9.06574473,0.045737,0.140041,1.520941,0.06301487373897552
1757944710.873468,-0.8349517017837709,1.3009928911208684,2.1416440964273145,-0.48014689866643195,0.7477124507832708,-2.810884941980198,0.3463065591683168,1.7119766012604348e-16,0.22498254,0.29578131,10.207873980000002,0.045435,0.173887,1.621766,0.061890371615796455
1757944710.8947968,-0.8374968604970722,1.3049507691098094,2.1416437464670217,-0.4801202781227819,0.7476714994086384,-2.810884941980198,0.3463065591683168,1.6063433718861825e-16,0.16270866,0.40490775,10.29947976,0.029318,0.09321,1.654192,0.06287700106600923
1757944710.9148617,-0.8341391868840615,1.2997164819086413,2.141643398082982,-0.48014585257641,0.7477118289883471,-2.810884941980198,0.3463065591683168,1.5093757692444177e-16,-0.89648685,0.14055768000000002,9.835594290000001,0.022123,0.187518,1.538049,0.06161108518590693
1757944710.934968,-0.8378604693226058,1.3055060047528113,2.141643050522024,-0.48012200814444805,0.7476751977234274,-2.810884941980198,0.3463065591683168,1.4160662804330301e-16,0.43319979,0.9153416700000001,10.48329954,0.046362,-0.008809,1.533006,0.06305366398288992
1757944710.9554784,-0.8346820014795757,1.3005508875315648,2.141642704589888,-0.4801458835469196,0.7477128759988023,-2.810884941980198,0.3463065591683168,1.330339344211657e-16,-0.09026181000000001,0.44936667,10.34334027,0.029353,0.029309,1.558001,0.061804956710781074
1757944710.97548,-0.8368313712760657,1.3038926508076847,2.1416423596626384,-0.48014331477503874,0.7477093726512654,-2.810884941980198,0.3463065591683168,1.248676385331116e-16,-0.43619184,0.24624081,9.71105634,0.022057,0.121122,1.40724,0.06266414582836097
1757944710.996245,-0.8347304717368293,1.3006156908762574,2.1416420162846848,-0.480172592278973,0.7477554602257765,-2.810884941980198,0.3463065591683168,1.1730689835086103e-16,-0.71641449,0.28410741,10.1367711,0.003021,0.11354,1.146335,0.06186814811902767
1757944711.016272,-0.8373918761214337,1.3047549350726613,2.1416416738444557,-0.4801646535828618,0.7477435875417222,-2.810884941980198,0.3463065591683168,1.1008237839746639e-16,-0.020208600000000004,0.44697303,10.13272938,0.03276,0.002343,1.065155,0.06288122439573124
1757944711.0367758,-0.8351849335331799,1.3013129360106384,2.1416413330646673,-0.48018852731552597,0.7477812522273373,-2.810884941980198,0.3463065591683168,1.0340128894978836e-16,-0.8255311200000001,0.14550192,9.55447893,0.026717,0.052561,0.932146,0.061998623128462715
1757944711.057007,-0.8369248057790576,1.3040172198106543,2.141640993406252,-0.48018858257029357,0.7477818225398958,-2.810884941980198,0.3463065591683168,9.705580908112542e-17,-0.23127075,0.30476727000000003,10.20756987,0.005899,0.048998,0.748422,0.06266806003593495
1757944711.077485,-0.8350430261027418,1.3010816841121273,2.141640655424146,-0.480216185109824,0.7478252896648809,-2.810884941980198,0.3463065591683168,9.11727455844836e-17,-3.0367345500000003,0.47555937000000004,8.49962925,0.05799,0.028721,-0.318915,0.06194345018256005
1757944711.098929,-0.8368588884713967,1.3039044095151011,2.1416403185637094,-0.48021880515759396,0.7478298496473633,-2.810884941980198,0.3463065591683168,8.558150270098549e-17,1.53056601,0.49098069000000005,8.677003860000001,0.020396,0.143141,-0.508975,0.06264771458678815
1757944711.1187756,-0.8355496746473096,1.3018606067167324,2.141639983350265,-0.48023984445046936,0.7478630905865924,-2.810884941980198,0.3463065591683168,8.037882635401543e-17,2.39038308,0.46403262,11.99336265,0.027134,-0.033499,-0.289055,0.06212146195410986
1757944711.1395473,-0.8408960082361899,1.3101813147322647,2.141639648850118,-0.4801683462100745,0.7477522090839065,-2.810884941980198,0.3463065591683168,7.533004928502472e-17,-2.07528588,-1.23059583,12.54750993,0.027134,-0.033499,-0.289055,0.06398500363592484
1757944711.160458,-0.8359781511794754,1.302517967723971,2.1416393167949774,-0.4801715840694878,0.747757712752795,-2.810884941980198,0.3463065591683168,7.075134877023394e-17,0.27078543,-1.27220004,10.69331202,-0.034161,-0.007451,-0.1562,0.061936580797738394
1757944711.1813898,-0.8413990687157428,1.3109549261410718,2.141638985650406,-0.4800867820765868,0.7476261081541435,-2.810884941980198,0.3463065591683168,6.630559771750543e-17,-0.3409956,-2.24069229,9.890079029999999,-0.000853,-0.017813,0.150851,0.06389488371063172
1757944711.202256,-0.8364244508581489,1.3032032691388609,2.1416386570373698,-0.48008063552016295,0.7476169937652274,-2.810884941980198,0.3463065591683168,6.227509875406817e-17,-0.29878317000000004,-1.95149349,9.77273181,0.01188,-0.025015,0.214074,0.061862663585921435
1757944711.2275846,-0.8355352399347074,1.3018090189052276,2.1416380047313623,-0.4800760001251527,0.7476107050233045,-2.810884941980198,0.3463065591683168,5.4915387796513455e-17,0.7306291800000001,-1.1816439300000001,9.14538231,0.029106,0.035867,1.2e-05,0.061651139708940886
1757944711.2504838,-0.8371432565667972,1.304308461229162,2.1416376808619155,-0.4800809729272951,0.7476189170979817,-2.810884941980198,0.3463065591683168,5.1560956540169684e-17,0.81280755,-0.27513126000000004,9.95265702,0.020601,0.057118,-9e-06,0.062367782089539074
1757944711.2711334,-0.8355106653692335,1.3017614329484715,2.141637358781084,-0.48011290503616083,0.7476691100890265,-2.810884941980198,0.3463065591683168,4.844372250048704e-17,0.54142371,0.87508143,9.54191232,0.031318,-0.012156,-0.029171,0.06180140955176908
1757944711.2964544,-0.8401749169405415,1.3090203644752043,2.1416370373884037,-0.4800730553152235,0.7476075076114862,-2.810884941980198,0.3463065591683168,4.5427639871651054e-17,-0.0779895,2.3396359500000004,9.36378234,0.040423,-0.003377,-0.066008,0.06351214634231465
1757944711.3167424,-0.8378077132545636,1.3053294168104241,2.141636718102138,-0.4800665323323723,0.7475977984866351,-2.810884941980198,0.3463065591683168,4.2645397825598434e-17,-0.6611743800000001,2.5806382200000004,9.445803750000001,0.003613,-0.010158,-0.105071,0.06244343741196235
1757944711.337509,-0.8382316666039503,1.3059851207601287,2.141636400439152,-0.4800551733108601,0.7475805573122648,-2.810884941980198,0.3463065591683168,4.00278056137588e-17,-0.31854051,2.6131191300000003,9.73081368,0.006036,-0.023361,-0.010882,0.06258106998514121
1757944711.3579497,-0.8360713622334558,1.3026164611961824,2.1416360848317844,-0.4800783481432006,0.7476170958918714,-2.810884941980198,0.3463065591683168,3.7604949951907723e-17,-0.41239278,1.91332278,10.134828720000002,-0.016282,-0.01579,0.084458,0.061797329567388634
1757944711.3786967,-0.8390037384307751,1.3071785698393383,2.141635770297592,-0.4800614024114081,0.7475911528903073,-2.810884941980198,0.3463065591683168,3.528563092596984e-17,-0.36104724000000005,1.1587375800000002,9.844727400000002,-0.007174,0.001988,0.082179,0.06293113282002431
1757944711.3995113,-0.836510064821716,1.303290839555595,2.1416354578897643,-0.48008147149365543,0.747622849735391,-2.810884941980198,0.3463065591683168,3.3144831790469603e-17,-0.11945637,-0.11061756,9.97361118,-0.026098,0.000343,0.01809,0.06194877561581166
1757944711.4206364,-0.8383636124654884,1.3061729979973529,2.1416351467584906,-0.48007718984331255,0.747616623663353,-2.810884941980198,0.3463065591683168,3.11098242208795e-17,0.38993769,-1.7491131900000003,10.221941520000001,-0.024097,-0.011057,0.024659,0.06267799692336662
1757944711.441011,-0.8364049308637763,1.303118481128384,2.1416348376529832,-0.48010225890221686,0.7476561028309603,-2.810884941980198,0.3463065591683168,2.922396772664149e-17,0.38993769,-1.7491131900000003,10.221941520000001,-0.024097,-0.011057,0.024659,0.06193293813249615
1757944711.467171,-0.8365459794134239,1.3033296605125675,2.14163422389011,-0.4801185008346466,0.7476822651468649,-2.810884941980198,0.3463065591683168,2.5762575420151475e-17,0.15762708,-1.80075303,9.851162760000001,-0.003867,0.004975,-0.059794,0.06196613808244286
1757944711.4914708,-0.8387037881597966,1.3066858090652242,2.141633919281336,-0.48011154612748613,0.7476718645397671,-2.810884941980198,0.3463065591683168,2.4178348968825538e-17,0.07589016,-1.09631655,9.032665410000002,0.028502,0.07369,0.002974,0.06278996916193877
1757944711.5123615,-0.8366876667334381,1.303541994327712,2.1416336167709797,-0.4801336655142817,0.7477067382247259,-2.810884941980198,0.3463065591683168,2.271112849371963e-17,-0.1038879,-0.61102566,9.84742515,0.028124,0.01526,-0.034501,0.06199741735595646
1757944711.537324,-0.8416345292093896,1.311241577662064,2.141633314995511,-0.4800736451841922,0.7476136858751179,-2.810884941980198,0.3463065591683168,2.129008843464891e-17,-0.18905832000000003,0.47376414,9.65746431,0.037301,0.021847,-0.04614,0.06376324092564306
1757944711.5574715,-0.8366629675574804,1.3034953595603997,2.1416330160423964,-0.4800882093268136,0.747636782450589,-2.810884941980198,0.3463065591683168,2.0001037828711985e-17,0.17258733,1.5320669400000002,10.72100565,0.001191,-0.010833,0.050973,0.06174782328084447
1757944711.577561,-0.8373251551778523,1.3045225577874382,2.141632718691893,-0.480100628948557,0.7476565445161651,-2.810884941980198,0.3463065591683168,1.8784219231244948e-17,0.14654178,2.06839926,9.322011360000001,0.017365,-0.023926,0.088533,0.06212177382784939
1757944711.5975993,-0.8369511957695109,1.3039362129483612,2.141632423092358,-0.4801221205309852,0.7476904342060756,-2.810884941980198,0.3463065591683168,1.7643844369508607e-17,-0.58648104,2.00387889,9.76135221,-0.007509,-0.000258,0.068058,0.062044986857840406
1757944711.6178126,-0.8421452473942389,1.3120209097028483,2.1416321281471067,-0.4800559639983856,0.7475878170842909,-2.810884941980198,0.3463065591683168,1.653780771531962e-17,-0.30431601,1.81078866,9.27306927,0.000448,0.013908,0.019113,0.06388052489171639
1757944711.637912,-0.8371822031642435,1.3042880865989002,2.141631836058372,-0.4800648045604694,0.7476019908995063,-2.810884941980198,0.3463065591683168,1.5534684234429523e-17,0.18800865000000003,1.13957865,9.66166299,-0.008862,0.014842,0.016904,0.06184255733685133
1757944711.6585069,-0.8390405233490326,1.3071781600055272,2.1416315453713564,-0.4800516562157444,0.7475819241820203,-2.810884941980198,0.3463065591683168,1.4581034522397825e-17,0.023504760000000003,0.41853384000000005,9.72287739,-0.010275,0.009318,-0.018775,0.06260945101544213
1757944711.6786237,-0.8377278657660047,1.3051301276991354,2.14163125671305,-0.48005986470677353,0.7475951153171031,-2.810884941980198,0.3463065591683168,1.3693681989781089e-17,0.08622009,-0.3469797,9.4482072,-0.032744,0.032467,-0.015639,0.06211041285490522
1757944711.6987379,-0.8392773971853781,1.3075394001836682,2.141630969461591,-0.4800472651780971,0.74757589993888,-2.810884941980198,0.3463065591683168,1.2852165822035853e-17,0.45085779000000004,-0.81235629,9.70671051,0.003347,0.016748,0.047581,0.06270279939053261
1757944711.7189877,-0.8380105983463073,1.3055628515903495,2.141630684216846,-0.48005422711335427,0.7475871449256669,-2.810884941980198,0.3463065591683168,1.2069055281124101e-17,-0.20103633,-1.6823561400000002,10.004444010000002,0.001533,-0.00554,-0.002813,0.06219568846747718
1757944711.739101,-0.8405514444052858,1.30951596494435,2.1416304001901487,-0.4800219164771737,0.7475372256177498,-2.810884941980198,0.3463065591683168,1.1322046803262446e-17,-0.20971818000000003,-1.43970579,9.59520024,0.025907,0.010879,-0.044417,0.06310700494223899
1757944711.759488,-0.837403304515261,1.3046096761042618,2.1416301186003075,-0.48003698520366,0.7475610882527578,-2.810884941980198,0.3463065591683168,1.0635654415203777e-17,-0.06780672,-1.3257920699999999,10.01118348,-0.005559,0.015188,-0.023856,0.061866544871440485
1757944711.7830904,-0.8451125082846359,1.3166115268907346,2.1416298372545644,-0.47991804144299044,0.747376237882541,-2.810884941980198,0.3463065591683168,9.959652023768652e-18,0.13337676,-0.72254574,10.12239945,-0.046071,-0.033786,-0.028818,0.06460966923704801
1757944711.803326,-0.8400678670315725,1.3087518707612154,2.141629558926393,-0.47988157313095164,0.74731982635817,-2.810884941980198,0.3463065591683168,9.347903832323472e-18,-0.13367106,0.13142457,9.96373251,-0.001078,-0.103306,-0.002154,0.06240421407340751
1757944711.8269157,-0.8375755531557171,1.304863416807694,2.141629008390189,-0.47985987759735776,0.7472868132352264,-2.810884941980198,0.3463065591683168,8.242808817210919e-18,0.09774684000000002,1.5405918299999999,9.36467505,0.014083,-0.009219,0.053653,0.061572731024056214
1757944711.852645,-0.8403360634159968,1.3091588269018137,2.1416287354545265,-0.47984282001285095,0.7472606393370682,-2.810884941980198,0.3463065591683168,7.735734752356963e-18,-0.33978897,1.6986701700000002,9.59384646,0.023515,0.025319,0.023639,0.06272219953538981
1757944711.87328,-0.8376750691018001,1.305011353359338,2.1416284647589583,-0.4798680323631979,0.7473002898788388,-2.810884941980198,0.3463065591683168,7.267928259494312e-18,-0.09056592000000001,1.64926701,9.21633804,0.009917,0.024186,0.000112,0.06174325295960441
