timestamp,time_rel,x,y,theta,vx,vy,bias_accel_x,bias_accel_y,bias_angular_velocity,accel_x,accel_y,accel_z,gyro_x,gyro_y,gyro_z
842475.377048,0.0,-0.0021877133455062846,0.0039636993296166744,0.13332006544441732,-0.1400891409561649,0.11636471952694294,8.004263298239499e-05,-0.0001450212530561907,0.003567391154661072,-9.4279986,-0.14818986,-2.69364942,0.011009,0.022216,0.004617
842475.397035,0.01998700003605336,-0.006225585714751917,0.009871593390970814,0.2530067389687747,-0.18461877264657411,0.15170528706664457,0.00018541849490992228,-0.00038820296730004544,0.0035354809628492896,-9.43233462,-0.23980545,-2.71924371,0.006935,-0.000348,0.003686
842475.417022,0.0399739999556914,-0.01062153207223237,0.016207612436259424,0.3612322949997031,-0.18023400958421076,0.15521199622339632,0.00031133563344962466,-0.0007227907144531727,0.0035796513313499836,-9.52125246,-0.23964849,-2.6846634600000003,-0.001753,0.001578,0.003886
842475.437008,0.05995999998413026,-0.014875168805452301,0.02255854432094645,0.45896135433599694,-0.14853407544174166,0.1499541365831793,0.00046302144192380146,-0.0011485005020783086,0.0034587705071853297,-9.41362695,-0.22872015,-2.76684183,0.001472,-0.003957,0.003308
842475.456995,0.07994700002018362,-0.01881233041541681,0.028890169077043386,0.5468728181692519,-0.0999116300613454,0.14221718494816396,0.0006473539384360221,-0.0016677249013394722,0.0034900454254533334,-9.46332441,-0.2257281,-2.70951219,0.005903,-0.004082,0.003882
842475.476982,0.09993400005623698,-0.0223664815142526,0.03520111378154958,0.6256883424528796,-0.04139592280465685,0.13728998246778065,0.0008703004442549871,-0.002281845697998237,0.0034382219456597766,-9.47708784,-0.26853894,-2.63556441,0.002198,0.005484,0.003453
842475.496969,0.11992099997587502,-0.025507204307743968,0.04154053559698245,0.6961642850917511,0.019534854483171552,0.13693577685103892,0.001133839683180559,-0.0029902537217453644,0.0033670523176243697,-9.4049451,-0.20926692,-2.75157747,0.004379,0.002117,0.003231
842475.536942,0.15989400004036725,-0.030852546671267318,0.054458699826122524,0.7575223297040958,0.18283546977323933,0.039159690690596126,0.001479999429482336,-0.004128796241941409,0.003421771709182539,-9.45972414,-0.25327458,-2.68226982,0.001029,-0.001756,0.004182
842475.536942,0.15989400004036725,-0.034238651211558176,0.0572562952718677,0.8131596684172449,0.12212939965027059,0.16631406872552457,0.0018379916485274674,-0.004964555665886589,0.0034680998766612246,-9.45972414,-0.25327458,-2.68226982,0.001029,-0.001756,0.004182
842475.576916,0.19986799999605864,-0.03752099030560947,0.07029320001441995,0.8618669537061043,0.2951512664227805,0.08119676014228677,0.0022698670352907023,-0.006259804455038699,0.0034869459341309588,-9.46093077,-0.2430918,-2.66834943,0.002053,0.000246,0.004055
842475.576916,0.19986799999605864,-0.04220077676604337,0.07261373618924835,0.9067066639088175,0.21908362704163056,0.19831029874077882,0.0027018333903504376,-0.007227224453361532,0.003505141288592565,-9.46093077,-0.2430918,-2.66834943,0.002053,0.000246,0.004055
842475.616889,0.23984100006055087,-0.04361781230922528,0.08611529736028833,0.9462306570485479,0.3933759308300132,0.12637102166585734,0.003197499151237931,-0.008673916701563969,0.0034065248277224563,-9.43353144,-0.2254338,-2.7559233,0.00429,-0.002273,0.002736
842475.616889,0.23984100006055087,-0.04960873673697314,0.08803054029401353,0.9832157977155793,0.30298252175999985,0.2349076616335762,0.0036840128733917846,-0.00976435127955822,0.003325206323203742,-9.43353144,-0.2254338,-2.7559233,0.00429,-0.002273,0.002736
842475.656863,0.27981500001624227,-0.05991943232691427,0.10801623465196772,0.9941633911222816,0.3542315572903588,0.2239574937682042,0.004254206249897426,-0.012325217817247191,0.003370833045678767,-9.4453623,-0.24249339,-2.69350227,0.003483,0.00108,0.004239
842475.656863,0.27981500001624227,-0.0618896902745118,0.10668856131414099,1.0354571953570133,0.31059885045799424,0.3016305578229347,0.004751318788267189,-0.01305923539542348,0.0033959493153741336,-9.4453623,-0.24249339,-2.69350227,0.003483,0.00108,0.004239
842475.696836,0.31978799996431917,-0.06638205575518173,0.12363639392964422,1.053761652638773,0.41640654178418124,0.2657069129345252,0.005316744323560325,-0.015342457423561995,0.003418443477260467,-9.46376586,-0.2456424,-2.68870518,0.000811,0.001313,0.004092
842475.716823,0.33977500000037253,-0.06899558922694307,0.13043762879299275,1.0801960890615945,0.41728970822175904,0.2980655309134744,0.005886099949099863,-0.017149077502538884,0.0034571219803346395,-9.45583938,-0.22273605,-2.70742266,0.005401,-0.000739,0.0045
842475.73681,0.3597620000364259,-0.06974954196302317,0.1362282110941163,1.107549982515648,0.43179082647499695,0.3222946506630281,0.006480275534332327,-0.018852819199038317,0.0034629696854071605,-9.43592508,-0.21046374,-2.71984212,0.00401,-0.002713,0.004015
842475.756797,0.3797489999560639,-0.06959612683574744,0.1414894618660932,1.1342945329881955,0.4484467160126025,0.34397652820345187,0.007098571214871173,-0.020562489496387622,0.0034632655113387137,-9.47349738,-0.23755896,-2.68212267,0.001881,0.002135,0.00393
842475.776783,0.3997349999845028,-0.06895139408441404,0.14649954994518466,1.1601483647767958,0.4623568907226879,0.3653426917726396,0.007736611495746011,-0.02230962117629066,0.0035233099461700217,-9.4598811,-0.24354306,-2.7129555000000005,0.003329,-0.002369,0.00511
842475.776783,0.3997349999845028,-0.07210208867494979,0.1432343470420663,1.1877835259172294,0.37990303422621896,0.4262849089504315,0.008362412395707583,-0.02334527018337782,0.003575171060653546,-9.4598811,-0.24354306,-2.7129555000000005,0.003329,-0.002369,0.00511
842475.776783,0.3997349999845028,-0.07339286879357723,0.1393302051772657,1.2152141969352508,0.3265809514290639,0.4706540195239154,0.008980407816345747,-0.02406158709745103,0.003621956360337439,-9.4598811,-0.24354306,-2.7129555000000005,0.003329,-0.002369,0.00511
842475.836744,0.45969599997624755,-0.06982316392485796,0.16555276186468854,1.2339682462964507,0.5753134216138682,0.40008961197861725,0.00966911820435467,-0.027025788314236947,0.003561915118539999,-9.446255010000002,-0.22737618,-2.71520199,0.00365,-0.001135,0.002622
842475.85673,0.4796820000046864,-0.07092140236456371,0.17113952028779322,1.255594311692037,0.5289524192972025,0.43918670503582014,0.010345103958342712,-0.029403022679612367,0.0035741597641815604,-9.44685342,-0.22393287,-2.7243351,0.002427,0.001811,0.004292
842475.876717,0.4996690000407398,-0.07152089868015309,0.1769787215403567,1.2772021706181285,0.5066741117709062,0.47104113557518534,0.011022055773542426,-0.03154073327151048,0.003605110176840025,-9.46332441,-0.23980545,-2.68900929,0.003265,-9.3e-05,0.004801
842475.896704,0.5196559999603778,-0.07191493497453764,0.18300559862244856,1.2981554618286903,0.4941426051559558,0.49829220442965555,0.01170145717180838,-0.033570748874665095,0.003643031912496436,-9.45254322,-0.21330864,-2.7184981500000003,0.00344,-0.001643,0.005048
842475.916691,0.5396429999964312,-0.07226874183877695,0.18919938076750292,1.3183018014069967,0.48591192582147247,0.5233475649516112,0.012382729827522513,-0.03555022643835834,0.0036422169492116353,-9.4453623,-0.2282787,-2.7039793500000004,0.002671,0.001411,0.004121
842475.936677,0.55962900002487,-0.0726859732410259,0.19557350919955685,1.3376926257751585,0.4796051143309936,0.5467462259152063,0.013065825050678721,-0.037506568635247865,0.003637796643258004,-9.45897858,-0.2282787,-2.69214849,0.004332,-0.00081,0.004028
842475.956664,0.5796160000609234,-0.07321764907194574,0.20213259392995567,1.3563848184250737,0.4736162218901903,0.5690981223051538,0.013749843178456239,-0.03945118633718169,0.003655382515654737,-9.44460693,-0.23036823,-2.71445643,0.000329,5.3e-05,0.004633
842475.976651,0.5996029999805614,-0.0739108323676589,0.20888042009279081,1.374386766072619,0.4677466588519216,0.5904865925654547,0.014433469843036681,-0.04139019802574463,0.0035894350748422476,-9.45074799,-0.22722903,-2.70502902,0.003642,-6.2e-05,0.002287
842475.996638,0.6195900000166148,-0.0747737103273636,0.2158272359611144,1.391792417201124,0.46114680869488534,0.6100547714104353,0.015114735148837165,-0.04332492757631039,0.0035884206854523574,-9.42680178,-0.16390548,-2.721195900000001,-0.001232,-0.008781,0.004075
842476.016625,0.6395770000526682,-0.07585783063001483,0.2229238381768204,1.408638637247769,0.45545401593201174,0.6297751009149424,0.015795080896371053,-0.04526019978958531,0.00365920254373476,-9.489811410000002,-0.22034241,-2.66970321,-0.003017,-0.001077,0.006243
842476.036611,0.6595629999646917,-0.07713215892710998,0.23018449795595555,1.424938816922392,0.44871072740252,0.6486521513976526,0.0164733524243268,-0.04719362717973879,0.0036926748219875704,-9.45269037,-0.20327301,-2.72223576,0.008812,0.007552,0.005218
842476.056598,0.6795500000007451,-0.07859209111768914,0.23758421206158076,1.4407762075925215,0.44078026768460693,0.6675629255814592,0.01715016126265212,-0.04912121226260836,0.0038057693977321533,-9.38039067,-0.23516532,-2.75996502,0.00598,-0.002698,0.007815
842476.076585,0.6995370000367984,-0.080305814887246,0.24513131131477442,1.4561122180882267,0.4347965070755226,0.6847260323780611,0.017824352687264074,-0.051052340690619466,0.003880046008439044,-9.52214517,-0.19444401,-2.64993606,3.7e-05,0.000463,0.006754
842476.096572,0.7195239999564365,-0.08219996679736827,0.25277650275979374,1.4709770603620314,0.42728541576876145,0.7025878845786641,0.018496982284776902,-0.052981020081463014,0.003864614315724639,-9.446255010000002,-0.25686504,-2.68482042,0.000201,0.000108,0.003893
842476.116558,0.7395099999848753,-0.08428807459884342,0.2605503811565442,1.4854128305593823,0.4193328158252243,0.7186316115431799,0.019166094675440636,-0.05490672836682135,0.003829134812091426,-9.43323714,-0.19414971,-2.7276312600000003,0.004247,0.004733,0.003182
842476.136545,0.7594970000209287,-0.08656193490719864,0.26835911673927715,1.4995054381668895,0.4109713412992418,0.7372880280904401,0.01983629798929641,-0.05682690960742542,0.003933845614386246,-9.39131901,-0.38036313,-2.67164559,0.000111,0.005316,0.008021
842476.156532,0.779484000056982,-0.08905423166662525,0.27631255014786194,1.5132504538033693,0.40414033804725524,0.7512983154521823,0.020502145365905902,-0.05875005795862897,0.004185350134024203,-9.51302187,-0.18427104,-2.7268758900000005,0.016504,0.007824,0.013446
842476.176519,0.7994709999766201,-0.09170637727468749,0.2843173070837759,1.5265451388928888,0.395429774124003,0.7660566203025504,0.021164628428535212,-0.060669090691187706,0.004130293134827021,-9.40898682,-0.23830452,-2.79993096,0.012235,-0.006001,0.002712
842476.216492,0.8394440000411123,-0.09375794393711533,0.3069722927518286,1.538206293191796,0.47342703472936387,0.7847876265628484,0.021856691748363643,-0.0635682883493496,0.004334018529495208,-9.39131901,-0.44382402,-2.75652171,0.036158,0.000404,0.012073
842476.236479,0.8594309999607503,-0.09899217302473107,0.31469646749768165,1.5504480121403539,0.4200997058536664,0.8037675754431218,0.0225414709902597,-0.06591597695345046,0.004063512693392241,-9.37979226,-0.5029587000000001,-2.68257393,0.017685,-0.026955,-0.005344
842476.256466,0.8794179999968037,-0.10370340695473992,0.32250067371724606,1.5627603257244642,0.39109794065886866,0.8206937762277988,0.02322515902240363,-0.06803171316501584,0.003946310845686269,-9.44311581,-0.4975632,-2.6984367,-0.013769,-0.007557,0.000104
842476.276453,0.8994050000328571,-0.10815010650916956,0.3303479124915178,1.5748142916644348,0.3740570683490452,0.8341328594110091,0.02390680044145162,-0.07004597432950914,0.0036572345315418384,-9.545797080000002,-0.38065743,-2.55473982,-0.04606,0.000359,-0.006804
842476.296439,0.9193910000612959,-0.11243065341920071,0.3382008925757352,1.5865837066658521,0.3614531390593865,0.845431719456869,0.0245857332239138,-0.07201119079180543,0.0031991920156668285,-9.5321808,-0.30641535,-2.63422044,-0.051814,0.011995,-0.014012
842476.296439,0.9193910000612959,-0.11858838775737134,0.33083396084251404,1.599604579916913,0.2529073704119097,0.8514224225384612,0.025235610620720203,-0.0731496223225097,0.0027610677881509437,-9.5321808,-0.30641535,-2.63422044,-0.051814,0.011995,-0.014012
842476.336413,0.9593650000169873,-0.12220026116273737,0.3550280831133175,1.6100273191718948,0.38283046840362206,0.8683082913990631,0.02591620449859481,-0.07553073973558304,0.0026590609903077668,-9.43443396,-0.29788065,-2.73107457,-0.041085,0.01249,-0.000952
842476.336413,0.9593650000169873,-0.1289925427659688,0.3471560783092105,1.6222308832019436,0.25806460392486036,0.8700077337380091,0.026560787290379886,-0.07682785621110436,0.0025583002707326393,-9.43443396,-0.29788065,-2.73107457,-0.041085,0.01249,-0.000952
842476.3564,0.9793520000530407,-0.13211741842944016,0.3553632018808589,1.633401073422153,0.28277646990033817,0.8803141779995384,0.027203482842460224,-0.07839314706703679,0.002155645533283865,-9.40135464,-0.23545962,-2.65607712,-0.066926,0.001898,-0.014073
842476.3564,0.9793520000530407,-0.13663467901854282,0.3477682124363021,1.6455036541374213,0.19156828167807624,0.8809563560474193,0.027820145681407775,-0.07935870722071212,0.001769680957137507,-9.40135464,-0.23545962,-2.65607712,-0.066926,0.001898,-0.014073
842476.41636,1.039312000037171,-0.14459997076628997,0.38872350769142017,1.653710178646043,0.4178382039683754,0.9075895430410723,0.028478766071050612,-0.08263503668140831,0.0019008179595136924,-9.4516407,-0.21450546,-3.1763995200000004,0.006428,-0.033686,0.007814
842476.436347,1.059298999956809,-0.15146344895804967,0.39593736025484333,1.6633692172240337,0.35443051650364493,0.9068560589486554,0.029106631827379176,-0.0851406871755953,0.0023939638648706593,-9.72782163,-0.07139718,-2.68736121,0.005485,-0.012096,0.024178
842476.456334,1.0792859999928623,-0.15758030940839501,0.40328736133354065,1.6730368754162326,0.3205653703674882,0.9133334251307587,0.029720632628471282,-0.08733870494123466,0.002279784616141186,-9.67842828,-0.27273762,-2.63332773,-0.008677,-0.002293,-0.002225
842476.47632,1.0992720000213012,-0.16308505745983498,0.410723739645568,1.6827115513893354,0.2950393079462298,0.9196568281033431,0.03032415778791565,-0.08937547518238081,0.0022659165018315314,-9.28159416,-0.25626663,-2.9773055700000004,0.014957,-0.015992,0.002166
842476.496307,1.1192590000573546,-0.16831857438399936,0.41824188093087256,1.6922681519421428,0.2778656006030621,0.9223278674228403,0.030914215786696675,-0.09133142292637984,0.002292502154198282,-9.26812503,-0.03398184,-2.80142208,0.011268,-0.051714,0.00401
842476.496307,1.1192590000573546,-0.1739493374751307,0.4094284316889495,1.702788021180191,0.17088975971478262,0.915358717096861,0.03147773395960297,-0.09245866125874361,0.002315767151482411,-9.26812503,-0.03398184,-2.80142208,0.011268,-0.051714,0.00401
842476.536281,1.159233000013046,-0.1800260337256743,0.4344815440740258,1.7103634275971986,0.2996284382773028,0.9255835224554558,0.03203641020579804,-0.09481256099357431,0.0017638117981761438,-9.327406860000002,0.2630061,-2.5038455400000004,-0.088876,-0.155124,-0.023272
842476.556268,1.1792200000490993,-0.1856337070228925,0.4417084931390132,1.7187266821976301,0.26958028047320987,0.9259340484276426,0.032580256546107814,-0.09691335191272825,0.0009315537139228028,-9.33803109,0.07499745,-2.62539144,-0.146406,-0.239241,-0.037464
842476.576254,1.1992059999611229,-0.19095273216781045,0.4489698857099934,1.726322860066971,0.24824349355867706,0.9305691948926779,0.03311879471858531,-0.09888203206989736,0.0009209976587220204,-9.13206033,-0.09071307,-2.6661029400000005,-0.201708,-0.328383,-0.066197
842476.576254,1.1992059999611229,-0.19626936253936753,0.4398605819438349,1.736240296334028,0.1416774591645362,0.9212664863322587,0.033639695326758486,-0.10000977898140408,0.0009082026845856271,-9.13206033,-0.09071307,-2.6661029400000005,-0.201708,-0.328383,-0.066197
842476.616228,1.2391800000332296,-0.20304642482161406,0.464279892089183,1.742022143561904,0.2686737563269129,0.9588088130658848,0.0341872982254943,-0.10235957478482358,0.0008989033407476415,-9.38608047,-0.36090009,-2.90785077,-0.275377,-0.391758,-0.05267
842476.636215,1.2591669999528676,-0.20886530953831003,0.4712088062646891,1.7498401677071014,0.23786223015238342,0.9631431929927731,0.034728360185916005,-0.1044528660465649,-0.0001473847791373462,-9.31947057,-0.31898196,-2.7981357300000003,-0.27006,-0.474329,-0.047738
842476.656202,1.279153999988921,-0.21439804871189794,0.47820460197673564,1.7569041962747276,0.21766339150056063,0.9692887417852561,0.03526621358831776,-0.10641695069243105,-0.0001578620078178423,-9.2085489,-0.36898353,-2.75636475,-0.295041,-0.627621,-0.065307
842476.676188,1.2991400000173599,-0.21984803539870598,0.4853360483624299,1.7640905958801385,0.20513115243259863,0.9694501351566454,0.03579155102369718,-0.10831962834802375,-0.00016848313077858485,-9.22097817,0.00628821,-2.6746376400000003,-0.261558,-0.72854,-0.055375
842476.696175,1.3191270000534132,-0.22530102156062592,0.4923437687480679,1.7717881437483838,0.1957340982994294,0.9733426131121178,0.036308852810669645,-0.11019708012595537,-0.0011024103930207842,-9.28668555,-0.14759145,-2.10896361,-0.291339,-0.82714,-0.043254
842476.716162,1.3391139999730512,-0.23069803350970527,0.49928236163929507,1.7793359673689686,0.1871258588033082,0.9777293258538674,0.0368212735338656,-0.11205857566517283,-0.002041208292043621,-9.25360623,-0.18681183,-2.64125421,-0.259685,-0.939532,-0.044954
842476.736149,1.3591010000091046,-0.23591141240417848,0.5061394137826637,1.7868796893919008,0.17274400306440738,0.9841270916575896,0.037332028975079444,-0.11388634124119414,-0.0027342904522010903,-8.82759717,-0.39787398,-2.35819647,-0.264395,-1.094989,-0.034676
842476.756136,1.379088000045158,-0.24120368891324165,0.5130269551872022,1.7945209667519055,0.16394351927621667,0.9856462047503362,0.03783652769172196,-0.11570102273015585,-0.003025969825928542,-8.98521444,-0.11496339,-1.9871136,-0.265319,-1.238576,-0.016347
842476.776122,1.3990739999571815,-0.2465879095842562,0.5198297082295437,1.8021737490587348,0.15893687999883502,0.9873168835681414,0.03833524895977461,-0.11751946211594988,-0.003112158473061443,-9.19298043,-0.08157996,-1.4468867100000002,-0.278392,-1.322081,-0.006754
842476.796109,1.4190609999932349,-0.2519675254011275,0.5265195104410231,1.8100116618192184,0.1529987398767507,0.9905173467063827,0.038832795099347964,-0.11933997077522775,-0.00274318824579692,-9.17786322,-0.18695898,-1.12012542,-0.293327,-1.48143,0.015603
842476.816096,1.4390480000292882,-0.2573605968539441,0.5330554980760526,1.8180284578256787,0.14615166705649138,0.9971950179832125,0.039334732040326996,-0.12116327233425389,-0.001968776316899498,-9.19582533,-0.41194152,-0.88914897,-0.322677,-1.555688,0.036406
842476.85607,1.4790219999849796,-0.26668873902143736,0.5564875522353695,1.827552546695829,0.2292447171750432,1.0341443303169673,0.039878235448400676,-0.12400837379768231,-0.001975285195197786,-9.62962353,-0.55489284,-0.12917808,-0.295962,-1.593431,0.091162
842476.85607,1.4790219999849796,-0.273234924419325,0.5443845245328395,1.8357357397857434,0.09415010309596557,1.0008425875726683,0.04037123794011356,-0.12545717882461427,-0.0019861701968845063,-9.62962353,-0.55489284,-0.12917808,-0.295962,-1.593431,0.091162
842476.896043,1.5189950000494719,-0.273823577809535,0.5719994444098786,1.8702500386915428,0.504712693213037,1.1194615489116153,0.04085259557808363,-0.1264012286271549,-0.0020003821670653687,-13.25343753,0.00059841,2.28230631,-0.099601,-1.149212,0.613949
842476.896043,1.5189950000494719,-0.27629669378600313,0.561162270139608,1.879082335833064,0.4346753724491169,1.1057962880103884,0.04126660863390363,-0.1272178458664553,-0.002012270618402076,-13.25343753,0.00059841,2.28230631,-0.099601,-1.149212,0.613949
842476.936017,1.5589690000051633,-0.28687963115908544,0.581069254928953,1.8748264328059365,0.3798617278267851,1.0617402867160863,0.04156990760873916,-0.13200518155752533,-0.0011568366631293015,-10.69436169,0.10328949,-0.18576216,-0.041652,-0.581716,0.038579
842476.956004,1.5789560000412166,-0.29836918660696626,0.5841497030311711,1.8773371700091186,0.2736248018568795,1.0226948147539365,0.04189776537244019,-0.13517695959096926,-0.0009069805042499633,-10.63478556,0.3930867,0.24354306,-0.010614,-0.44987,0.011078
842476.97599,1.5989419999532402,-0.3076513317856789,0.5884570481776749,1.882053892811192,0.21448356907463814,1.0076261427170652,0.04223576189583112,-0.1377401458868487,-0.0005920937900393544,-10.1456001,0.17198892,0.42750999,0.00372,-0.417235,0.014835
842476.97599,1.5989419999532402,-0.3142998806638737,0.5763759974620535,1.888703018441726,0.08537603296973925,0.9757925194043835,0.04258282914663808,-0.1391391364498648,-0.0002936619110863544,-10.1456001,0.17198892,0.42750999,0.00372,-0.417235,0.014835
842477.015964,1.6389160000253469,-0.3244083194287643,0.5992459568014376,1.8939971717525115,0.19389606795101932,1.0106708080114726,0.042923385002748234,-0.14177134541113137,0.00019998293366887233,-9.69338853,0.14160735,0.78481962,-0.007149,-0.514298,0.024723
842477.035951,1.6589030000614002,-0.33164759717452086,0.6040697990558983,1.8997550509519288,0.15108738010455644,1.006304815919952,0.04326946999214932,-0.14403717979558897,0.0009994453617006046,-9.58546872,-0.1679472,0.8689403700000001,-0.055631,-0.652415,0.041024
842477.055938,1.6788899999810383,-0.338317029979012,0.6090789227235739,1.9058263074856416,0.12462827890933063,1.006609286487002,0.04361806956493327,-0.14612928244796553,0.0019546619938700903,-9.55897191,-0.1764819,0.8385588,-0.091586,-0.787537,0.050206
842477.075924,1.6988760000094771,-0.344705347763852,0.6142062374049748,1.9118667895739083,0.11031158087644603,1.0063646769677659,0.04396265124162752,-0.1481434638082478,0.0028108604550404442,-9.73275606,0.03008727,0.90531585,-0.088184,-0.862072,0.046517
842477.095911,1.7188630000455305,-0.35084599456599913,0.6193651830260352,1.9177531499105092,0.0999450909416735,1.0064738650193967,0.04430132585658192,-0.15011665419920017,0.0034687049957010307,-9.71899263,0.07244685,1.0553009400000002,-0.053998,-0.913154,0.037445
842477.095911,1.7188630000455305,-0.3542397598721878,0.6075403741382249,1.9242251614125028,-0.002487514328648276,0.9765142231206759,0.04463294663866594,-0.15125503753546152,0.0040998227598199235,-9.71899263,0.07244685,1.0553009400000002,-0.053998,-0.913154,0.037445
842477.135885,1.758837000001222,-0.3643513565660099,0.630301943788766,1.9289910258486156,0.12184898100035944,1.0286350238071649,0.04496957538213705,-0.15365118489640486,0.004278750059011267,-9.62722989,-0.10568313,1.40961852,0.019363,-1.029014,0.013853
842477.155872,1.7788240000372753,-0.3706416200376818,0.6350728015072246,1.9340658552100845,0.09145209790758968,1.023616278404798,0.04530345426180597,-0.15578172928839595,0.004361407649074752,-9.50329035,-0.12424365,1.7610912000000003,0.045594,-1.076813,0.009021
842477.175859,1.7988109999569133,-0.3767108918397792,0.6398864983786012,1.9392796319890167,0.07111334946936311,1.0242414766979793,0.0456373224467651,-0.1577820267559796,0.004405010373628726,-9.41721741,-0.23920704,2.01496419,0.042524,-1.144667,0.007054
842477.175859,1.7988109999569133,-0.3796756723022612,0.6275698492925716,1.9456816847956162,-0.030742136673530457,0.9904759346625902,0.045959674015194074,-0.15892332781221605,0.004444816328841507,-9.41721741,-0.23920704,2.01496419,0.042524,-1.144667,0.007054
842477.215832,1.8387840000214055,-0.3902145014634275,0.6506000440749404,1.9494860180961417,0.0856498599209669,1.0310243042575695,0.046276786729441854,-0.16125461178126688,0.004084512885310049,-9.18145368,0.17124336,2.70053604,0.116133,-1.200541,-0.014967
842477.235819,1.8587710000574589,-0.3967559974166155,0.6552254412827312,1.9553637771603007,0.06881619852002419,1.0166925357587193,0.04657691014070809,-0.16335883200262766,0.00407880234089861,-9.83410317,0.57914316,2.94752241,0.148845,-1.08301,0.057733
842477.255806,1.878757999977097,-0.4029520402697013,0.6598497595811997,1.9585904469028748,0.054111955207931134,1.0144168526934614,0.04686864420008199,-0.16534299799028807,0.004072629906537364,-9.54519867,0.11032326,2.65697964,0.172112,-1.084351,-0.086491
842477.275793,1.8987450000131503,-0.4090793278873923,0.6643871812373131,1.9636235553905577,0.050215665182248764,1.0170459613538256,0.04715823676260027,-0.1672976342559352,0.00417891678535585,-9.99126918,0.0378666,3.2527311300000004,0.1753,-0.965472,0.010136
842477.295779,1.9187310000415891,-0.4145913032794132,0.6692494403987728,1.9672763158653614,0.025149249097351584,1.0090803011209093,0.04743931472222334,-0.1691413961117589,0.0041724692936669664,-8.24664897,0.1583726399999999,3.77290638,0.150767,-0.882562,-0.070439
842477.295779,1.9187310000415891,-0.4167275423993593,0.6569090179047928,1.9734129727906495,-0.06959717992426047,0.9759393614164119,0.047715960920568325,-0.170205908162322,0.004164042923946022,-8.24664897,0.1583726399999999,3.77290638,0.150767,-0.882562,-0.070439
842477.335753,1.9587049999972805,-0.4274806450960581,0.6794645357408046,1.9765567643389268,0.036446366453192346,1.0157033703599836,0.04798226137116227,-0.1723823558650129,0.003385846939696994,-8.541537570000001,0.22632651,4.000733820000001,0.152269,-0.890818,-0.036951
842477.35574,1.978692000033334,-0.43364724370530744,0.6837714405721187,1.9816772527643254,0.01819398670031996,1.006339335695941,0.048244875050341036,-0.1743453546647143,0.003932541801590135,-9.14088933,0.31434183,4.62493431,0.140874,-0.819383,0.033035
842477.375727,1.998678999952972,-0.4394018490237241,0.6879965754819134,1.986609615926123,-0.005613168440648884,1.0070187087982743,0.048511584215923075,-0.17617360315947178,0.003810282763189646,-8.40382479,-0.28620675,4.90964013,0.091491,-0.821571,-0.002335
842477.395714,2.0186659999890253,-0.444970559339779,0.6921537162319376,1.9918805473043246,-0.023407421255783,1.0133537773362595,0.04878955916122916,-0.17793017419012638,0.004241153003069796,-8.438699340000001,-0.54022689,5.038072650000001,0.047931,-0.803208,0.027639
842477.4157,2.038652000017464,-0.4505778671871334,0.6962498867645398,1.99709079024871,-0.03215000055227996,1.0213447181722106,0.04907556631401039,-0.1796690427658331,0.004668790753692091,-8.8066332,-0.5089428,4.73660154,0.017867,-0.76921,0.028067
842477.435687,2.0586390000535175,-0.4560588000273447,0.700547894101938,2.0025026099795733,-0.04086442257660784,1.017753087643141,0.04935696225363122,-0.18137848558099773,0.005432552789309569,-8.422983720000001,0.01616688,4.69768527,0.005525,-0.769477,0.047261
842477.455674,2.0786259999731556,-0.46160090657870534,0.7048130072682084,2.0077759356117237,-0.04503197494618544,1.0126630886389838,0.049627797601719655,-0.18307771809064263,0.005996864857554249,-8.546177700000001,0.22048956,4.724623530000001,0.011614,-0.77698,0.037214
842477.475661,2.098613000009209,-0.46705359173953465,0.7089835224187513,2.013042233348532,-0.051033795039230126,1.0096281989417208,0.049890659221751545,-0.18476385658629685,0.006623039345245807,-8.44034742,0.09894366,4.67568144,0.011885,-0.812623,0.041464
842477.495648,2.1186000000452623,-0.47247312200458386,0.7130968548239807,2.018278668355201,-0.05697190876483676,1.0065775784348756,0.050145317060087014,-0.18643800010165934,0.0072687210281263,-8.382870630000001,0.11346246,4.80904839,0.009008,-0.867409,0.043426
842477.495648,2.1186000000452623,-0.47325483221657555,0.7002582812649527,2.0238164957603626,-0.14045600130810076,0.9708499673476603,0.05038737590208924,-0.18741107084395073,0.007890564376507845,-8.382870630000001,0.11346246,4.80904839,0.009008,-0.867409,0.043426
842477.515635,2.1385869999649003,-0.47779881796307344,0.7051522185169378,2.029358829750823,-0.10927954101759232,0.9843649830440561,0.050623264636623554,-0.1886742801983962,0.00842070000480358,-8.316103770000002,0.20462679,4.94721243,0.019137,-0.905706,0.038907
842477.535621,2.158572999993339,-0.48241431328140694,0.7098961401645908,2.034540418753516,-0.09571474769914821,0.988863853561288,0.050850180501353454,-0.19010652381189933,0.008941912076902576,-8.18991774,0.23845167,5.13791883,0.032954,-0.930308,0.039066
842477.535621,2.158572999993339,-0.4822494610387857,0.6977206451582879,2.0399315610851296,-0.16908214228398158,0.9568382255574578,0.051067496185041,-0.19097307326854696,0.009444458558510024,-8.18991774,0.23845167,5.13791883,0.032954,-0.930308,0.039066
842477.535621,2.158572999993339,-0.48085670176040785,0.6864692164795128,2.0455459702288206,-0.21770367032537236,0.9365089343484899,0.05127869960132771,-0.191571709868239,0.009930143890775626,-8.18991774,0.23845167,5.13791883,0.032954,-0.930308,0.039066
842477.615569,2.2385210000211373,-0.5125213970815209,0.7389918644648992,2.0489627495821967,0.010153135605666129,1.0397125288929503,0.05148857255443644,-0.1948755362633278,0.010358498860931447,-7.53039144,0.11465928,6.13184841,0.059434,-0.941249,0.034958
842477.635556,2.2585080000571907,-0.5210566517318935,0.7408046073377786,2.0526728041341524,-0.056508636210296274,1.0103729855031172,0.051676982634965486,-0.1971165701328752,0.010354978612788947,-7.97361705,-0.02575125,5.930517780000001,0.091712,-0.953448,0.010387
842477.655542,2.278493999969214,-0.5281556033325585,0.743434832037624,2.057190626710856,-0.09727745293608012,0.9928257342763506,0.05185928229752056,-0.19893108116981248,0.010614590329292975,-7.21768788,0.03697389,6.07586274,0.077737,-1.033169,0.025959
842477.695516,2.318468000041321,-0.5413596885468344,0.7638951430862454,2.0606495821814423,-0.0700369859625288,0.976925186626935,0.051993822420740535,-0.20121247401238054,0.010463339953317495,-6.4204488,0.8541272700000001,6.5848055400000005,0.236137,-0.949083,0.001982
842477.695516,2.318468000041321,-0.5435907039184452,0.7496995882027682,2.066104724703729,-0.17003505798374996,0.9328834469270789,0.05212986679280694,-0.20235153998193525,0.01031436250452787,-6.4204488,0.8541272700000001,6.5848055400000005,0.236137,-0.949083,0.001982
842477.73549,2.3584419999970123,-0.5569338780237122,0.768754127259742,2.06876591384518,-0.10034820725370786,0.9700472330414869,0.05225452851166153,-0.20431811489713744,0.009586425785659634,-7.1757795600000005,0.17244018,6.4173096,0.26526,-1.046389,-0.032512
842477.755477,2.3784290000330657,-0.5632776373160843,0.7711313448510889,2.073309389375832,-0.1331619750789779,0.9484277574654267,0.052370250394157394,-0.20593379550901666,0.009559355168357044,-6.4436494500000006,0.5601313800000001,6.82909416,0.256721,-1.112094,0.008291
842477.775463,2.3984150000615045,-0.5689509381876832,0.7737020837902857,2.078413411796719,-0.15509369149668717,0.9346747355189668,0.052479738870046526,-0.20737570543537373,0.010080155893289845,-6.22165896,0.46118772,6.68554443,0.243192,-1.25206,0.04104
842477.775463,2.3984150000615045,-0.5685104985770153,0.7604402057179165,2.083740777428794,-0.2257722722131652,0.9038482851339874,0.05259501198247056,-0.20819928994242204,0.010582785652488581,-6.22165896,0.46118772,6.68554443,0.243192,-1.25206,0.04104
842477.79545,2.4184019999811426,-0.5730274245418396,0.7638750170168455,2.0900737132517975,-0.20663104532868343,0.9082890526035141,0.05269507999539589,-0.20922315736739713,0.010576741420876055,-6.3141672600000005,0.6354329400000001,5.79130407,0.285775,-1.337963,0.075564
842477.835424,2.4583760000532493,-0.5848150241261549,0.7832526271934191,2.0970573661165357,-0.15782593290771504,0.9163716359771512,0.052758036055412134,-0.21089634732955898,0.010572310229744834,-5.61168297,0.63198963,7.17068817,0.340864,-1.53481,0.087179
842477.855411,2.4783629999728873,-0.5863271492404203,0.7882286630815717,2.1100364571797936,-0.11124871396785754,0.9555780911324472,0.05296973869489384,-0.21130144228308986,0.010558796940432184,-5.16157074,0.26465418,7.665406470000001,0.315502,-1.631266,0.133018
842477.855411,2.4783629999728873,-0.5840547489539852,0.7760590717495343,2.119711324287196,-0.1424259565375603,0.9514985334470247,0.053175012715349336,-0.21165557167534996,0.010546466284162144,-5.16157074,0.26465418,7.665406470000001,0.315502,-1.631266,0.133018
842477.875398,2.4983500000089407,-0.5848609144840662,0.7814507517504029,2.1350906459816477,-0.11869968231722272,0.9783842511204507,0.05337868243212551,-0.21208892353873335,0.0105344169011808,-4.0300657200000005,-0.00837774,8.09516295,0.257263,-1.716314,0.317177
842477.915371,2.5383229999570176,-0.5899556564050182,0.8055912018171737,2.162463586858072,-0.015676077661154822,1.0190998965051548,0.05355349839120617,-0.2127837152394324,0.010521704955859783,-4.645290060000001,0.8906499,8.49334104,0.212056,-1.784055,0.453524
842477.935358,2.558309999993071,-0.5895234912846911,0.8116114225490447,2.1764013724586757,-0.0024053335864404196,1.0120466949658162,0.05347418169024178,-0.21348534063618052,0.010516923786962997,-4.06959021,1.42653096,8.28945981,0.269071,-1.68208,0.529572
842477.955345,2.5782970000291243,-0.5908966234803632,0.8165499741360448,2.1942157712059664,0.006221738338087854,1.0084197510928865,0.053564218159725396,-0.21424476911720333,0.010505369023605231,-4.18454379,1.4293758600000002,9.37575054,0.24846,-1.650296,0.471466
842477.975332,2.5982839999487624,-0.5923546181600217,0.8212623973758856,2.2098248090448713,0.009782583399260622,1.004999931091472,0.053610256956307674,-0.21502006036907753,0.010494620384409821,-4.05387459,1.34690319,9.55148688,0.216038,-1.569604,0.396091
842477.975332,2.5982839999487624,-0.5922358224337112,0.807675709646057,2.217373748334597,-0.045578908324445604,0.9854993900821568,0.053659807238309765,-0.21563823247777753,0.010484777397327871,-4.05387459,1.34690319,9.55148688,0.216038,-1.569604,0.396091
842478.015305,2.6382570000132546,-0.5962496008084154,0.8312735741494132,2.2321720322962566,0.005787799506691796,0.9952108725061449,0.05363050335524741,-0.21644628238853317,0.010474907926209458,-3.37068657,1.16981307,10.31954121,0.038633,-1.495477,0.203844
842478.035292,2.658244000049308,-0.5982708529327516,0.8353552208854411,2.242483876425995,-0.005526725189362147,0.9859732798133959,0.05357558156522779,-0.21723121644690419,0.010465373657376216,-3.33087759,1.27998918,9.83978316,0.005634,-1.397925,0.189591
842478.055279,2.678230999968946,-0.6003529522118743,0.8393799534369879,2.2528930853084335,-0.021221618056542713,0.9708127358752947,0.05349225182102262,-0.21798219766890994,0.010456156649542497,-2.80321731,1.3961493900000002,9.49026267,0.022417,-1.273983,0.210307
842478.075266,2.6982180000049993,-0.6025413706598287,0.8432620227059199,2.2637494822168964,-0.03625455085569671,0.9558735190799441,0.05338019391271358,-0.2186995018217709,0.010447294332487794,-2.66550453,1.4272863300000005,9.39700881,0.071561,-1.178494,0.249455
842478.095253,2.7182050000410527,-0.6046220621737718,0.8471634097963221,2.2749319748722687,-0.05955945532492268,0.9341848336320294,0.05323555341617568,-0.21936658991154492,0.010438942233248955,-1.87874253,1.43626248,9.45089514,0.088441,-1.105526,0.28762
842478.11524,2.7381919999606907,-0.6068655120620204,0.8510186411334938,2.2860584818263376,-0.07696311715646945,0.9097694857048514,0.05305612295786691,-0.21998813206852508,0.01043092035392291,-1.7794947600000002,1.7860870800000002,9.7490799,0.118531,-0.966609,0.299772
842478.135227,2.758178999996744,-0.6230877601549579,0.8397887278265259,2.268661269695011,-0.23160479066442305,0.7726400998390908,0.05222629272375083,-0.22257202053947403,0.010463470864625932,-3.4955286300000004,1.02941235,11.31736536,-0.040003,-0.967567,0.01082
842478.135227,2.758178999996744,-0.6252381319564966,0.8239238197356425,2.2653148065941533,-0.31621710788776725,0.7277493081003025,0.051792793118670244,-0.22350930711987674,0.01047472690053967,-3.4955286300000004,1.02941235,11.31736536,-0.040003,-0.967567,0.01082
842478.135227,2.758178999996744,-0.6237958998882445,0.8111338751099073,2.265359557306504,-0.36395505367020725,0.7099431472049573,0.051497249656443846,-0.22401466542798731,0.010480803144953503,-3.4955286300000004,1.02941235,11.31736536,-0.040003,-0.967567,0.01082
842478.135227,2.758178999996744,-0.6208105807688435,0.7996068657515957,2.2666619849097582,-0.39556842160646716,0.701835580634401,0.05127121253879961,-0.22434290773177998,0.010484921891059765,-3.4955286300000004,1.02941235,11.31736536,-0.040003,-0.967567,0.01082
842478.135227,2.758178999996744,-0.6170319842363483,0.7887785672260478,2.268522988307174,-0.41848474532731045,0.6979760791546601,0.05108681356795224,-0.22458101132854255,0.010488136394851164,-3.4955286300000004,1.02941235,11.31736536,-0.040003,-0.967567,0.01082
842478.135227,2.758178999996744,-0.6128072026080988,0.7784241728223241,2.270650889429942,-0.43608849647642833,0.6962013018240977,0.050929940681490454,-0.22476684690894758,0.010490883979215044,-3.4955286300000004,1.02941235,11.31736536,-0.040003,-0.967567,0.01082
842478.135227,2.758178999996744,-0.6083215252322048,0.7684384612214551,2.2729050237649835,-0.4501689286888075,0.6955223537205066,0.05079245388780216,-0.22491958118571564,0.010493373990711645,-3.4955286300000004,1.02941235,11.31736536,-0.040003,-0.967567,0.01082
842478.135227,2.758178999996744,-0.6036836839554156,0.758765615195854,2.275210820809848,-0.46177257156886103,0.6954427926904663,0.05066923975385223,-0.22504997117482398,0.010495716298733544,-3.4955286300000004,1.02941235,11.31736536,-0.040003,-0.967567,0.01082
842478.135227,2.758178999996744,-0.5989618612727925,0.74937259525061,2.2775261517736833,-0.4715580207797094,0.6956964695025973,0.050556888341647586,-0.225164529735528,0.010497972195999619,-3.4955286300000004,1.02941235,11.31736536,-0.040003,-0.967567,0.01082
842478.135227,2.758178999996744,-0.5942009189956657,0.7402377629747893,2.2798262037562163,-0.47996334210642,0.6961337924699217,0.05045302336061332,-0.2252674363298522,0.010500177249797911,-3.4955286300000004,1.02941235,11.31736536,-0.040003,-0.967567,0.01082
842478.135227,2.758178999996744,-0.5894314417794763,0.731345578306278,2.2820960116296494,-0.48729281303137184,0.6966677886646968,0.05035593192695441,-0.2253614996141773,0.01050235255883634,-3.4955286300000004,1.02941235,11.31736536,-0.040003,-0.967567,0.01082
842478.135227,2.758178999996744,-0.584674836172714,0.722683957986836,2.284326491850109,-0.49376525549544564,0.6972467157447282,0.0502643458019763,-0.22544867909721483,0.010504510709353506,-3.4955286300000004,1.02941235,11.31736536,-0.040003,-0.967567,0.01082
842478.135227,2.758178999996744,-0.5799463736761572,0.7142428886747583,2.286512209788306,-0.499542576738115,0.6978393850685586,0.05017730520461486,-0.22553038492098984,0.010506659109281178,-3.4955286300000004,1.02941235,11.31736536,-0.040003,-0.967567,0.01082
842478.135227,2.758178999996744,-0.5752570925236865,0.7060136668973851,2.288650061883155,-0.5047474422049438,0.698426947299192,0.0500940704059887,-0.22560765865671575,0.010508801940772033,-3.4955286300000004,1.02941235,11.31736536,-0.040003,-0.967567,0.01082
842478.215174,2.8381260000169277,-0.611222994464263,0.7527459903926612,2.275353987707084,-0.39873483551119815,0.7330344072352117,0.04995048154553898,-0.22568944278452457,0.010502556802432037,-1.58370678,0.72404667,10.745403120000002,-0.001374,-0.47867,-0.218056
842478.295121,2.9180730000371113,-0.6393090872861491,0.8027817851318653,2.2556102019175155,-0.34022621623113153,0.7347954871922647,0.04953423039582781,-0.22583290039500914,0.01050106726038118,-0.98046045,0.77972823,6.03754488,-0.017354,-0.143936,-0.248826
842478.415042,3.0379940000129864,-0.6786469960730569,0.9049427144517919,2.238288405355565,-0.2986863269857782,0.7431178820091814,0.048797086053484644,-0.22612587764950942,0.010495084002971064,-0.6723970200000001,0.95381649,9.25855047,-0.17295,-0.354823,-0.199353
842478.49499,3.1179420000407845,-0.7084943303446692,0.9939161301016213,2.2325990561721234,-0.2990684863932149,0.7894158204214842,0.048072598661497115,-0.2264681788695541,0.010488698001978032,-0.7289811,0.46822149,10.16955612,-0.342514,-0.635296,-0.107396
842478.514977,3.1379289999604225,-0.7173239997695794,1.0360432148678456,2.233814965789925,-0.32418954479976536,0.8199978820977866,0.0475519725904635,-0.22678540670483158,0.010482673572861355,-0.6649218000000001,0.7324244100000001,9.57633561,-0.348418,-0.674079,-0.09859
842478.534964,3.157915999996476,-0.7246451496671782,1.0767806518395728,2.2348041121483,-0.34375430908796906,0.8383221228603196,0.047147007743110626,-0.227081382788108,0.010476754590074357,-0.40894947,0.7414103700000001,9.86703534,-0.356464,-0.715959,-0.103288
842478.55495,3.1779020000249147,-0.7309826524427324,1.1166628642100072,2.235576334453624,-0.3586056047467596,0.8438401729232801,0.04680500321248219,-0.2273547868531889,0.010470799735587651,-0.09894366,1.03494519,9.63052605,-0.344815,-0.722884,-0.113144
842478.574937,3.197889000060968,-0.7363106132606,1.1556299751369046,2.2369235668164755,-0.38030482176820735,0.8473148663711699,0.04651997017540502,-0.22759928831339676,0.010464597205630102,0.36763956,0.6009998400000001,9.56451456,-0.320071,-0.689466,-0.09121
842478.594924,3.217875999980606,-0.7500897513053973,1.1864132774115526,2.2282352391702993,-0.4675193883723728,0.7964222804091627,0.046017088225577804,-0.22861024733995233,0.010473486451276097,0.40655583,0.45295713,10.02075804,-0.303519,-0.664968,-0.054259
842478.614911,3.2378630000166595,-0.7601109033714858,1.2200196147349132,2.2242503723397204,-0.47151373932659174,0.7832532467009387,0.04562361430663714,-0.22921857240553847,0.010475630447112697,-1.88113617,1.56409659,9.51302187,0.134466,0.519202,-0.060163
842478.634898,3.257850000052713,-0.7646485490226739,1.2557642414400192,2.216678878254057,-0.5188284150106609,0.779322134387543,0.045207439240044445,-0.2294789861653777,0.010482905163057983,1.2088863,-0.3788622,6.6524651100000005,0.134466,0.519202,-0.060163
842478.654885,3.277836999972351,-0.769832569423776,1.2903474490154856,2.215687400190564,-0.5525047277008182,0.7743380644213667,0.04498154481093734,-0.2296671490842203,0.010480105658271177,1.24990191,-0.09774684,9.74293884,0.038592,0.194377,-0.081769
842478.674872,3.2978240000084043,-0.7749000624328496,1.3241694377276356,2.214408874618785,-0.5533714023882831,0.7921347271126725,0.04479903227552589,-0.22978996330820592,0.010476176975190836,-0.40999914,-0.17812998,11.5309683,0.013939,0.055519,-0.132919
842478.694858,3.317810000036843,-0.7796620606396927,1.3574699081203208,2.2124061480832378,-0.5579485094280983,0.8047609447830438,0.04464270947049441,-0.22990200856732862,0.010471914354665657,-0.06316659,-0.21450546,10.80693144,0.014881,0.005171,-0.178977
842478.714845,3.337796999956481,-0.7842318627685306,1.390048918556247,2.2092771198067567,-0.5591399646917117,0.8253253287023858,0.044520580421911975,-0.2300133245920506,0.010467146182628628,-0.44157753,-0.5897772,10.56892122,-0.002399,0.005903,-0.250987
842478.734832,3.3577839999925345,-0.7885343305687755,1.4222240402287059,2.2057960613711245,-0.5652418768254357,0.8373759380129783,0.04442497266774565,-0.23011639061577233,0.010461931829377871,0.04235958,-0.5204695500000001,9.888735060000002,0.005948,-0.024002,-0.281951
842478.774806,3.397757999948226,-0.8037855693750394,1.4710992367640023,2.1945265526148408,-0.5686542889390571,0.8268967220180136,0.044320236824495866,-0.23018077755988592,0.010455863904102913,0.28905165,0.23560677,9.66554775,0.005202,-0.01878,-0.342139
842478.774806,3.397757999948226,-0.7972802271382463,1.4865873384468418,2.197178268522448,-0.5636075876751243,0.8345698155038083,0.04423357046458818,-0.23026818498900012,0.010449572270040427,0.28905165,0.23560677,9.66554775,0.005202,-0.01878,-0.342139
842478.81478,3.4377320000203326,-0.8121720628970669,1.5344549741353062,2.186167818126938,-0.5653118441036205,0.822915858102412,0.04412980747786223,-0.2303157958082073,0.010442762859207137,0.30506157,0.28860039,9.60252831,0.016839,-0.016372,-0.345947
842478.834767,3.457719000056386,-0.8156798165884686,1.5649538044059188,2.183655091947851,-0.5632221632295388,0.8227123347378151,0.04402588798128402,-0.23035906403442483,0.010435823241579751,0.35341506,0.2633004,9.82272357,0.001824,-0.01942,-0.279753
842478.854753,3.4777049999684095,-0.8190415943734584,1.5949898703547423,2.182324391005631,-0.5599818877976676,0.8225906559348639,0.043921994611710556,-0.23040082323846334,0.010428627262697119,0.29728224,0.2894931,9.66330126,-0.004348,-0.01206,-0.227232
842478.87474,3.497692000004463,-0.8222353853209453,1.6246037166995726,2.1826718366872413,-0.5580301347012767,0.8204824714455085,0.04381749354062869,-0.23043881576945474,0.010421086421216806,0.41404086,0.33724818,9.60522606,0.007819,-0.011084,-0.152546
842478.894727,3.5176790000405163,-0.8253497180717663,1.6536993171711794,2.183984534709765,-0.5526104603512441,0.8219605326733526,0.04371342676011905,-0.23048081514204447,0.010413214665399614,0.13696722,0.28725642,9.73949553,0.001972,-0.005477,-0.113083
842478.894727,3.5176790000405163,-0.818223401473925,1.666554189451149,2.187696291687823,-0.5468795210451798,0.8299194686471054,0.0436233735803908,-0.23054907102861666,0.010405303062202057,0.13696722,0.28725642,9.73949553,0.001972,-0.005477,-0.113083
842478.914714,3.5376659999601543,-0.8213849372979007,1.6947916212714613,2.189607459581204,-0.5444945897811297,0.8279492698286235,0.043530846656871854,-0.230613033150962,0.010397087423295311,0.2225889,0.29189655,9.75985128,-0.000198,-0.022075,-0.093581
842478.954688,3.577640000032261,-0.8348639117167302,1.7393101948887952,2.189670841707743,-0.5430867409682673,0.8223944863631322,0.04342651391420123,-0.2306543554829358,0.010388170578439328,0.12888378,0.20791314,9.84098979,0.002169,-0.004453,-0.096185
842478.974675,3.597626999951899,-0.8385996452350343,1.7658300716891837,2.1902238859098553,-0.5519819424981858,0.8158298170189475,0.04328926050875351,-0.23085117955977688,0.0103830523554508,0.06960195,0.19085355,9.72587925,0.003545,0.000344,-0.063322
842478.974675,3.597626999951899,-0.8319106481003645,1.776471515016382,2.1923631402207047,-0.556430743891623,0.8165074287077643,0.04316794387381264,-0.23102519489118697,0.010377655969890907,0.06960195,0.19085355,9.72587925,0.003545,0.000344,-0.063322
842479.014648,3.6376000000163913,-0.8465954056017237,1.8185507071204674,2.1942912233115406,-0.5601481005285163,0.8080701040619295,0.043031216594916474,-0.2311844784000755,0.009807213339815653,-0.06287229,0.18022932,9.82197801,0.003427,0.001469,-0.013338
842479.034635,3.6575870000524446,-0.8500834208322784,1.843828740838056,2.196802553324604,-0.5639734497178548,0.8027536155735095,0.042895784405459,-0.2313274273780683,0.009500982945512933,0.08906499,0.27363033,9.78230637,0.003664,0.001592,-0.003002
842479.054622,3.6775739999720827,-0.8535682561663301,1.8686691033100489,2.199338330339871,-0.5674017783463058,0.7965818859580762,0.04275658432277025,-0.23145571565765785,0.009141883021244128,0.16241436,0.32751666,9.83365191,-0.000668,-0.002151,-0.005791
842479.074609,3.697561000008136,-0.8570676031473827,1.8930283868250146,2.201846679113702,-0.569850502554377,0.7919953502624281,0.042614816867589625,-0.23157447097193198,0.008838419924440991,0.11197134,0.2948886,9.78515127,0.004129,-0.001759,-0.003934
842479.094596,3.7175480000441894,-0.8605522598757521,1.916926479590224,2.2043652612711817,-0.5721120423770144,0.7889943308473698,0.042474115095642806,-0.23168585462634528,0.008775940100220928,0.0808344,0.23081949,9.85250673,-0.003587,0.001549,0.006309
842479.114583,3.7375349999638274,-0.8640632635455309,1.9404357126227596,2.2068337780715943,-0.5724945043985953,0.7841382651432296,0.04232864990219365,-0.23179107029484633,0.008793864783155537,0.0782838,0.37616445,9.79758054,-0.003559,0.000207,0.009835
842479.13457,3.757521999999881,-0.8675995043321653,1.9635213838268888,2.2092055548419314,-0.5719819689437271,0.7788424170991691,0.04217521404800806,-0.2318921742427927,0.008696277466242415,0.06541308,0.44217594,9.75356307,9.9e-05,-0.001397,0.004573
842479.154557,3.777509000035934,-0.8710853091988375,1.9861834257209465,2.21149265780738,-0.5736175982006506,0.774157609042566,0.04201675815440155,-0.23198281355457226,0.008513351734883254,0.1761876,0.36209691,9.746235,0.001749,-0.005214,0.000459
842479.174544,3.797495999955572,-0.8745607359061319,2.008429401454701,2.2137138843789756,-0.574380476786281,0.7708787512166766,0.0418557382550763,-0.2320675566256658,0.008396814313705448,0.11661147,0.33590421,9.68396112,0.003623,-0.007757,0.00328
842479.19453,3.817481999984011,-0.8780327353104195,2.0302521975689602,2.2158290987592473,-0.5738452033105582,0.7696949710429061,0.04169319249109659,-0.23215490091779484,0.008318708440802722,-0.02499588,0.28860039,9.7174917,0.000433,-0.000627,0.004914
842479.214517,3.8374690000200644,-0.8814247078254586,2.0517607782955385,2.2178335315785995,-0.5755210156274498,0.7660486951736811,0.04152732375121901,-0.23223182741021425,0.008212635925251463,0.17858124,0.3236319,9.70252164,0.001581,-0.002868,0.003442
842479.234504,3.8574560000561178,-0.8848072734876858,2.0728847133135915,2.2197682098015097,-0.5758020451400255,0.7638327957084682,0.041359905214497575,-0.2323056938713576,0.008162403980931128,0.08308089,0.30926025,9.77168214,0.003296,0.000979,0.005985
842479.254491,3.877442999975756,-0.8881713880755953,2.093649856015993,2.2215868322329193,-0.5756757841364222,0.7617060834880384,0.04118938866933073,-0.2323782367452578,0.008045658291512246,0.05942898,0.32033574,9.79593246,-0.000327,5.5e-05,0.002634
842479.274478,3.897430000011809,-0.8914791268457354,2.1140906367103747,2.2233380859571596,-0.5764047971840333,0.7588857534491843,0.041016800114200336,-0.23244450277918133,0.007950588741526413,0.13531914,0.32497587,9.780815250000002,0.004351,-0.000111,0.003527
842479.294465,3.9174170000478625,-0.8947554380995483,2.1341833218491093,2.225010417732178,-0.5765999551620422,0.7570204791293786,0.04084285899416912,-0.23250810285274937,0.007879926262186473,0.08712261,0.30297204,9.80101404,0.001164,0.000825,0.004601
842479.314452,3.9374039999675006,-0.8979992881591691,2.153953144288228,2.226616120947777,-0.5767971027964461,0.7548551118269631,0.040667043979732406,-0.2325686179032958,0.007794589959430722,0.10164141,0.31658832,9.77706783,0.002077,0.000258,0.003747
842479.334439,3.957391000003554,-0.9012007610951787,2.1734063594429194,2.228143500056964,-0.5767889660300672,0.7529576000796153,0.04048976281319148,-0.23262658934882183,0.007733215682625992,0.08712261,0.31359627,9.78993855,0.005099,0.002736,0.004839
842479.354425,3.977377000031993,-0.9043654313533617,2.1925481387059476,2.2295984875424963,-0.5769206315155978,0.7508935658886943,0.04031056625625983,-0.23268159402333075,0.007638324641541681,0.10298538,0.31778514,9.77797035,0.002961,-0.001522,0.003013
842479.374412,3.997363999951631,-0.9074989256112371,2.2113865713335454,2.2310328568323445,-0.5767475842692027,0.748850279629616,0.040130305656247124,-0.23273440199342024,0.007589733843554698,0.09176274,0.329616,9.75611367,0.003796,0.000254,0.005283
842479.414386,4.0373380000237375,-0.92183592199148,2.245013662195696,2.232421928773058,-0.5749716086791942,0.740168214617843,0.03992931145426053,-0.23275239635500203,0.007553229701838159,0.09011466,0.3408386399999999,9.7664436,0.003798,-0.001115,0.005868
842479.434373,4.057325000059791,-0.9246516079705374,2.263144332853189,2.233782690107799,-0.5736556195002364,0.7396414671091174,0.039730107096751545,-0.2327880136923791,0.007507159728310186,0.08007903,0.37272114,9.76090095,0.006031,-0.001413,0.005307
842479.45436,4.077311999979429,-0.9274388757303533,2.2809600191323693,2.235112815273302,-0.5730850877679547,0.7383641332471879,0.039531951465800526,-0.23282967643383515,0.007465636989077895,0.09220419,0.37168128,9.79009551,0.004781,-0.002619,0.005478
842479.474347,4.097299000015482,-0.9302068201144796,2.298469008446771,2.236403054829063,-0.5726122619407193,0.736643866990362,0.03933342655900481,-0.23287354900820614,0.007385398694211835,0.08981055,0.38335518,9.76508982,0.00262,0.000971,0.003348
842479.494334,4.117286000051536,-0.9329461041790077,2.3156799982345464,2.237719467537131,-0.5724422964272732,0.7347595329595531,0.03913531402718198,-0.23291718184174268,0.007341124960524446,0.10014048,0.37916631,9.7522191,0.003762,-0.000732,0.00517
842479.494334,4.117286000051536,-0.9250062395226296,2.3185949699919615,2.239022573606583,-0.5735589019039272,0.7400483303049381,0.03895484106279168,-0.23298677219186648,0.007298562599876415,0.10014048,0.37916631,9.7522191,0.003762,-0.000732,0.00517
842479.534308,4.157260000007227,-0.9391519136018652,2.350251033257169,2.2403116886089256,-0.5721509037107972,0.7288243424678161,0.03874978518921463,-0.23301526508194595,0.007240073053938975,0.08981055,0.38649438,9.78529842,0.001137,0.0005,0.004274
842479.554294,4.177246000035666,-0.9417993025519196,2.366624938018103,2.2416390590871345,-0.5714572886544401,0.7276785505876892,0.03854544478369902,-0.233050598362496,0.007202002913169954,0.08442486,0.38993769,9.7695828,0.005849,-8.9e-05,0.005313
842479.574281,4.197232999955304,-0.9444196903403437,2.3827287435286433,2.2429340938761966,-0.5710221857877802,0.7261972498254612,0.038340895879043206,-0.2330884937318905,0.0071446824061807464,0.08382645,0.39352815,9.77766624,0.003875,-0.00067,0.00419
842479.574281,4.197232999955304,-0.9363795101247968,2.3847251743244677,2.244227330961695,-0.5723275672179077,0.7317820577936014,0.03815477028703461,-0.23315322769144733,0.00708948223047006,0.08382645,0.39352815,9.77766624,0.003875,-0.00067,0.00419
842479.614255,4.237207000027411,-0.9503528242251615,2.415169197316717,2.2454919413520695,-0.571319414720877,0.7209647495848874,0.03794452481305533,-0.23317567486109914,0.0070490114374229225,0.0960987599999999,0.38065743,9.79129233,0.004593,-0.001135,0.004983
842479.634242,4.257193999947049,-0.9528605620782434,2.4305148711125106,2.2467549067071317,-0.5710010056928734,0.7201404713176882,0.037735217360725284,-0.23320489528775676,0.006976492600826675,0.09774684,0.37960776,9.7752726,0.001652,0.001062,0.003112
842479.654229,4.277180999983102,-0.9553357544349879,2.445605902485429,2.2480081592910635,-0.5710897484567833,0.7193142551385346,0.037527411798873214,-0.2332366047248928,0.006915578847374605,0.09325386,0.35939916,9.77946147,0.002123,0.000672,0.003672
842479.674216,4.297168000019155,-0.9577716728541605,2.4604602674051312,2.2492277073779334,-0.5712825097516941,0.7184584688551561,0.03732081507308079,-0.23326877551807154,0.006866969678164555,0.08772102,0.35087427,9.77587101,0.004586,0.000981,0.004291
842479.694203,4.317155000055209,-0.9601779381810479,2.4750762341166426,2.2504363379520402,-0.5716589759712132,0.7175832762022154,0.037115330030294505,-0.2333006461914794,0.006811760128049464,0.08996751,0.33964182,9.77856876,0.002014,0.000502,0.003844
842479.71419,4.337141999974847,-0.9625397857850664,2.489465233883088,2.251620031409864,-0.5723526090743012,0.7169123309676431,0.03691147430782278,-0.23333101181463878,0.006768425634666452,0.09595161,0.31359627,9.7664436,0.005142,0.000966,0.004456
842479.734177,4.3571290000109,-0.964871302679537,2.5036269073647137,2.2527991372966714,-0.5731324524277672,0.7164063848000177,0.0367094470197541,-0.23336019917960188,0.006729096749755662,0.09325386,0.29548701,9.79098822,0.00352,0.001922,0.004631
842479.754163,4.377115000039339,-0.967168579097472,2.5175769978264393,2.25396036890249,-0.5740233036661868,0.715640756423039,0.036508839473378144,-0.2333870385535499,0.006684491370114815,0.11092167,0.29458449,9.7781175,0.002667,-0.001145,0.004268
842479.77415,4.397101999958977,-0.9694505606702976,2.531303743559276,2.2551052093873647,-0.5745748849354673,0.715186686945925,0.03630950175471962,-0.23341353709551352,0.006615306660943793,0.08322804,0.28575549,9.80326053,0.004495,-0.000322,0.002759
842479.794137,4.4170889999950305,-0.9716924752145818,2.5448331549439174,2.2562406075760952,-0.5752023163622058,0.7145900938370967,0.03611182316907138,-0.23343852632553297,0.006575603203519206,0.09131148,0.28231218,9.76898439,0.00223,0.000649,0.004414
842479.814124,4.437076000031084,-0.9739051008350913,2.558160265373684,2.2573673730887887,-0.575895028407884,0.7139232764036695,0.03591547247399717,-0.23346197948636233,0.006533309246057686,0.09759969,0.27662238,9.77137803,0.002856,-0.000244,0.004207
842479.834111,4.457062999950722,-0.9760915395173551,2.571288181759507,2.258488171718284,-0.5764125043922387,0.7133184213926788,0.035720457496063035,-0.2334844991069705,0.006498995194909747,0.08726976,0.27408159,9.78814332,0.005745,-0.000214,0.004629
842479.854098,4.477049999986775,-0.9782469020584578,2.584222927309568,2.2595768909829133,-0.5770839353924379,0.7126200527212561,0.035526404755498946,-0.2335053822303871,0.006437927325939402,0.09834525,0.26704782,9.7926363,-0.000552,0.000972,0.002973
842479.874085,4.497037000022829,-0.9803702393141813,2.5969717776956776,2.260664390220029,-0.5777531391208589,0.7118409407314024,0.03533370894199494,-0.23352429540900557,0.00639393320825143,0.10478061,0.2650956299999999,9.80985285,0.004091,-0.001737,0.003926
842479.894072,4.517024000058882,-0.9824777892322156,2.6095340075067184,2.261741417412673,-0.5779117076712917,0.7109471451056094,0.035141523067946975,-0.23354267727619443,0.006343338540236867,0.08562168,0.28381311,9.77946147,0.003841,-0.000302,0.003468
842479.914059,4.53701099997852,-0.9845641775177629,2.6219141068570786,2.2628369617511943,-0.5780531192574397,0.7097246925177514,0.034949656520051685,-0.23355997874851725,0.006300981420012423,0.09580446,0.29713509,9.7841016,0.00174,0.000388,0.003907
842479.934046,4.556998000014573,-0.9866263386113665,2.6341149111462165,2.2639318003356523,-0.5780077861758186,0.7084518817596047,0.034757839831175606,-0.23357642152107383,0.006267701256036738,0.08906499,0.30641535,9.79533405,0.005183,-0.002628,0.004409
842479.954033,4.576985000050627,-0.9886641371727272,2.6461431005099705,2.2650091778717396,-0.5777947589967651,0.7069422589258267,0.03456543546214936,-0.23359189579612702,0.006225013955760829,0.0896634,0.32452461,9.76988691,0.002972,-0.000239,0.003787
842479.974019,4.59697099996265,-0.990676412320807,2.657997321146955,2.266108330796996,-0.577625584501229,0.7052596965670364,0.03437263167973383,-0.23360602178627407,0.006201226812634965,0.09894366,0.33425613,9.76823883,0.00326,-0.001582,0.004902
842479.994006,4.616957999998704,-0.9926606735433894,2.6696821746014145,2.267189121810377,-0.5773549871876477,0.703652432012053,0.034179154531849935,-0.2336190241660443,0.006176088473227461,0.09295956,0.33919056,9.78335604,0.005241,-0.002535,0.004787
842480.03398,4.656931999954395,-1.0058578413234032,2.6953320606594344,2.2682924476591637,-0.5752385967131066,0.6951239598020607,0.033966058927379,-0.2335980336415891,0.006139179408995998,0.0953532,0.35521029,9.78993855,0.00436,-0.001107,0.004057
842480.03398,4.656931999954395,-0.9968499036870155,2.6932631829356555,2.2693849191085143,-0.5757838806464414,0.7018520825951193,0.03377325282681147,-0.23362430974157017,0.006103586182748223,0.0953532,0.35521029,9.78993855,0.00436,-0.001107,0.004057
842480.073954,4.696906000026502,-1.0099574066254053,2.7184859773232772,2.2704651641725873,-0.574511502987759,0.6931285457466633,0.03356065938053057,-0.23361260936089756,0.006060897520190422,0.08861373,0.34203546,9.78605379,0.000382,0.000109,0.003608
842480.093941,4.716893000062555,-1.0115392708445328,2.729283729475872,2.271575917069427,-0.5740255217910321,0.6932801468468708,0.03335184933851606,-0.2336136521848313,0.0060273954092886755,0.08352234,0.33574725,9.78335604,0.006216,-0.001333,0.004124
842480.093941,4.716893000062555,-1.0024552832290035,2.726725065532417,2.2726556413590018,-0.575107636492568,0.6992156016950001,0.03316149779466615,-0.23364688581259296,0.005995049518106614,0.08352234,0.33574725,9.78335604,0.006216,-0.001333,0.004124
842480.133915,4.7568670000182465,-1.015437747592193,2.751350416991003,2.27370002988736,-0.5750569504563539,0.6908762187410041,0.03295211041367993,-0.23363954088896483,0.005952167956793092,0.08981055,0.30581694,9.77137803,0.003232,-0.000416,0.003456
842480.153902,4.7768540000543,-1.0169151245475672,2.7616395975089048,2.2748083129002854,-0.5750855003656201,0.6908502044632513,0.03274627988420702,-0.23364061665505167,0.005940159928255116,0.09879651,0.31030011,9.76883724,0.004412,-0.00175,0.005343
842480.173889,4.796840999973938,-1.0183627812939011,2.7717647075036256,2.2758825348715677,-0.5754219744117678,0.6904085254297273,0.03254278089689257,-0.23364446429069535,0.005918054884203219,0.10403505,0.30596409,9.78709365,0.001972,0.000848,0.004689
842480.173889,4.796840999973938,-1.0091301666528745,2.7686282719311226,2.2769197889463957,-0.5764812607656555,0.6959501775293645,0.03235605037072848,-0.23367666166502649,0.005896730601348131,0.10403505,0.30596409,9.78709365,0.001972,0.000848,0.004689
842480.193876,4.816828000009991,-1.0107997196469563,2.7786326501599263,2.2779459332179925,-0.5776956624451974,0.6936115295863277,0.03216700762816455,-0.2336971868230273,0.005864320344288231,0.10119015,0.29278926,9.780511140000002,0.003806,-0.00163,0.003953
842480.233849,4.856800999958068,-1.0236860007849309,2.8023921501803857,2.278991979353515,-0.577421892173794,0.68550922427317,0.03195930193459099,-0.233677100443339,0.005822406395945658,0.10628154,0.30192237,9.77437008,0.002204,-0.000201,0.003343
842480.253836,4.8767879999941215,-1.0250270285645395,2.8119331276559194,2.280086430738449,-0.5772326967424162,0.6859057917425981,0.031755349088150316,-0.23366965065151,0.0058028089620996105,0.10238697,0.29443734,9.77333022,0.00564,-0.000997,0.004715
842480.273823,4.896775000030175,-1.0263481274491963,2.8213247826418053,2.281154202667718,-0.5772804989209468,0.6856711431105107,0.031553779316543434,-0.23366734973181744,0.005780037010403082,0.09999333,0.3008727,9.78560253,0.001992,-0.000585,0.004486
842480.29381,4.916761999949813,-1.0276597056878756,2.830570178272765,2.2822120466555766,-0.5771513443422258,0.6849653284848891,0.03135340750981665,-0.23366777505428923,0.005747780205820084,0.08996751,0.3204828899999999,9.79158663,0.000554,-0.000122,0.003849
842480.313797,4.936748999985866,-1.028951146537184,2.8396738142669116,2.2832734669681143,-0.5772034218500451,0.68402707348931,0.031153985866967483,-0.23366888540213998,0.005718700371104668,0.09655002,0.32122845,9.76044969,0.005537,-0.000263,0.004015
842480.333784,4.95673600002192,-1.0302241104292857,2.8486360761824936,2.28433683053459,-0.5772779522721417,0.6831664013612475,0.03095544581332365,-0.233670368500539,0.005694015540085335,0.08861373,0.31584276,9.78305193,0.000993,0.000565,0.004264
842480.353771,4.976723000057973,-1.0314723336687817,2.8574704306702006,2.285399822423525,-0.5776138700184531,0.6820224172052828,0.030757548951079686,-0.23367048985066488,0.005670542663712012,0.11061756,0.31734369,9.78784902,0.004723,-0.001474,0.004313
842480.373758,4.996709999977611,-1.0327076583214787,2.8661765348814154,2.2864487693364923,-0.5774349310757166,0.680967667053547,0.03055983594915375,-0.2336707007383621,0.005650920642150583,0.08322804,0.3327552,9.76584519,0.004168,0.000327,0.004534
842480.393745,5.016697000013664,-1.0339178472103436,2.8747578556916715,2.2874912924044075,-0.5776200512550433,0.6798131040206675,0.030362385432330198,-0.23366977442326609,0.005624946455863337,0.10208286,0.32557428,9.79428438,0.002296,0.000267,0.004097
842480.413732,5.036684000049718,-1.035107135643732,2.8832059500264773,2.288515135820509,-0.5780214671976837,0.6791078967342004,0.030165758835585116,-0.23366816311038038,0.005580066686675823,0.09490194,0.29907747,9.79727643,0.005139,0.000875,0.002832
842480.433719,5.056670999969356,-1.0362854944352993,2.891542562467048,2.289543378511752,-0.5781033042021287,0.6779611127259778,0.029969336923230127,-0.2336656395576189,0.005540863120452542,0.0981981,0.32811507,9.77302611,0.003527,-0.000311,0.003151
842480.453705,5.076656999997795,-1.0374465063355345,2.89975918020216,2.290581823157316,-0.5780156835825402,0.6770293753073903,0.029773341922857174,-0.23366314854757292,0.005525218108108554,0.0805302899999999,0.32722236,9.77407578,0.00308,0.000377,0.00465
842480.473692,5.096644000033848,-1.0385811533834093,2.907863553656418,2.2915849362124234,-0.5782239776022794,0.6761708007272682,0.02957775967297721,-0.23365988404876253,0.005490572278656028,0.08891784,0.31449879,9.80416305,0.004663,-0.000643,0.003381
842480.493679,5.116630999953486,-1.0397018980133084,2.915852251172053,2.292614548454658,-0.5784476368203433,0.6753566567801335,0.0293829871296146,-0.2336562030964407,0.005477985693061061,0.08667135,0.31180104,9.78185511,0.002173,7.4e-05,0.004795
842480.513666,5.136617999989539,-1.0408040669322771,2.9237279624299455,2.2936624330882154,-0.5790449842935863,0.6744784274862273,0.02918916221702075,-0.2336509815152996,0.005471241869935038,0.10747836,0.29982303,9.77706783,0.004741,-0.000892,0.005167
842480.533653,5.156605000025593,-1.0419026732607426,2.9314873256099734,2.294691181394356,-0.5793832323261322,0.6737013749523078,0.02899582411986567,-0.23364525258912133,0.005431838565481028,0.09355797,0.30326634,9.80954874,0.003544,-0.00051,0.002998
842480.55364,5.176592000061646,-1.0429828930009373,2.9391466531410324,2.2957093440581806,-0.5796011913008691,0.6728250374919759,0.028803102335105732,-0.23363869230471337,0.005400386868690732,0.09265545,0.31090833,9.77677353,0.002138,0.001173,0.003479
842480.573627,5.196578999981284,-1.0440440377168356,2.9466991748851683,2.296746466266895,-0.5799042544737373,0.6721561756047845,0.028611475064293942,-0.23363173047997438,0.005398135737837405,0.08741691,0.29862621,9.78574968,0.005329,-0.000729,0.005383
842480.593614,5.2165660000173375,-1.045100337307765,2.9541509937639394,2.2977773105069605,-0.5799413908241385,0.6711583746391099,0.028419954786388573,-0.233624517920472,0.005382030931253242,0.08636724,0.32122845,9.79428438,0.001793,-0.001084,0.004458
842480.613601,5.236553000053391,-1.0461460859488327,2.961499909534347,2.2988116682036885,-0.5799157737002607,0.6701011066948259,0.028228529341380794,-0.23361703711872983,0.005366201031407978,0.08412075,0.32766381,9.76254903,0.001793,-0.001084,0.004458
842480.633588,5.256539999973029,-1.0471761912666775,2.9687408016948003,2.2998648897555753,-0.5801658709914461,0.6692717555234475,0.028037797043028435,-0.23360917073751347,0.005361512101173329,0.08576883,0.3094074,9.77333022,0.005814,-0.001805,0.005185
842480.653575,5.276527000009082,-1.048197232981336,2.9758827777243586,2.3008841359574346,-0.5803364994630145,0.6683053403810467,0.027847147227222722,-0.23360070145610334,0.005318747192741147,0.08712261,0.31778514,9.75865446,0.001806,-0.002205,0.00263
842480.673562,5.296514000045136,-1.0492031452651411,2.9829302966320634,2.301897132420782,-0.5804373895909202,0.6673157508427293,0.027656820673164228,-0.2335915622894158,0.005279811107068966,0.08532738,0.32213097,9.74967831,0.004475,-0.000454,0.002838
842480.693549,5.316500999964774,-1.0501827362854794,2.9898853024164596,2.3029280401059022,-0.5808231494074704,0.6664787561406956,0.027467522502569848,-0.23358123211116744,0.005278305940064665,0.09355797,0.30581694,9.78589683,0.003514,-0.000753,0.005308
842480.733522,5.356474000029266,-1.062420325350699,3.0101036550541926,2.3039956707102895,-0.5795741625347544,0.6590022506523603,0.02726118661866601,-0.23353598485803245,0.005268959255367678,0.10298538,0.32377905,9.76195062,0.005858,-0.001415,0.004792
842480.733522,5.356474000029266,-1.0523413502112284,3.0041560980197137,2.304979910901018,-0.580341682309279,0.6658298974069068,0.027074477284237584,-0.2335379214225289,0.00526003303793041,0.10298538,0.32377905,9.76195062,0.005858,-0.001415,0.004792
842480.773496,5.396447999984957,-1.0645368219219107,3.0241155784199014,2.306058966170598,-0.5797152278674157,0.6577879763776034,0.02686977534862415,-0.2335007973052447,0.005252681384911495,0.10193571,0.31734369,9.7721334,0.002987,0.000263,0.004904
842480.773496,5.396447999984957,-1.054416150121256,3.017970505664026,2.3070579441420307,-0.5806128325918266,0.6642875015258427,0.02668379435154838,-0.2335052374089265,0.005245678537849847,0.10193571,0.31734369,9.7721334,0.002987,0.000263,0.004904
842480.81347,5.436422000057064,-1.0665737930217973,3.0376787519970487,2.3080687721774984,-0.5799770391584033,0.656342308039026,0.026479314310826303,-0.2334703186539283,0.0052167406411216186,0.09310671,0.3125466,9.79727643,0.002661,0.001826,0.003444
842480.81347,5.436422000057064,-1.0563998316757996,3.031360638532833,2.3090580840823938,-0.5809141183984652,0.662711771923122,0.026293113695523417,-0.2334752381362418,0.005188769563187354,0.09310671,0.3125466,9.79727643,0.002661,0.001826,0.003444
842480.853444,5.476396000012755,-1.0685270210089477,3.050827128946513,2.3100891201748457,-0.5803924908385912,0.6547245413989058,0.026088344135355993,-0.23344081149566037,0.005160840844428018,0.09385227,0.30985866,9.77960862,0.0038,0.000164,0.00345
842480.853444,5.476396000012755,-1.0583102388623187,3.0443390200525466,2.3110955155398214,-0.581350650476661,0.6610321847492863,0.025901633125952745,-0.23344573308936495,0.005133847305696664,0.09385227,0.30985866,9.77960862,0.0038,0.000164,0.00345
842480.893418,5.516369999968447,-1.0703879154582387,3.063587147088136,2.312113620808388,-0.5811645030558586,0.6530653517429524,0.025696719520823214,-0.23340964336094064,0.005111906574877937,0.10269108,0.30221667,9.79368597,0.004626,-0.001248,0.00379
842480.893418,5.516369999968447,-1.0601095231490185,3.0569511802385456,2.31309183336523,-0.5820648238050735,0.6593826694081407,0.02550967723283518,-0.23341324828131157,0.005090726650595483,0.10269108,0.30221667,9.79368597,0.004626,-0.001248,0.00379
842480.933392,5.5563440000405535,-1.0721865850898435,3.075982344437029,2.314104001001361,-0.5807068852981867,0.6513999302268649,0.025303147751272702,-0.23337962695688494,0.005074711988659608,0.07364367,0.32452461,9.77168214,0.002626,0.000875,0.00414
842480.933392,5.5563440000405535,-1.0618711234676192,3.0692026644410033,2.315063652303703,-0.5817515850261041,0.6576593648753398,0.025114635616687867,-0.23338420274040247,0.005059282758460053,0.07364367,0.32452461,9.77168214,0.002626,0.000875,0.00414
842480.973366,5.596317999996245,-1.073891871320382,3.0880300413716735,2.3160907334581946,-0.5811322617526082,0.6492463630639964,0.02490671844503274,-0.2333486602506152,0.005045744096199802,0.09864936,0.32138541,9.79952292,0.001457,0.001912,0.004273
842480.973366,5.596317999996245,-1.0635355886062519,3.0811134425502096,2.3170567088370744,-0.5821775652378298,0.6555754933232225,0.02471694401430099,-0.2333519513987942,0.005032721028173833,0.09864936,0.32138541,9.79952292,0.001457,0.001912,0.004273
842481.01334,5.636291999951936,-1.0755295221752779,3.0997262051275505,2.318060490195932,-0.5815491352579563,0.6472875303158461,0.02450777209626741,-0.2333149574623158,0.005009152091458918,0.09909081,0.32018859,9.78725061,0.005564,0.000974,0.003566
842481.01334,5.636291999951936,-1.0651318772601586,3.092677492216284,2.3190279424694715,-0.582590596320529,0.6536685337450518,0.024316827495789405,-0.23331722213357733,0.004986385291202159,0.09909081,0.32018859,9.78725061,0.005564,0.000974,0.003566
842481.053313,5.6762650000164285,-1.0770935543491218,3.1110871441348067,2.32005555279651,-0.5819974056509145,0.6455646033542533,0.024106902122079343,-0.23327926988678555,0.004980236032591964,0.09789399,0.31644117,9.77706783,0.005588,-0.001762,0.004694
842481.053313,5.6762650000164285,-1.0666498043760333,3.1039130980296044,2.3210014329675204,-0.5830362585761514,0.6519685132758571,0.023915217961996377,-0.2332806689275415,0.00497439107535405,0.09789399,0.31644117,9.77706783,0.005588,-0.001762,0.004694
842481.093287,5.71623899997212,-1.078591809930074,3.1221140064964077,2.322000353338346,-0.5824610667396585,0.6444034274373368,0.023705002720364,-0.23324352834038514,0.004955940345450608,0.08576883,0.30476727,9.796373910000002,0.001788,-0.00176,0.003846
842481.093287,5.71623899997212,-1.0681096388663949,3.114805118380344,2.3229501772833228,-0.583535115522972,0.6507335478554486,0.023512895290608796,-0.23324510372137897,0.004938141956450761,0.08576883,0.30476727,9.796373910000002,0.001788,-0.00176,0.003846
842481.133261,5.756213000044227,-1.0800406601356187,3.1328333392622203,2.3239175476787928,-0.5824775443249213,0.642784684897697,0.0233014055572801,-0.23320862682279728,0.004910225585692328,0.0805302899999999,0.32122845,9.77706783,0.003422,0.000418,0.003163
842481.133261,5.756213000044227,-1.069524694965802,3.1254045161377113,2.3248614775936627,-0.5836216152154688,0.6490851684425282,0.02310810549045472,-0.23321023498999538,0.004883227643496985,0.0805302899999999,0.32122845,9.77706783,0.003422,0.000418,0.003163
842481.173235,5.796186999999918,-1.0814119583034114,3.143255773544698,2.3258730272119887,-0.5829601125454954,0.6411292632297774,0.022896030411089414,-0.23317263868643665,0.004883161462664661,0.08951625,0.31464594,9.78964425,0.004724,0.00106,0.004998
842481.193222,5.816174000035971,-1.0816291174040649,3.1478615533109418,2.3268508984894556,-0.5829665128600637,0.6412460941306855,0.022687355141860197,-0.23314463747982142,0.004873091116273784,0.10628154,0.32122845,9.76659075,0.001031,0.000271,0.004314
842481.213209,5.836160999955609,-1.081840558473729,3.1523816774257254,2.3278246027080653,-0.5831694726540966,0.6410578926282581,0.022481318606336568,-0.2331208544454351,0.004871894588136444,0.09864936,0.31614687,9.79053696,0.004546,-0.001107,0.004907
842481.233196,5.856147999991663,-1.0820553382936022,3.156822153435009,2.328767344479145,-0.5832022366306132,0.6405882730669942,0.02227670460391514,-0.2330994541123,0.004838926263062164,0.08667135,0.32782077,9.78709365,0.001295,0.000138,0.002735
842481.253183,5.876135000027716,-1.082251897637509,3.161198100970852,2.329710018857245,-0.5835308520779136,0.6399580309369662,0.022073633917110612,-0.23307806943473933,0.004827781922703781,0.09968922,0.32018859,9.7664436,0.002101,0.000698,0.00419
842481.253183,5.876135000027716,-1.0716397568180331,3.1534039457179115,2.330594085885405,-0.5849277508898969,0.6454799859003881,0.02188650642512567,-0.23308310780584884,0.004817048773173794,0.09968922,0.32018859,9.7664436,0.002101,0.000698,0.00419
842481.293157,5.916108999983408,-1.0834926954356365,3.1707490284324558,2.33151459520857,-0.5849426546552998,0.6372216295749686,0.021679428083164136,-0.23304608157527068,0.004788348284387359,0.09909081,0.3008727,9.78919299,0.002124,-0.000918,0.002967
842481.313144,5.936096000019461,-1.083662208043887,3.1749394087862917,2.3324281596524212,-0.5848503632309876,0.637398822094228,0.02147475674109529,-0.233016996472804,0.004737811417697381,0.09160578,0.31239945,9.78021684,0.003558,-0.000297,0.001437
842481.333131,5.956083000055514,-1.083827224973816,3.1790636864857524,2.3333611366739087,-0.5849195579632432,0.6372711494589219,0.02127216414530639,-0.23299172283593717,0.004720715058044863,0.08517042,0.31194819,9.79038981,0.005741,-0.001036,0.003676
842481.353117,5.976068999967538,-1.0839867505027734,3.183124469623467,2.334307066939651,-0.585244771544677,0.6368634417999516,0.021071190856221816,-0.2329677268794532,0.004716207398293649,0.09490194,0.30895614,9.7781175,0.001422,-0.000181,0.004522
842481.373104,5.996056000003591,-1.0841487229732438,3.187124462807202,2.335257642019533,-0.5854499379557612,0.6363401300589226,0.020871357941320338,-0.23294449352941515,0.004716837627098481,0.08801532,0.31524435,9.78814332,0.005994,-0.001684,0.00487
842481.393091,6.0160430000396445,-1.0843005379805024,3.1910700444655453,2.336185525099431,-0.5859412515346836,0.6357050740134658,0.020672626680456316,-0.23292049028245418,0.004703423907884426,0.10343664,0.30716091,9.78275763,0.004033,-0.00046,0.003903
842481.413078,6.036029999959283,-1.0844536804856433,3.194962046185332,2.3371279823835867,-0.5863145441993456,0.634913796587494,0.020474712046156817,-0.23289563564295218,0.004702136557930591,0.1067328,0.31658832,9.7957755,0.001005,0.000208,0.004724
842481.433065,6.056016999995336,-1.0846069719188545,3.198797423105935,2.3380567853938006,-0.5865942967825075,0.6342664168730863,0.020277524949466393,-0.23287043564802207,0.004691149462964845,0.09759969,0.31434183,9.793087560000002,0.004197,-0.000628,0.004053
842481.453052,6.076004000031389,-1.0847576379763295,3.2025786074551164,2.338977942199607,-0.5869712460295909,0.6337066800490395,0.020081223485739808,-0.23284482316692132,0.004673935826763905,0.09774684,0.30670965,9.78275763,0.003531,-0.000359,0.003611
842481.473039,6.095990999951027,-1.084907252337433,3.206318632933579,2.3399023797388274,-0.5869831407934951,0.6330215572313803,0.019885475539094897,-0.23281920392431715,0.004683834375450505,0.08622009,0.32557428,9.79024266,0.002016,0.001473,0.005464
842481.473039,6.095990999951027,-1.0741790647067886,3.1980451079137517,2.3407410720447483,-0.5883533954735092,0.6384393028629021,0.019704871526164413,-0.2328193725810303,0.004693551657893646,0.08622009,0.32557428,9.79024266,0.002016,0.001473,0.005464
842481.473039,6.095990999951027,-1.0636850325274307,3.1898867593527194,2.3415372936470478,-0.590038159679573,0.6423775057603421,0.019535554883385996,-0.2328308462672172,0.004703059204798893,0.08622009,0.32557428,9.79024266,0.002016,0.001473,0.005464
842481.493026,6.115977999987081,-1.0643984323373958,3.193980017167938,2.342368211582059,-0.5913230890773706,0.6388330292083914,0.019360023205060837,-0.23282707090768096,0.004687371530993742,0.10837107,0.31419468,9.77512545,0.006142,-0.000954,0.003688
842481.552987,6.1759389999788254,-1.0881137748834757,3.223596218003583,2.343347347827807,-0.5886836476606349,0.6243004236785031,0.019143638203133622,-0.23274624231178845,0.004669667713643074,0.09999333,0.31959018,9.77541975,0.003505,1.7e-05,0.003579
842481.572974,6.195926000014879,-1.088219173493604,3.2271788838870923,2.3443111575318474,-0.5878690681406877,0.6262056918593973,0.018933882107295134,-0.23269697536212097,0.004655198243431829,0.08756406,0.31404753,9.77228055,0.002316,0.001607,0.003778
842481.612948,6.23589999997057,-1.099700424930626,3.243222542123042,2.345334746024898,-0.5860384100927468,0.6207996473853046,0.018712085966282804,-0.23262480926333837,0.004654963251292848,0.09774684,0.31658832,9.7781175,0.00283,-0.00159,0.004752
842481.612948,6.23589999997057,-1.088644533452172,3.234649142302491,2.346228682364302,-0.5870214713494907,0.6282619492509544,0.018512185910385722,-0.23260762837454385,0.004654900311822801,0.09774684,0.31658832,9.7781175,0.00283,-0.00159,0.004752
842481.632935,6.255887000006624,-1.088708717540854,3.2379842068138855,2.3471108941479457,-0.5877197993478084,0.6271069729100107,0.018313022481636593,-0.23258479016236552,0.004648036986189852,0.10253412,0.31614687,9.75461274,0.002729,-0.000492,0.00428
842481.652922,6.275874000042677,-1.0887719025488123,3.241258138799936,2.34799176387685,-0.5881382964304942,0.6263922707885292,0.018114669655445215,-0.2325594185759188,0.004641860338093842,0.08816247,0.30985866,9.78141366,0.005466,-0.001296,0.00432
842481.692896,6.315847999998368,-1.1002319044981543,3.2569840503870258,2.3490096025763982,-0.5871926246482487,0.6197936533912994,0.017900701923658283,-0.23249972424315624,0.004660528610695508,0.09805095,0.30431601,9.79113537,0.002774,-0.002658,0.006028
842481.692896,6.315847999998368,-1.0891082012422522,3.2481781539394756,2.3498641160453557,-0.5882240672269077,0.626588333564477,0.017705999013847725,-0.23248561202902485,0.004678815126876011,0.09805095,0.30431601,9.79113537,0.002774,-0.002658,0.006028
842481.732869,6.3558210000628605,-1.1005610135130994,3.2637577988568722,2.3508080804854083,-0.5871053666483592,0.619279860567845,0.017493339212593474,-0.23243466797183512,0.004676915870262276,0.08308089,0.31449879,9.7579089,0.001922,0.000101,0.004653
842481.732869,6.3558210000628605,-1.0894069277450722,3.2548388995532878,2.3516534042657113,-0.588299787099729,0.6257172862483907,0.017299085624462255,-0.23242350909451814,0.0046751996041613075,0.08308089,0.31449879,9.7579089,0.001922,0.000101,0.004653
842481.772843,6.395795000018552,-1.1008386376467123,3.270289078569596,2.3525922367199374,-0.5873599141287383,0.6177283268134195,0.017085719228997338,-0.232373184412607,0.004672161339682705,0.0956475,0.32332779,9.78185511,0.003354,0.001125,0.00457
842481.772843,6.395795000018552,-1.0896563690408059,3.261284885415157,2.353436324288916,-0.5885932058636024,0.6241362120669591,0.01689058266804256,-0.23236178787556677,0.0046693362103367355,0.0956475,0.32332779,9.78185511,0.003354,0.001125,0.00457
842481.812817,6.435768999974243,-1.1010668269527435,3.2765917282014283,2.3543457778878194,-0.5877889110904391,0.6165259107761326,0.016676612845189377,-0.23231147939292748,0.004663582748592877,0.09011466,0.31404753,9.79368597,0.005568,-0.002218,0.004375
842481.812817,6.435768999974243,-1.0898509980606226,3.26751343474932,2.3551688237550366,-0.5890483787128212,0.6229268583830877,0.016480782557404514,-0.23229967399844914,0.004658116874682822,0.09011466,0.31404753,9.79368597,0.005568,-0.002218,0.004375
842481.852791,6.47574300004635,-1.1012462447156182,3.2827052650172703,2.356112990316989,-0.5885605521213776,0.6150561774444906,0.016266084136913505,-0.23224738063130634,0.004667910148118776,0.10463346,0.31330197,9.78500412,0.004073,-0.002358,0.005432
842481.852791,6.47574300004635,-1.0900014084549132,3.273559565877035,2.3569280495517475,-0.5897821028896796,0.6215133641020664,0.016069506427355572,-0.23223423476063076,0.0046775567591479435,0.10463346,0.31330197,9.78500412,0.004073,-0.002358,0.005432
842481.892765,6.5157170000020415,-1.1014121396588374,3.288613837142482,2.3578417762304564,-0.5890221728939793,0.6141415258065648,0.01585416373016348,-0.2321828071631872,0.00466934154874638,0.08786817,0.30895614,9.78156081,0.001495,-0.001999,0.004212
842481.912752,6.535704000038095,-1.101024338253739,3.291013084705594,2.358742505924451,-0.5890972892912242,0.6147524039157952,0.015642914349737757,-0.23214181327562605,0.004691596218673553,0.09655002,0.30670965,9.77108373,0.005248,-0.001688,0.006299
842481.932739,6.555690999957733,-1.1006387953482284,3.293366231249689,2.3596036824529687,-0.5892991079101485,0.6146895486555523,0.015434190693132578,-0.23210504867059906,0.004695749763221876,0.09984618,0.31749084,9.7752726,0.00269,0.001237,0.005072
842481.952726,6.575677999993786,-1.1002651947131343,3.2956675942839135,2.360456004798136,-0.5893777102473489,0.6144652876566202,0.015227157162710442,-0.23207096793590912,0.004689258444647958,0.08502327,0.32318064,9.79443153,0.004032,-0.000787,0.004341
842481.972713,6.59566500002984,-1.0998858968218634,3.2979257716115273,2.361290546356697,-0.5899414440420152,0.6142506620281339,0.015022016432115976,-0.23203733706902957,0.004671404202249896,0.09714843,0.30027429,9.80490861,0.004192,-0.00229,0.003548
842481.9927,6.615651999949478,-1.0995164779621935,3.300151869356205,2.362129292498997,-0.5902788649526541,0.6137311236225527,0.014818018378666711,-0.23200362377841433,0.004659874109760991,0.0984924,0.31778514,9.77003406,0.002557,-0.000236,0.003966
842482.012687,6.635638999985531,-1.0991518062126355,3.302344493848021,2.3629475683101244,-0.5904744613919297,0.6133647837513428,0.014615032416860293,-0.23197026216211353,0.004644944969066607,0.08382645,0.31689243,9.77601816,0.003004,-0.002271,0.003717
842482.032674,6.655626000021584,-1.0987900422691346,3.3045028621683414,2.3637680671437353,-0.5908682983527836,0.6131423112131222,0.014413306093204022,-0.23193716433638992,0.004635708310048052,0.08232552,0.30282489,9.79398027,0.004226,0.000132,0.004095
842482.052661,6.675613000057638,-1.0984368275235252,3.3066368500609125,2.3646058130606082,-0.5912617141584185,0.6126529603590695,0.014212513622190533,-0.23190364092583415,0.004641946583685535,0.09236115,0.31194819,9.78574968,0.00217,-0.001601,0.005158
842482.072648,6.695599999977276,-1.0981005207032428,3.308738019967391,2.3654255246960805,-0.5915696380399367,0.6121167993554951,0.014012308682850009,-0.23186992608214702,0.004614027283582652,0.09040896,0.31718673,9.7724277,0.005269,-0.001226,0.002795
842482.092635,6.715587000013329,-1.0977555795660303,3.310828544484157,2.366220851543506,-0.5920697265673088,0.6115143768174558,0.013813064914734876,-0.23183459152461003,0.004600222364971665,0.10537902,0.31270356,9.77377167,0.003853,-0.000207,0.003743
842482.112622,6.7355740000493824,-1.0974288844000868,3.312893863366688,2.3670258093370933,-0.5921922718077354,0.6108985847367239,0.013614248562078279,-0.23179911118472438,0.004593723620983169,0.09176274,0.32871348,9.77826465,0.002989,-0.000601,0.004236
842482.132609,6.7555609999690205,-1.097107218565533,3.31493553666439,2.367827304194833,-0.59246277963134,0.6103933293175002,0.013416136701731599,-0.2317632809631023,0.004590641876968496,0.09295956,0.32018859,9.77407578,0.005528,-0.000774,0.004466
842482.152596,6.775548000005074,-1.0967879167083714,3.316958058158365,2.368628618340864,-0.592941669983334,0.6099084961558161,0.013218992167641512,-0.23172654561040365,0.004597622346487907,0.10238697,0.31134978,9.76568823,0.001599,-0.001208,0.005162
842482.172582,6.795534000033513,-1.0964822034551205,3.3189549217866468,2.369415854674621,-0.5932746159380828,0.6095466302545473,0.013022708360546253,-0.23168974220146224,0.004590947545511671,0.09145863,0.31165389,9.7841016,0.003342,-0.001127,0.004218
842482.192569,6.815520999953151,-1.0961893510498062,3.3209327935410755,2.3702060365443156,-0.5935564427792517,0.6090700475101147,0.012827154422665618,-0.2316527019831591,0.004586171062839115,0.09340101,0.31763799,9.76180347,0.004033,0.000734,0.004343
842482.212556,6.835507999989204,-1.0959021323650653,3.322895248898029,2.3709902396360327,-0.5939730529412083,0.6084422859429612,0.012632330437759775,-0.23161455084525773,0.004580930831294717,0.10762551,0.3182364,9.7869465,0.002796,0.000209,0.004305
842482.232543,6.8554950000252575,-1.0956263213081197,3.324830490996731,2.371738694511672,-0.5942873935025483,0.6082203851175456,0.012438485000218132,-0.23157660853087886,0.004547932181005252,0.08636724,0.30625839,9.7866522,0.003821,-0.00101,0.002362
842482.272517,6.895468999980949,-1.1068855335582524,3.3388975027210583,2.372581752992634,-0.5929660150170372,0.601714631399406,0.012228831151487226,-0.23150507425083405,0.004538890625290525,0.10148445,0.31569561,9.7869465,0.002146,-5.5e-05,0.004015
842482.292504,6.915456000017002,-1.106274280573709,3.3405464152261217,2.3733792051471845,-0.5927741968925678,0.6031361288269386,0.012025003250044694,-0.2314519761556144,0.00452201667689534,0.08846658,0.30132396,9.78141366,0.00502,-0.000387,0.003461
842482.292504,6.915456000017002,-1.0947191573365331,3.3307537741219546,2.374104656618303,-0.5941851289534424,0.6093563340710014,0.011838678986890908,-0.23143349855906728,0.004505730276082696,0.08846658,0.30132396,9.78141366,0.00502,-0.000387,0.003461
842482.332478,6.955429999972694,-1.1059817513898194,3.344709517489347,2.3749224145909054,-0.5936040867367846,0.6014612740708503,0.011633827802326491,-0.23137404107336784,0.00450050425358008,0.10552617,0.31390038,9.80206371,0.004409,-0.000205,0.004231
842482.332478,6.955429999972694,-1.0944126832253047,3.334880516047015,2.375651286319858,-0.5948566180525392,0.607849557847589,0.011446453760848015,-0.2313527995069643,0.004495548868102304,0.10552617,0.31390038,9.80206371,0.004409,-0.000205,0.004231
842482.372452,6.9954040000448,-1.1056954709124487,3.3487466756857223,2.376450650268681,-0.5936404683667232,0.6002073040576547,0.011240029169964546,-0.23129265287721323,0.004489892833363063,0.09086022,0.32287653,9.80026848,0.001999,-0.000506,0.004189
842482.372452,6.9954040000448,-1.0941187042870637,3.338886966944625,2.377162039877417,-0.5949317991093089,0.6066329089744139,0.011051217381093667,-0.23127099900078474,0.0044845194286345985,0.09086022,0.32287653,9.80026848,0.001999,-0.000506,0.004189
842482.412426,7.035378000000492,-1.1053905108440492,3.352678354234691,2.377905788810752,-0.5942716043448033,0.5988479209943969,0.010843618303980281,-0.23120844299814686,0.004454750827788547,0.10867518,0.31598991,9.77092677,0.003915,0.001295,0.002511
842482.412426,7.035378000000492,-1.0938039695625905,3.342787821052635,2.378623714340158,-0.5955278523739697,0.6053506784328113,0.010653689851179047,-0.2311853595910791,0.004425939431828916,0.10867518,0.31598991,9.77092677,0.003915,0.001295,0.002511
842482.4524,7.075351999956183,-1.1050940133456675,3.356496168423048,2.3794021869445867,-0.5942899850799352,0.5981545785600251,0.01044516665560545,-0.23112443985204784,0.00442613856268034,0.08262963,0.31689243,9.78245352,0.004849,-0.001962,0.00452
842482.4524,7.075351999956183,-1.0934973959290704,3.346578285633753,2.3800779915794,-0.5956241366831655,0.6046040702408261,0.010254348187084664,-0.23110189022128028,0.00442645554466566,0.08262963,0.31689243,9.78245352,0.004849,-0.001962,0.00452
842482.492374,7.11532600002829,-1.104798290143939,3.3602177276965803,2.380836871689316,-0.5944033193781294,0.5972821889343958,0.01004464528171572,-0.23104203427069114,0.00441494384512254,0.08172711,0.31959018,9.77677353,0.005553,-0.001319,0.00371
842482.492374,7.11532600002829,-1.0932049647377926,3.350263563872981,2.3815245257717272,-0.5958142504243199,0.6036830206161091,0.00985271240003956,-0.23101988962879963,0.004403875202314481,0.08172711,0.31959018,9.77677353,0.005553,-0.001319,0.00371
842482.532348,7.155299999983981,-1.1045036043094347,3.363845593436698,2.3822649179784428,-0.5948871233331069,0.5960960019591567,0.00964200432744349,-0.230958641073338,0.004388381132802545,0.09445068,0.31943322,9.78649524,0.001302,-0.000905,0.00341
842482.552335,7.175287000020035,-1.103900283869949,3.3651256301022663,2.3830295100992682,-0.5949309385593267,0.5969647334700678,0.009435400213400672,-0.23090876024869952,0.0043915945059283925,0.08471916,0.30536568,9.78934014,0.005296,0.000233,0.004688
842482.572322,7.195274000056088,-1.103298030808528,3.3663932673916728,2.3837496953252915,-0.5951162092908991,0.5967956346060532,0.009231222171316958,-0.23086226145872915,0.004388657826371916,0.10687995,0.32827203,9.78320889,0.002547,4.4e-05,0.004262
842482.592309,7.215260999975726,-1.1027043030780836,3.3676259807972886,2.38446771087785,-0.5954882910343896,0.5966725884863424,0.009029139811882745,-0.23081754280351136,0.0043857738986593856,0.10073889,0.31344912,9.78754491,0.002547,4.4e-05,0.004262
842482.612296,7.235248000011779,-1.1021168613780399,3.3688363097812304,2.3851866451733086,-0.595978692597574,0.5964623064196439,0.008828872541015964,-0.23077322643217527,0.004392176778550802,0.10432935,0.30730806,9.78275763,0.004969,0.000523,0.004903
842482.632283,7.255235000047833,-1.1015439230556112,3.370024827974501,2.385906086971236,-0.5962784110829407,0.5962788237001758,0.008629992219990947,-0.23072959193297296,0.004404176694505062,0.09176274,0.31060422,9.77137803,0.002598,0.000294,0.005298
842482.65227,7.275221999967471,-1.1009796863054886,3.3712001563613625,2.3865995953967545,-0.596694308676371,0.5958786541583514,0.008432189520317724,-0.23068550310378075,0.00439370108530301,0.10448631,0.31239945,9.76913154,0.002048,0.000328,0.003747
842482.672257,7.295209000003524,-1.1004263805131491,3.372371087808815,2.3872703160537236,-0.5967535674126847,0.595355150769923,0.008234953642511905,-0.23064114687532694,0.004387162686850722,0.09624591,0.33141123,9.78320889,0.004416,0.000496,0.004008
842482.692244,7.3151960000395775,-1.0998840683825495,3.373518935209333,2.387952267055951,-0.5970775745245891,0.5951312460653327,0.008038708185976044,-0.2305970392951064,0.004383031396202874,0.09205704,0.31045707,9.77572386,0.000594,-0.000178,0.004169
842482.712231,7.3351829999592155,-1.0993464634331482,3.3746685055241854,2.38862055514202,-0.5973996394042699,0.5946656792841372,0.007843261553959431,-0.23055206988613594,0.0043902687581243,0.10358379,0.31928607,9.7755669,0.003614,-0.000472,0.004955
842482.732218,7.355169999995269,-1.0988257269295554,3.375802687327366,2.3892570034215153,-0.5976628285868648,0.5943290551272298,0.00764850986885081,-0.2305070079655439,0.00436231987465837,0.09595161,0.31718673,9.77692068,0.004536,-0.000738,0.002509
842482.752205,7.375157000031322,-1.0983215566202948,3.37691952330137,2.3899187867935803,-0.5979427491295027,0.5942253243349986,0.007454761042486973,-0.23046253941915004,0.004352445249040488,0.0839736,0.30746502,9.79473564,0.001656,-5e-06,0.003741
842482.752205,7.375157000031322,-1.0867582993037777,3.3668189460180926,2.39051669111066,-0.5995222229652344,0.5997308438966301,0.007275859053261776,-0.2304435380869801,0.004342934647016775,0.0839736,0.30746502,9.79473564,0.001656,-5e-06,0.003741
842482.792179,7.415130999987014,-1.0982647094821432,3.3801173767040216,2.3911549153486247,-0.5983017038505142,0.5916490422447536,0.007075978839421118,-0.23038471936072777,0.004320625023182653,0.08457201,0.3270654,9.76508982,0.001841,-0.000212,0.002855
842482.812166,7.435118000023067,-1.0977841288325272,3.3812287977280437,2.3918129435991684,-0.5985137435593049,0.5918963278361316,0.006878546445606953,-0.2303324919436841,0.004292631451616461,0.10747836,0.31569561,9.76508982,0.004979,0.000494,0.002434
842482.832152,7.455104000051506,-1.0973163786178894,3.3823285776049503,2.3924757619085177,-0.5986394487103492,0.5918290028800242,0.006682890483147868,-0.23028331499198745,0.0042904025257108356,0.09834525,0.32467176,9.79143948,0.004859,-0.000358,0.004203
842482.852139,7.475090999971144,-1.0968630370790449,3.383408847955302,2.3931100234377647,-0.5988758890235657,0.5917955134194419,0.006488798897721385,-0.23023598309854765,0.004261647545921754,0.0896634,0.31494024,9.79248915,0.001442,-0.000146,0.002346
842482.872126,7.495078000007197,-1.0964219172882177,3.384484506213413,2.3937615792503415,-0.5989250401598227,0.5915096951683693,0.006295763801364105,-0.23018957203791723,0.00426682691656197,0.08636724,0.32916474,9.77826465,0.00501,5.9e-05,0.004688
842482.892113,7.515065000043251,-1.0959798911273366,3.385550464755635,2.3943984017622792,-0.5994673029426011,0.5912827778944935,0.006104183841783173,-0.2301427141610811,0.0042695011596303005,0.10193571,0.30536568,9.78919299,0.003297,-0.0005,0.004517
842482.932088,7.5550400000065565,-1.1071974360380736,3.398405482920695,2.395100674212152,-0.597509407601129,0.5851005151827235,0.005896709206345022,-0.2300649663075287,0.004263335684971396,0.08547453,0.3267711,9.77826465,0.005016,-0.001358,0.003913
842482.932088,7.5550400000065565,-1.0953970783517484,3.3881345842753032,2.3957035413467365,-0.5988459493731213,0.5920429354635616,0.0057083062861308835,-0.23003262636467658,0.004257481673737894,0.08547453,0.3267711,9.77826465,0.005016,-0.001358,0.003913
842482.972062,7.595013999962248,-1.106600906219322,3.4009338424099087,2.3964124372408593,-0.5974790578909,0.5850025396851729,0.005502489329303196,-0.22996378279620033,0.004265873720483278,0.08667135,0.32377905,9.77916717,0.003031,-0.00238,0.004904
842482.972062,7.595013999962248,-1.0947940250339014,3.3906162224792387,2.396994198258687,-0.598929954408623,0.5915699103430745,0.00531480145008528,-0.22993428970226062,0.004274156664165724,0.08667135,0.32377905,9.77916717,0.003031,-0.00238,0.004904
842482.992049,7.615000999998301,-1.0943510181444296,3.3915736504453,2.397577389671894,-0.5997352778129034,0.5903976367135423,0.005126179381306836,-0.22989677979401382,0.004275087095557622,0.09011466,0.30625839,9.77347737,0.004407,0.000631,0.004397
842483.012036,7.634988000034355,-1.093927301571039,3.3925312809409474,2.398166140282452,-0.6003110674822457,0.5893473416413042,0.004936847388568437,-0.22985397715169348,0.004266123913266933,0.10537902,0.3179421,9.77946147,0.002697,0.001255,0.003705
842483.05201,7.674961999990046,-1.1051665864175717,3.405239557141003,2.398889627911915,-0.5990572436408,0.5830091332501836,0.004731210410911627,-0.22977678339301702,0.004287565309942001,0.09640287,0.31105548,9.76988691,0.004301,0.000346,0.005815
842483.05201,7.674961999990046,-1.0933539969332227,3.3949183622539674,2.3994437001603828,-0.6003354998345707,0.5898249048805005,0.0045437955294432555,-0.2297434329691547,0.004308544288790359,0.09640287,0.31105548,9.76988691,0.004301,0.000346,0.005815
842483.091984,7.714936000062153,-1.104602767472172,3.407578932842885,2.4000856263809585,-0.5992185125440949,0.5831722871270325,0.004339204702229251,-0.2296736144019294,0.004306690314437752,0.08382645,0.30866184,9.77572386,0.003704,-0.001673,0.004242
842483.091984,7.714936000062153,-1.092785137185463,3.397219953995497,2.400629597717348,-0.6006028985727099,0.5896663773489085,0.004152178333483593,-0.22964277005510786,0.004305010250986478,0.08382645,0.30866184,9.77572386,0.003704,-0.001673,0.004242
842483.131958,7.754910000017844,-1.1040558185983542,3.4098433650073834,2.4013011562540516,-0.5993109778863357,0.5822016252711991,0.003946582442283949,-0.22957402386890305,0.0043087008060831685,0.09265545,0.32572143,9.77737194,0.003405,-0.000999,0.004623
842483.131958,7.754910000017844,-1.0922454320826824,3.3994593333034815,2.401860229033222,-0.6007330955592659,0.5886446909685835,0.00375846208526415,-0.22954340087636949,0.004312409911386242,0.09265545,0.32572143,9.77737194,0.003405,-0.000999,0.004623
842483.171932,7.7948839999735355,-1.1035203178653246,3.4120262265661077,2.402492170205994,-0.5994914926087357,0.5813759680867137,0.003551873556968173,-0.2294748384164099,0.004305934060076345,0.08861373,0.32182686,9.76793472,0.001217,-0.000307,0.003924
842483.171932,7.7948839999735355,-1.0917070697984999,3.4016288632567826,2.4030396896608988,-0.6009422049563976,0.5878113043098836,0.003362748642602007,-0.22944402350417725,0.004299758076006199,0.08861373,0.32182686,9.76793472,0.001217,-0.000307,0.003924
842483.211906,7.834858000045642,-1.1029780905805389,3.414137297660789,2.403693046690181,-0.6003863830957914,0.5810216449956042,0.0031563487353230115,-0.22937502845592764,0.00430260182537369,0.09190989,0.29833191,9.79758054,0.002789,-0.000428,0.004557
842483.231893,7.85484499996528,-1.102245623579035,3.4147031143219126,2.404288542410809,-0.6002125561754221,0.5816653125513256,0.002953457519958569,-0.22931650732981065,0.004301972873882373,0.09295956,0.32213097,9.77496849,0.001712,-0.00156,0.004315
842483.25188,7.874832000001334,-1.10152340375784,3.415245520541351,2.4048667205381467,-0.600266242276065,0.5817945717661924,0.0027529628044774997,-0.22926255109000418,0.00429637723203315,0.09400923,0.32302368,9.77916717,0.002919,0.002255,0.003968
842483.271867,7.894819000037387,-1.1008102618382396,3.4157672804641126,2.4054470301950452,-0.6004626594046788,0.5818336217325093,0.002554428752418867,-0.22921090786368967,0.004302070395868572,0.08876088,0.3150972,9.78799617,0.003994,0.000273,0.004746
842483.271867,7.894819000037387,-1.088998210232396,3.4053016912881495,2.4059416439837307,-0.6020804735486707,0.5874412356439899,0.0023711863083080336,-0.22918566393660905,0.004307697684937428,0.08876088,0.3150972,9.78799617,0.003994,0.000273,0.004746
842483.271867,7.894819000037387,-1.0774535328043175,3.394998240729119,2.4063891069447836,-0.6039259108386275,0.5915418717480905,0.002199319638529089,-0.2291720158886374,0.004313224928570186,0.08876088,0.3150972,9.78799617,0.003994,0.000273,0.004746
842483.331828,7.954780000029132,-1.10088200581066,3.4195860118515946,2.4069855223073064,-0.6020224856353694,0.5772806773329014,0.0019863105267371875,-0.22908368059768208,0.004299940453539186,0.09550035,0.30565998,9.79517709,0.001541,0.001199,0.003449
842483.351815,7.97476699994877,-1.1001834392949152,3.420119957658439,2.4075723882405997,-0.6017116977925558,0.5789795085743628,0.0017786947496562365,-0.2290169140304971,0.004287275071363849,0.08861373,0.30326634,9.77916717,0.003398,-0.000247,0.003474
842483.371802,7.994753999984823,-1.0994917856120028,3.4206304432519206,2.408133000277749,-0.6019125078229051,0.579692255288255,0.001574963492791948,-0.22895828934966705,0.004282398996689966,0.09714843,0.30192237,9.780815250000002,0.005148,-0.001841,0.004
842483.391789,8.014741000020877,-1.0988231001843085,3.4211177581003125,2.408696064517672,-0.6020051201468234,0.5797333269556325,0.0013735052145407802,-0.22890344146896233,0.004272857245277895,0.09759969,0.32093415,9.78185511,0.000596,0.000789,0.00367
842483.411776,8.03472800005693,-1.098164625718835,3.421582981192816,2.4092393658498663,-0.602178731608162,0.5798808867962808,0.0011740831151550067,-0.22885091043092498,0.004256099069722223,0.08277678,0.30835773,9.7841016,0.004649,-0.001482,0.003156
842483.431763,8.054714999976568,-1.0975173202969275,3.4220378535316107,2.409785306746409,-0.6022959086648453,0.579937688962203,0.0009762364897031288,-0.22879995359787092,0.004255786420208564,0.07484049,0.31000581,9.7724277,0.002362,-0.000575,0.004284
842483.45175,8.074702000012621,-1.0968830457920593,3.422488460940679,2.4103407628821802,-0.6024132845046207,0.5796726923825631,0.0007793964780101793,-0.22874950920775466,0.0042667927675200555,0.08337519,0.32003163,9.77632227,0.004639,0.001308,0.005073
842483.471737,8.094689000048675,-1.0962546662757153,3.4229268507060167,2.410882814494654,-0.60297394842258,0.579566206876113,0.0005840129362439454,-0.22869878793464463,0.004260990489404737,0.09295956,0.2948886,9.79143948,0.004745,-0.001275,0.003911
842483.491724,8.114675999968313,-1.0956408579690315,3.4233728831497197,2.4114127444140347,-0.6031944506821101,0.5791562581606124,0.00038938694226099826,-0.22864744985455268,0.004261622453121836,0.09504909,0.31838355,9.77632227,0.002659,-0.000132,0.004353
842483.511711,8.134663000004366,-1.0950370672970824,3.423816755250996,2.411930129467091,-0.6035056179852385,0.5788292118634886,0.00019559765436827562,-0.22859555569355092,0.004257519456031433,0.09700128,0.3122523,9.77482134,0.004042,-1.6e-05,0.004022
842483.531698,8.15465000004042,-1.0944437096869242,3.4242636259290076,2.4124409478878057,-0.6038886088571241,0.5784187662224202,2.60128178287574e-06,-0.22854265045617925,0.004254073227622609,0.1070271,0.3125466,9.79053696,0.004087,-0.001468,0.004063
842483.551685,8.174636999960057,-1.0938789004408762,3.424703411731882,2.4129355736939697,-0.603787904258725,0.5781068165937915,-0.00019010002997381614,-0.22849039390793283,0.00422637727771522,0.08308089,0.32976315,9.77737194,0.001843,7.4e-05,0.002363
842483.571672,8.19462399999611,-1.0933214449262771,3.425145506925155,2.413436451574852,-0.6039658731123405,0.5778051986025349,-0.00038215276846886235,-0.2284379266418174,0.004212015067118877,0.09236115,0.3198844799999999,9.76329459,0.004913,-0.001252,0.003267
842483.591659,8.214611000032164,-1.0927757438630592,3.425591130959924,2.41392051854809,-0.6041458671651895,0.5775506744376688,-0.0005735158309301225,-0.22838528740110148,0.004193353759552155,0.09056592,0.31883481,9.78754491,0.001794,9.2e-05,0.00295
842483.611646,8.234597999951802,-1.0922433898982788,3.4260329123264186,2.414413785978768,-0.6045416709034611,0.5774260762725013,-0.0007638737948485386,-0.22833251865930054,0.004177520146425572,0.09310671,0.30506157,9.7894971,0.003395,-0.000692,0.003129
842483.65162,8.274572000023909,-1.1034663574505117,3.4379958656821787,2.4149514165565167,-0.6026401980731768,0.5714747248501532,-0.000969791093286753,-0.2282487654833863,0.004156082309304262,0.0865242,0.32213097,9.77692068,0.000878,0.000382,0.002746
842483.65162,8.274572000023909,-1.091478402385222,3.427389354452918,2.4154322362937712,-0.6039919797272796,0.5783418895488132,-0.0011573201092544344,-0.2282097251684282,0.0041353769800323735,0.0865242,0.32213097,9.77692068,0.000878,0.000382,0.002746
842483.671607,8.294559000059962,-1.0909589084916023,3.4278096976951544,2.4159085252162535,-0.6046657714120147,0.5770740330127245,-0.0013456032584714616,-0.22816321688628638,0.004126255119754868,0.10896948,0.320787,9.77362452,0.005348,0.00016,0.003538
842483.691594,8.3145459999796,-1.090461872467632,3.4282271085739655,2.416410025685015,-0.605026726782875,0.5763658354024519,-0.0015341688724727397,-0.22811303582490397,0.004130822890646174,0.09714843,0.31928607,9.7929306,0.004527,-0.000101,0.00449
842483.711581,8.334533000015654,-1.0899815880003636,3.4286503494074445,2.4169140016799107,-0.6051797510190078,0.5759050916600046,-0.0017227585272957045,-0.22806116621158817,0.004144832226905265,0.08935929,0.32302368,9.8043102,0.003036,-0.000399,0.005157
842483.731568,8.354520000051707,-1.0895135948837888,3.429080770573378,2.4173874707901524,-0.6054421475374517,0.5754706182147573,-0.0019111122979077308,-0.22800791909410792,0.004132488696181715,0.0984924,0.32063004,9.79413723,0.005358,0.000112,0.00332
842483.771542,8.394494000007398,-1.100800986077292,3.4410063743058377,2.4179690825275006,-0.6040050264683735,0.5693594663694863,-0.0021148535872856145,-0.22792124939609373,0.004146310708184526,0.10343664,0.31629402,9.79533405,0.002765,-0.000329,0.005138
842483.791529,8.414481000043452,-1.10000139265151,3.4411963405612127,2.41847387833616,-0.6037801854900482,0.5706552181101123,-0.0023135350912112285,-0.22785184248613943,0.004125033192848954,0.10328949,0.31703958,9.77302611,0.005504,-0.000493,0.002715
842483.811516,8.43446799996309,-1.0992086855753114,3.441360483224809,2.418985507142608,-0.6038444707543056,0.5712117505472766,-0.002508696763105237,-0.22778954926195977,0.0041396023912057,0.1013373,0.31658832,9.78470001,0.002109,-0.000121,0.005179
842483.811516,8.43446799996309,-1.0872635524346566,3.4307246855563154,2.4193944290320193,-0.6053988799413025,0.5771183029802887,-0.002688092616301557,-0.22775687609665246,0.004153865109141707,0.1013373,0.31658832,9.78470001,0.002109,-0.000121,0.005179
842483.85149,8.474442000035197,-1.0985947082302383,3.4425914540910116,2.4198876482256715,-0.6041294603017597,0.5697957735323669,-0.002886440053562413,-0.22768553818436454,0.004146103453217031,0.08636724,0.32063004,9.76778757,0.003874,-0.000492,0.003658
842483.85149,8.474442000035197,-1.0866543568387854,3.431966580101797,2.4203056988905223,-0.6055773552507842,0.5760585461386867,-0.0030683993971378945,-0.22764952645043587,0.0041386685937921325,0.08636724,0.32063004,9.76778757,0.003874,-0.000492,0.003658
842483.891464,8.514415999990888,-1.0979902187851363,3.4438238531120247,2.420802092245486,-0.6043655949960138,0.5683216157349162,-0.003269435265473021,-0.22757331073599116,0.004132673387251042,0.1077726599999999,0.33095997,9.7724277,0.00644,-0.00143,0.003765
842483.891464,8.514415999990888,-1.0860536475109228,3.4332144648513694,2.4212139388163134,-0.6057767235434068,0.5748065165242224,-0.003453626774113679,-0.22753498892556376,0.004126961632173646,0.1077726599999999,0.33095997,9.7724277,0.00644,-0.00143,0.003765
842483.931437,8.55438900005538,-1.0973994925781831,3.445016109651828,2.4217203936468223,-0.6047468295116788,0.568120597017298,-0.003655528512967643,-0.22745904849933607,0.004127349642780173,0.08981055,0.31000581,9.78829047,0.002124,-0.000361,0.004196
842483.931437,8.55438900005538,-1.085465758973311,3.434401689279172,2.422125479499382,-0.6061822587916864,0.574585290713136,-0.003840555932582671,-0.22742086435991507,0.004127843584293473,0.08981055,0.31000581,9.78829047,0.002124,-0.000361,0.004196
842483.971411,8.594363000011072,-1.0968206775042866,3.446191646561771,2.4226385679521787,-0.6054566918962556,0.5679758840655509,-0.0040426513977806925,-0.22734463047842293,0.004137487104261104,0.09355797,0.30117681,9.77482134,0.003082,2.1e-05,0.004839
842483.991398,8.614350000047125,-1.0960677120910085,3.446313280271549,2.4231090080933946,-0.6052689804897627,0.5686762321379202,-0.004241400574944661,-0.22727881089473279,0.004161190690485672,0.09968922,0.32437746,9.77452704,0.004671,-0.00057,0.005824
842484.011385,8.634336999966763,-1.0953247084232711,3.446414180718179,2.423546623166211,-0.6053464788545411,0.5691933801309755,-0.004437464599659878,-0.2272182471473334,0.004171420732971539,0.08592579,0.3107513699999999,9.79173378,0.004186,1.7e-05,0.004909
842484.031372,8.654324000002816,-1.0946015899672237,3.446500235178083,2.4239739385043437,-0.6055214494776645,0.5692708755463293,-0.004631744262883108,-0.22716007971369986,0.004154704213781256,0.0925083,0.31614687,9.77437008,0.002343,-0.000363,0.003043
842484.031372,8.654324000002816,-1.0826872328201316,3.435844002806291,2.4243457448316974,-0.6071337135715114,0.5748619842127308,-0.004811196545106329,-0.22712817713105887,0.004138538447250555,0.0925083,0.31614687,9.77437008,0.002343,-0.000363,0.003043
842484.051359,8.67431100003887,-1.0823117329205352,3.436175522761377,2.424713353573029,-0.607790933947301,0.5730801137828094,-0.004993680967573838,-0.2270856067695773,0.00411791016497112,0.0928026,0.31868766,9.78620094,0.00588,-0.000777,0.002713
842484.091333,8.714284999994561,-1.0937680748312941,3.4479509950122846,2.4251839433742965,-0.6064360351504247,0.5663165813443415,-0.005194143164865704,-0.22700605234575372,0.004125657291235945,0.09355797,0.31778514,9.77572386,0.001051,1.5e-05,0.004695
842484.11132,8.734272000030614,-1.0930821629965206,3.448072257422877,2.4256186439726584,-0.6063899169467859,0.5672233028267112,-0.005391071413236896,-0.22693839186766965,0.004121152644416038,0.10298538,0.31449879,9.79248915,0.005399,0.000518,0.003847
842484.131307,8.754258999950252,-1.092409326823233,3.4481784402752003,2.4260299353275396,-0.60653991834811,0.567795058830266,-0.005585228705061179,-0.22687628902045776,0.004111738090577419,0.09116433,0.30775932,9.79038981,0.000396,0.000325,0.003498
842484.151294,8.774245999986306,-1.091755460737297,3.448283168752748,2.426448252262639,-0.6065386988754755,0.5677441727225313,-0.005777871346539213,-0.22681657735193006,0.004113198061757244,0.09640287,0.33006726,9.77257485,0.004558,0.001869,0.004247
842484.171281,8.79423300002236,-1.0911114076798305,3.4483838343237467,2.4268513224390746,-0.6066034362435967,0.5677017071514651,-0.005969208571637831,-0.22675814524478322,0.004114524984647412,0.09056592,0.32467176,9.79697232,0.004143,-0.001164,0.004238
842484.191268,8.814220000058413,-1.090481340650008,3.4484770818581922,2.427246440916522,-0.6068438252066116,0.5676648546335047,-0.0061593133474466205,-0.22670040263453156,0.004100608994750141,0.09205704,0.31524435,9.77916717,0.00104,0.001575,0.003174
842484.211255,8.83420699997805,-1.0898553663995254,3.4485840672014083,2.4276295918999056,-0.6070932432672248,0.5674721278982651,-0.006348382824467256,-0.22664222720755073,0.00410656035135086,0.09954207,0.31898196,9.77572386,0.004495,-0.000208,0.004547
842484.231242,8.854194000014104,-1.0892460994126165,3.448687826824382,2.428025878610142,-0.6073351192303849,0.567393677194714,-0.006536496462696509,-0.226584308597014,0.004120967382982634,0.09340101,0.31434183,9.77182929,0.00249,-0.000168,0.005145
842484.251229,8.874181000050157,-1.0886549271955903,3.448790834128427,2.4284258143256565,-0.6075970420893377,0.5672839645284302,-0.006723741036358735,-0.22652653119113386,0.004129557151431964,0.09430353,0.31374342,9.79233219,0.003505,0.000501,0.004753
842484.271216,8.894167999969795,-1.0880794322700116,3.448893757597665,2.4288324841818687,-0.6078661581572629,0.5673260064489732,-0.0069099819566795055,-0.22646920066295695,0.004145589562201592,0.08607294,0.3070137599999999,9.78424875,0.005541,-0.000871,0.005283
842484.291203,8.914155000005849,-1.087518009308754,3.449008026712606,2.429202175254664,-0.6080691097749277,0.5671747411773984,-0.007095490427309603,-0.226411721237135,0.00413598693706936,0.09116433,0.31584276,9.768690090000002,0.00265,-0.001652,0.003502
842484.311191,8.934143000049517,-1.0869733177372503,3.4491234310664876,2.4295895557333207,-0.6083999528359882,0.5670729513246696,-0.007280134840276472,-0.2263541631543922,0.004134149394454247,0.09385227,0.30835773,9.77781339,0.002478,-0.002311,0.004037
842484.331178,8.954129999969155,-1.08644863727224,3.449242603613701,2.429944419039595,-0.6084910193668337,0.5670124569361261,-0.007464126725899795,-0.2262970423864907,0.00410326486840149,0.08143281,0.31629402,9.7433901,0.005162,-0.001636,0.001997
842484.351165,8.974117000005208,-1.0859344044884065,3.449369525660058,2.4303261441715875,-0.6087930955858954,0.5669059035357742,-0.007647273698918387,-0.22623975041569772,0.004101179075112002,0.09086022,0.30895614,9.76809168,5.9e-05,-0.00112,0.003986
842484.391139,9.0140909999609,-1.0972553120173354,3.4608119450020025,2.4307975434261673,-0.6068711322193477,0.5611272726987809,-0.007845480335755372,-0.22615195026847848,0.004109644343668354,0.08607294,0.32138541,9.752817510000002,0.001621,-8.6e-05,0.004722
842484.411126,9.034077999996953,-1.0964102898272547,3.4607042863806776,2.431212845475341,-0.6065044038390529,0.5623329734207331,-0.008038896922681909,-0.22608094501668796,0.004104954495598875,0.0925083,0.32662395,9.75731049,0.002052,0.00063,0.003816
842484.411126,9.034077999996953,-1.0843642079764446,3.449955074957677,2.4315447129660717,-0.608073505609398,0.5684524676433858,-0.008216042988043131,-0.22604279556892673,0.004100498851744997,0.0925083,0.32662395,9.75731049,0.002052,0.00063,0.003816
842484.4511,9.074051999952644,-1.0956772964554307,3.461368768918577,2.431967539052888,-0.6073422424774542,0.5613771098883392,-0.008410368197280891,-0.2259654079116314,0.004097450169782903,0.10119015,0.30880899,9.7986204,-0.000408,0.000623,0.003921
842484.4511,9.074051999952644,-1.0836248745191304,3.450620517380167,2.432301332749714,-0.60874252643488,0.5676935576726516,-0.008588486622317884,-0.2259245199056717,0.00409459860027641,0.10119015,0.30880899,9.7986204,-0.000408,0.000623,0.003921
842484.491074,9.11402600002475,-1.094964386902735,3.4620130269228953,2.4327730658125954,-0.6074538896853459,0.5607760872645673,-0.008784284412304433,-0.22584602900300763,0.004120092279944528,0.09160578,0.31808925,9.78485697,0.005865,-0.000834,0.005894
842484.491074,9.11402600002475,-1.0829126126602255,3.4512715302817276,2.4330791202957283,-0.6088502370156461,0.5671399173349049,-0.008963800326120035,-0.22580456638140828,0.0041449909939586084,0.09160578,0.31808925,9.78485697,0.005865,-0.000834,0.005894
842484.531048,9.153999999980442,-1.0942652653365308,3.4626584127810105,2.433497233248003,-0.6073965041385821,0.5598064507800561,-0.00916170365985523,-0.2257246476409157,0.004151249106649827,0.10014048,0.33095997,9.78005988,0.004114,0.001362,0.004609
842484.531048,9.153999999980442,-1.0822217509104632,3.4519281207020116,2.4338001942602645,-0.6088174586098283,0.5662558709088983,-0.009343086000598239,-0.22568231582302628,0.0041574474974677735,0.10014048,0.33095997,9.78005988,0.004114,0.001362,0.004609
842484.571022,9.193974000052549,-1.093583892083906,3.4632663938407884,2.434192706356715,-0.6077485422128898,0.5597897676507622,-0.009541675311543143,-0.22560333046367853,0.004147333089323778,0.08712261,0.30866184,9.79353882,0.003722,-0.000281,0.003485
842484.571022,9.193974000052549,-1.08155007502663,3.452526539325959,2.4345139035801626,-0.6092009599552493,0.5661832458396022,-0.00972380307174245,-0.22556147732955004,0.004137612707987111,0.08712261,0.30866184,9.79353882,0.003722,-0.000281,0.003485
842484.610996,9.23394800000824,-1.0929290742296291,3.46386789715769,2.4348707164649657,-0.6081335659344018,0.5594414432324437,-0.009923269341541701,-0.22548191587433888,0.004116877454892087,0.09340101,0.3129978599999999,9.77766624,0.001594,0.000228,0.002726
842484.630983,9.253935000044294,-1.0921320594862796,3.4637017405197668,2.435250934424989,-0.6081456886092563,0.5603562849961614,-0.010119080245411107,-0.22541272718969707,0.004122929937620689,0.09924777,0.31150674,9.7781175,0.00454,-0.000505,0.004564
842484.65097,9.273921999963932,-1.0913446695360431,3.4635258147035857,2.4355929405114356,-0.6084189893220061,0.5607874731682929,-0.010312175662764843,-0.22534778892370877,0.00410919307969089,0.10223982,0.30730806,9.81733788,0.003899,-0.000597,0.003192
842484.65097,9.273921999963932,-1.0793220327464577,3.45276652267004,2.4358738638848836,-0.6099881148411685,0.5665121361746613,-0.01049041761471862,-0.22531059293866565,0.0040959264768782415,0.10223982,0.30730806,9.81733788,0.003899,-0.000597,0.003192
842484.690944,9.313896000036038,-1.090757136527787,3.464099154236804,2.436271409986338,-0.608868388799063,0.5595925338591279,-0.010687044995922445,-0.2252355633399822,0.004107627581623061,0.08292393,0.31150674,9.78470001,0.00483,-0.000879,0.004936
842484.690944,9.313896000036038,-1.0787436430989614,3.453367911654425,2.4365461065117673,-0.6103136075345968,0.5657403540094992,-0.010868015977146967,-0.22519463048890656,0.004119109726502933,0.08292393,0.31150674,9.78470001,0.00483,-0.000879,0.004936
842484.730918,9.35386999999173,-1.0901880862617113,3.4647078903760424,2.4369009720923813,-0.6094052801401298,0.5588601533583903,-0.011066555072798365,-0.22511526188922884,0.0041159888322308425,0.09684432,0.30955455,9.77721498,0.003234,8.1e-05,0.003927
842484.750905,9.373857000027783,-1.0894448838322495,3.46455532938731,2.437239866390385,-0.6091597508275316,0.5596459716636554,-0.01126212173505928,-0.22504605882154702,0.004120672638263569,0.09236115,0.32318064,9.79383312,0.004739,-0.001073,0.004465
842484.770893,9.393844999955036,-1.088715573069873,3.46438845118961,2.437582135209439,-0.6094056324134667,0.5600352794157595,-0.011455225204411057,-0.22498113424398403,0.004122100509499124,0.10014048,0.30835773,9.780511140000002,0.002964,-0.001333,0.004243
842484.770893,9.393844999955036,-1.0767295448757939,3.453654639595714,2.4378445859642497,-0.610975145895705,0.5657175962256223,-0.011633632842568213,-0.22494359586696988,0.004123577451279822,0.10014048,0.30835773,9.780511140000002,0.002964,-0.001333,0.004243
842484.810867,9.433819000027142,-1.0882384935417675,3.4649993924838873,2.4381748329203354,-0.609886169626521,0.5582803243615099,-0.011830814220853724,-0.22486632061312595,0.004114622664983894,0.09834525,0.3204828899999999,9.79697232,0.00511,-0.0004,0.003523
842484.830854,9.453806000063196,-1.10198502084667,3.5023320077219307,2.4311773252236843,-0.6218604854663397,0.5790015774164684,-0.011946711307286088,-0.22487164532458223,0.004115961846645246,0.10657584,0.31554846,9.77257485,0.001607,-0.000101,0.004023
842484.850841,9.473792999982834,-1.1154795786077416,3.53922529853652,2.424347927973786,-0.6320520776159545,0.5967764029311154,-0.012034941621999777,-0.2248863578410225,0.0041259967151100925,0.09759969,0.30806343,9.77063247,0.004647,4e-05,0.004638
842484.870828,9.493780000018887,-1.1287332976893307,3.575691370534089,2.4176638712696352,-0.6403191822334822,0.6122327886978791,-0.012100988056419848,-0.22490640135692105,0.004107061752942447,0.08262963,0.31479309,9.7692885,0.003061,3.5e-05,0.002633
842484.890815,9.51376700005494,-1.1417410285748093,3.6117526024571354,2.411190477022025,-0.6470062748655959,0.6254032602587724,-0.012149327015171605,-0.22492826372306451,0.004126031308296275,0.09714843,0.33215679,9.78829047,0.002117,0.001201,0.00527
842484.910802,9.533753999974579,-1.154508881764194,3.64738906561907,2.404879322893734,-0.6526268619702674,0.6373716613943002,-0.012182675409075428,-0.22495118290804317,0.004104903303449496,0.09236115,0.30895614,9.79967007,0.004233,-0.00228,0.002496
842484.930789,9.553741000010632,-1.1670332341517147,3.682624996254469,2.398756751084596,-0.6570894593764675,0.6481153130699225,-0.012203555882360995,-0.2249742147059799,0.004104233354222801,0.09011466,0.30431601,9.78261048,0.003761,-0.002438,0.003913
842484.950776,9.573728000046685,-1.1793279908917838,3.7174620584644327,2.3928301630491005,-0.6603552159252839,0.6575492918771326,-0.012214612955260815,-0.22499716271193768,0.00410998619295665,0.09071307,0.3182364,9.78455286,0.002088,0.00011,0.004371
842484.99075,9.613702000002377,-1.2044682001168343,3.7655778353682887,2.3869755031736357,-0.661888457390567,0.6617670197841587,-0.012238880477825122,-0.22498799230337813,0.004115244225492109,0.08921214,0.31524435,9.79084107,0.001651,0.000736,0.004343
842485.010737,9.63368900003843,-1.2161689666431679,3.7999286149431475,2.3812545356377193,-0.6636012113368391,0.6718579086455272,-0.012249666569064845,-0.22499618723162473,0.004101749860908613,0.09100737,0.31644117,9.77467419,0.004338,-0.000416,0.003058
842485.030724,9.653675999958068,-1.2276378600834292,3.833840516455404,2.3757560842949133,-0.6649348916489578,0.6801948017703784,-0.012250415896393807,-0.22501204637303165,0.004112746821668801,0.0928026,0.31419468,9.7897914,0.003423,-0.002664,0.004748
842485.030724,9.653675999958068,-1.2263934502102567,3.8540352528163586,2.370536030136787,-0.6663736629353432,0.6922361425721065,-0.012226414965914152,-0.2250583229167074,0.004123269220743978,0.0928026,0.31419468,9.7897914,0.003423,-0.002664,0.004748
842485.070699,9.69365100003779,-1.250704700405758,3.9011487119460413,2.365424984633086,-0.666233381344502,0.6910824321852733,-0.012217738167159693,-0.22506595634785218,0.0041188005007415695,0.10044459,0.31239945,9.76508982,0.004423,-0.001136,0.00372
842485.090686,9.713637999957427,-1.2614913805736094,3.933830193294448,2.3604922609234613,-0.6656898168825885,0.6974912715593492,-0.01220396332296599,-0.22508252659923633,0.00410956864471081,0.08352234,0.31449879,9.77228055,0.003057,-0.000766,0.003393
