timestamp,time_rel,x,y,theta,vx,vy,bias_accel_x,bias_accel_y,bias_angular_velocity,accel_x,accel_y,accel_z,gyro_x,gyro_y,gyro_z
880260.202149,0.0,-0.0017529147130770867,0.0038912738303107535,0.10465068138096534,-0.2196297887934699,0.1296140048398891,6.413450341493397e-05,-0.0001423713959936015,0.002886224182892006,-9.41272443,0.4252635,-3.07535652,0.002747,-0.025133,0.003743
880260.242121,0.03997199994046241,-0.5217606405562988,-0.2341285820505839,0.18865408584975807,-0.40416006762821255,0.037161768345002316,0.00010940555311701378,-0.0005803974935476712,0.002800719167913876,-9.358533990000002,0.30955455,-2.89617687,0.000973,-0.004891,0.002929
880260.262107,0.05995799996890128,-0.8343789729925483,-0.37835715097767486,0.26585471055901655,-0.4636271543219545,0.05267849636045039,0.00012014668647073895,-0.0010658277911050763,0.0026160762187917644,-9.41871834,0.36823797,-2.8472249700000005,0.002,-0.004968,0.002434
880260.282092,0.07994299998972565,-1.044745329872288,-0.4727701548377402,0.336154538918342,-0.49643779019700723,0.039725938914354574,9.785144817322636e-05,-0.0016192455049110102,0.0033707517569499766,-9.39012219,0.42317397,-2.8548669600000003,0.000555,0.007405,0.006018
880260.282092,0.07994299998972565,-1.1866365905601162,-0.5485158538646463,0.398709406983639,-0.42713980131490564,0.015475448154855355,1.1197137558700362e-05,-0.0016236111970271703,0.0038499580502064723,-9.39012219,0.42317397,-2.8548669600000003,0.000555,0.007405,0.006018
880260.322064,0.11991499993018806,-1.3081512416385264,-0.5968080904432489,0.4475901885886455,-0.44819544735691397,-0.22234975828357595,-0.00015555942230537363,-0.0023643124435599374,0.003923822440561575,-9.446255010000002,0.36299943,-2.84198643,-0.000543,0.005311,0.004544
880260.362035,0.1598859999794513,-1.4050212625326803,-0.6366928122441693,0.48103056218562124,-0.4706767087176978,-0.38843089521380786,-0.0004959591408961902,-0.0037932055778974877,0.0036762238713506025,-9.370512000000002,0.40445649,-2.88644535,0.001947,-0.002293,0.002443
880260.382021,0.17987200000789016,-1.4756050021660219,-0.669788382174611,0.508575131259362,-0.4577945974270506,-0.406727966955697,-0.0008738441746531737,-0.005066977519913643,0.004041445971790499,-9.44132058,0.39548034,-2.8620478800000004,0.003913,0.005047,0.00692
880260.402007,0.19985800003632903,-1.533534386261685,-0.6978165217951053,0.5306399880537342,-0.4429798956728341,-0.4317865571092981,-0.0012907207676361911,-0.006361831815868863,0.004089554767690413,-9.36961929,0.32557428,-2.88405171,0.006806,-0.004004,0.004733
880260.402007,0.19985800003632903,-1.5743128163821978,-0.7183414878519987,0.554601577192706,-0.40542420490294706,-0.3457069286803003,-0.0015866438487746103,-0.007132152865096129,0.004132671908352861,-9.36961929,0.32557428,-2.88405171,0.006806,-0.004004,0.004733
880260.441978,0.23982899996917695,-1.6239737373789138,-0.741514187516074,0.5661244025932395,-0.4177040873872504,-0.5203214325074217,-0.002153744830955885,-0.008906844166603853,0.004262697184698031,-9.414823770000002,0.40296537,-2.8827077400000003,0.010974,-0.001809,0.005846
880260.461964,0.2598149999976158,-1.65955019308934,-0.7590406644771999,0.5782190569379235,-0.4149130716108183,-0.519418834358225,-0.002760935560719651,-0.010576775215058953,0.004120695557014133,-9.36018207,0.33081282,-2.8957256100000004,-0.000742,0.000136,0.00281
880260.48195,0.2798010000260547,-1.690381846239708,-0.7744040573438193,0.5896350418383483,-0.4093109613148283,-0.5242859548472861,-0.003403350758621316,-0.012220315728238503,0.004119976530923466,-9.41407821,0.38560167,-2.86518708,0.003103,-0.001009,0.004369
880260.48195,0.2798010000260547,-1.7100127145717736,-0.7829847803946623,0.6046927220952854,-0.3827637554127547,-0.4207597891671655,-0.0038596920278435487,-0.013218706457083843,0.0041221778821066805,-9.41407821,0.38560167,-2.86518708,0.003103,-0.001009,0.004369
880260.521921,0.3197719999589026,-1.742166556281202,-0.7990107227612543,0.6117318928590354,-0.3887268741912979,-0.576217638515187,-0.004636088046269975,-0.015238242699670458,0.004222720164260955,-9.35659161,0.36374499,-2.90516283,-0.002382,0.001043,0.0059
880260.541907,0.33975799998734146,-1.7636109011983607,-0.8091478336646095,0.6204630234787532,-0.3883360285974451,-0.5631801640533729,-0.005418211831049662,-0.01708478829817951,0.0042595689457789465,-9.42754734,0.36688419,-2.8515708,0.009316,-0.002671,0.005078
880260.561893,0.35974400001578033,-1.7827209173631742,-0.8182401877976848,0.6293975726272452,-0.38247873502727,-0.5567078166560643,-0.006206973372863383,-0.018853624024124247,0.004270900724758429,-9.3730626,0.36164565,-2.8880934300000005,-0.001936,0.003472,0.004714
880260.581878,0.3797290000366047,-1.7998711059964614,-0.8263797075522127,0.638176034409859,-0.3750715870269901,-0.5537896994759768,-0.007004037244446085,-0.020587166263111665,0.004306869524710527,-9.37156167,0.39952206,-2.88929025,0.004335,-0.003071,0.005172
880260.601864,0.39971499994862825,-1.8153774986910296,-0.8336493932546196,0.6466463484330127,-0.366490701920125,-0.5530132586589365,-0.007810675194643741,-0.02230777336118124,0.004333209013003871,-9.4169133,0.38185425,-2.86803198,0.006505,0.00013,0.005059
880260.62185,0.4197009999770671,-1.8294638983308997,-0.8401606407547095,0.6548642362305248,-0.35704249459156934,-0.5519912378903888,-0.008624823287269379,-0.02402366148942183,0.004344780251424599,-9.38368683,0.34353639,-2.88225648,-0.001328,0.001503,0.004819
880260.641836,0.439687000005506,-1.8422846404353224,-0.8459660821045758,0.6628409184974364,-0.34848580649858324,-0.5514834583449367,-0.009447303444976235,-0.025737975504278653,0.004245019835469898,-9.39970656,0.40026762,-2.87327052,0.009193,-0.006003,0.002547
880260.66182,0.45967100001871586,-1.854009634698727,-0.8511400750226001,0.6706933583721919,-0.33988525478924514,-0.5508617796101567,-0.010276224328500897,-0.027452923501822865,0.004293687474146597,-9.40074642,0.40296537,-2.86279344,5e-05,0.005334,0.005553
880260.681806,0.4796569999307394,-1.8647755962527757,-0.8557523666438925,0.6784140459899799,-0.3304577875108931,-0.5493659847658893,-0.011109101299623418,-0.029168944946200957,0.004302838178065211,-9.36842247,0.35625996,-2.883159,0.006173,-0.006295,0.004762
880260.701792,0.49964299995917827,-1.87466853819419,-0.859821775218896,0.6859956121594313,-0.3215273812852942,-0.5485101167061801,-0.011946710496050948,-0.030887475455888682,0.004326446930328792,-9.41422536,0.38574882,-2.8692288,0.000749,0.001626,0.005119
880260.721778,0.5196289999876171,-1.8837778957922857,-0.8634162375989447,0.6934578804181406,-0.3129726805055324,-0.5471622525571429,-0.012788187181033228,-0.03260686243321755,0.004337127912843642,-9.39731292,0.40715424,-2.8886918400000003,0.001799,0.00203,0.004853
880260.741763,0.5396140000084415,-1.8921978823604872,-0.8665795991921138,0.7008290160320607,-0.30357496185165694,-0.545106695585544,-0.013630596312440112,-0.03432793363642809,0.004247723619378887,-9.37859544,0.36104724,-2.90156256,0.007603,-0.006387,0.002364
880260.761749,0.5596000000368804,-1.899982080671584,-0.8693218352385584,0.7081219054629808,-0.29456709355746463,-0.5435480341240096,-0.014474885723961344,-0.03605146500488863,0.004289843922873275,-9.41616774,0.38096154,-2.8678848300000004,-0.001515,0.005458,0.005617
880260.781735,0.5795859999489039,-1.9071889755856222,-0.8717026978482059,0.71532173372443,-0.2854290467495476,-0.5411078142577447,-0.015319210013492068,-0.0377758501664892,0.004235712799130195,-9.38009637,0.36898353,-2.90605554,0.006299,-0.004509,0.003115
880260.801721,0.5995719999773428,-1.9138650373881692,-0.8737351776742213,0.7224758537651295,-0.2764560562958499,-0.5386011116576707,-0.01616276928325142,-0.03950125517801041,0.004204321539525715,-9.38084193,0.37811664,-2.88615105,0.000702,0.000197,0.003649
880260.821706,0.6195569999981672,-1.9200638279024114,-0.8754340965364629,0.7295820646559186,-0.26753199204571254,-0.5364291265377755,-0.01700608369514578,-0.04122867529464979,0.0042847217002746334,-9.40987953,0.38020617,-2.8551612600000005,0.003913,0.000588,0.006787
880260.841692,0.639543000026606,-1.9258215336741475,-0.8768470692758582,0.7366153035739602,-0.25831027900842524,-0.5334796293106184,-0.01784712683123204,-0.042957450660847454,0.004215230789125547,-9.379341,0.35880075,-2.89347912,0.004216,-0.002026,0.002534
880260.861678,0.6595289999386296,-1.9311672706437735,-0.8779680323457848,0.7435682208402943,-0.24966596939286245,-0.5308278326093863,-0.01868778289450821,-0.04468672486751256,0.004184490791081749,-9.39521358,0.38844657,-2.8689345,-0.001811,0.002726,0.003581
880260.881663,0.6795139999594539,-1.9361502039754557,-0.8788282851026674,0.7505034978907488,-0.2406028722822697,-0.5278291595107094,-0.019526136243782275,-0.04641754628187026,0.004276217621297812,-9.3904263,0.35730963,-2.8827077400000003,0.004292,0.001038,0.007331
880260.901649,0.6994999999878928,-1.9408056894403884,-0.879451312323866,0.7573644249537992,-0.2302665969213623,-0.524205463935852,-0.0203593706401616,-0.04815229934265112,0.004163803587102472,-9.38548206,0.27453285,-2.98688994,-0.005318,0.010569,0.001001
880260.901649,0.6994999999878928,-1.9385569210090943,-0.8762624600389888,0.7684786359746658,-0.19673554162459952,-0.43473257525209685,-0.020852824237895227,-0.04897434160410347,0.004055413090738756,-9.38548206,0.27453285,-2.98688994,-0.005318,0.010569,0.001001
880260.961606,0.7594569999491796,-1.9555588009601825,-0.879742548381961,0.7697668262597537,-0.22317120903954074,-0.6722105764980161,-0.02219895845266768,-0.0521474328310357,0.0035328743266921417,-9.49370598,0.74485368,-3.09631068,-0.006574,0.0164,-0.013047
880260.981592,0.7794429999776185,-1.960402433760208,-0.875922304264317,0.7760085434805819,-0.24570837637074777,-0.6037686589372894,-0.023338717912983035,-0.05442994908788448,0.0039287735044344395,-9.02847654,0.8155053,-3.0942113400000006,0.002303,-0.006622,0.017318
880260.981592,0.7794429999776185,-1.958726702059949,-0.8676241941783964,0.7841446398318017,-0.24158417842890617,-0.4633812038011689,-0.024079502612443487,-0.055727212109530674,0.004301344664845513,-9.02847654,0.8155053,-3.0942113400000006,0.002303,-0.006622,0.017318
880261.001578,0.7994290000060573,-1.9622428962081786,-0.8672541293017816,0.7911843932708678,-0.21401176520510612,-0.4834748577772768,-0.02486343486242326,-0.057208399960785423,0.004430034465675084,-9.53562411,0.33215679,-3.1448113200000005,0.025558,-0.009367,0.009226
880261.041549,0.8393999999389052,-1.9714471826206967,-0.8698974690057207,0.7963978663710116,-0.18855011268980135,-0.5913311104138528,-0.025963991096254836,-0.059578353657220105,0.004418873931512374,-9.27725814,0.08427771,-2.75277429,-0.021919,-0.026165,0.004335
880261.061535,0.8593859999673441,-1.9744263634597963,-0.8670962777916674,0.8026691945283764,-0.18928059990439564,-0.5559797037873675,-0.02696321359181203,-0.06161423972316513,0.004145094997411782,-9.49281327,0.32482872,-2.92880493,-0.013305,0.011973,-0.005363
880261.081521,0.879371999995783,-1.9768493451808973,-0.8647773003057733,0.8092565598393211,-0.18420570538367884,-0.5323951362646222,-0.0279034036898657,-0.0634901607295821,0.004099199758368933,-9.28923615,0.45520362,-2.87342748,5.4e-05,-0.005536,0.002761
880261.081521,0.879371999995783,-1.9726978308668246,-0.8595353265170262,0.819843802272934,-0.15174066998988017,-0.4335590608129247,-0.02843815857058064,-0.0643591589861116,0.004052166179444646,-9.28923615,0.45520362,-2.87342748,5.4e-05,-0.005536,0.002761
880261.121492,0.9193429999286309,-1.9809610529518822,-0.8605268610283442,0.8233549791184172,-0.14589263461960028,-0.5516337730279913,-0.029491580055070646,-0.06671265292032412,0.004197089635215591,-9.32276673,0.41029344,-2.97041895,0.00914,0.002629,0.009955
880261.141478,0.9393289999570698,-1.9839631502294328,-0.8573478674567705,0.8290722200674248,-0.1520775145394154,-0.5188833775002212,-0.030432703255544542,-0.06871268300234863,0.004250280803904451,-9.28744092,0.29084688,-2.8711809900000005,0.00709,-0.022515,0.006644
880261.161464,0.9593149999855086,-1.9862746350566987,-0.8546135010211116,0.8353846814797867,-0.14767753608525697,-0.5007948438210726,-0.031318183723145765,-0.07056584991899802,0.004039954995894018,-9.34895943,0.36389214,-2.8689345,0.00706,-0.014046,-0.003905
880261.18145,0.9793010000139475,-1.9882293342757331,-0.8520353671777375,0.8419425180357529,-0.13908927684985326,-0.49450048589983847,-0.032179989622542954,-0.07236675386100626,0.004260945476344255,-9.68905251,0.41373675,-2.75188158,0.020599,0.01509,0.0135
880261.201435,0.9992860000347719,-1.9898877494510898,-0.8498662693655896,0.8485661650082714,-0.1283090615660237,-0.47991429234359995,-0.03300973022059731,-0.07412627543196922,0.004344169357512788,-9.07427943,0.19938825,-2.9713214700000004,0.003899,-0.001052,0.008115
880261.221421,1.0192719999467954,-1.9913275805747623,-0.8476942306411929,0.8550239358096059,-0.1174504663429415,-0.4719231368689637,-0.03382184795878026,-0.07587333923034674,0.00405385957279519,-9.29956608,0.27572967,-2.9440791,-0.00423,-0.023781,-0.007611
880261.241407,1.0392579999752343,-1.9926305834820626,-0.8454593262121457,0.8615687273573833,-0.10739970021642556,-0.4696772241432311,-0.0346277831052884,-0.077626015563896,0.004198575995807759,-9.57678687,0.34547877,-2.90770362,0.011398,-0.001399,0.01067
880261.261393,1.0592440000036731,-1.993813191328246,-0.8433098763412741,0.8681034314373779,-0.09724817232099268,-0.46381795331302705,-0.035422594596824175,-0.079380028297399,0.0043378075125853855,-9.39461517,0.24055101,-2.88419886,0.011398,-0.001399,0.01067
880261.281378,1.0792290000244975,-1.9948921800079902,-0.8411544313224805,0.8745961510968048,-0.08692715546663964,-0.4573418245511114,-0.036205837316619145,-0.08113669611519045,0.00434922488655733,-9.36108459,0.18322137,-2.9624924700000004,0.00818,-0.002565,0.005229
880261.301364,1.099214999936521,-1.9920981997850888,-0.8417025069746572,0.8849533536042076,-0.014413076210705873,-0.4939390288572372,-0.03684144062356412,-0.0822852976666405,0.004551910523439817,-9.31348647,0.09415638,-3.0108361500000003,0.03367,-0.014755,0.014038
880261.32135,1.11920099996496,-1.994992392427786,-0.8381064125123051,0.8887831457126572,-0.04872123820548051,-0.4574190650750298,-0.03769882545259347,-0.08443211431461026,0.004792150091624314,-9.17233038,0.25896438,-3.22878492,0.049067,-0.071067,0.015759
880261.341336,1.1391869999933988,-1.9924664806367267,-0.8380817408952628,0.898497695586971,0.00953600684174077,-0.4850931373208779,-0.038337278786240554,-0.08566003941369742,0.004688723048673482,-9.06380235,0.33365772,-3.1841788500000003,0.048617,-0.179162,0.000578
880261.361322,1.1591730000218377,-1.9965011656418417,-0.8333132011671933,0.9019027656210392,-0.03670401009094567,-0.4430238205779481,-0.0392021312218952,-0.0879207576424258,0.004715607232071208,-9.23190651,0.32901759,-3.1542387300000003,-0.000692,-0.250379,0.006192
880261.381307,1.1791579999262467,-1.99432208522903,-0.8326464278228108,0.9115687088664526,0.02098098273221686,-0.4716522596608624,-0.03983335171307402,-0.08917759084719167,0.00453784333711441,-9.25076133,0.32407335,-2.91339342,-0.040355,-0.317922,-0.003121
880261.401293,1.1991439999546856,-1.9927844447484497,-0.8315411961085503,0.9200145253060876,0.06506355407377991,-0.4845858823084297,-0.04049507206864915,-0.09060428396177062,0.004393429199446522,-9.15196482,0.02185668,-2.8744771500000006,-0.076567,-0.401088,-0.00186
880261.421279,1.2191299999831244,-1.9921654644443763,-0.8297240944237372,0.926767896771242,0.0982888630002632,-0.4857786261610277,-0.04116855846652027,-0.09218113622529023,0.004383411222730543,-9.14538231,-0.25492266,-2.8868966100000004,-0.131797,-0.489866,-0.046268
880261.441265,1.2391160000115633,-2.0013730737989675,-0.8207697350251223,0.928294480370984,0.003009861466888058,-0.41643095305838873,-0.04208566015777974,-0.09498897534288908,0.0044542152004476655,-9.63964935,0.18710613,-2.5896143700000005,-0.147619,-0.524302,0.007946
880261.46125,1.2591010000323877,-2.0003521338265955,-0.8185550943516905,0.9383656668948444,0.057165535061560836,-0.44343385553869363,-0.04267635531416946,-0.09636462320301177,0.0042266621429537365,-9.62588592,0.18590931,-2.6048787300000003,-0.156172,-0.484008,-0.005956
880261.481236,1.2790869999444112,-1.9999678509341978,-0.8158665064018039,0.947455718534643,0.09823842872733049,-0.4590352600303131,-0.04329763969758796,-0.09790081659190075,0.004093724882451311,-9.67558338,0.01511721,-2.83480551,-0.126358,-0.543642,-0.001715
880261.501222,1.29907299997285,-2.0003444736144824,-0.8125453573332021,0.9558188764013531,0.11832970947510559,-0.460308320426388,-0.043945441267793796,-0.09955944962726285,0.004162478494473554,-9.23983299,0.25657074,-3.0726587700000003,-0.087253,-0.61887,0.008041
880261.521208,1.319059000001289,-2.0016825652221617,-0.8083534204259333,0.963760205249228,0.12274245448773102,-0.4559210298157417,-0.044621802895552565,-0.10130555410110594,0.00471687662392058,-9.14103648,0.55713933,-2.99198133,-0.028004,-0.676226,0.03244
880261.561179,1.3590299999341369,-2.019320062485568,-0.7965120611315538,0.9656164071077455,0.02019062539606686,-0.47341444337122435,-0.04583724342136364,-0.10513401358605058,0.005537094526838125,-9.37650591,0.25177365,-2.20192317,0.006781,-0.853289,0.045964
880261.581165,1.3790159999625757,-2.018743922383888,-0.7913402713362437,0.9772630160098617,0.07343688413730516,-0.46930781083905315,-0.04656031862925614,-0.10667980968667859,0.006127763211007286,-9.34013043,0.27453285,-2.22257322,-0.01273,-0.967694,0.036162
880261.581165,1.3790159999625757,-2.019692586536392,-0.7816211806931794,0.9869175644980714,0.051685462603532704,-0.3408569918348926,-0.047044795548281414,-0.10799829560673434,0.006697420408702827,-9.34013043,0.27453285,-2.22257322,-0.01273,-0.967694,0.036162
880261.601151,1.3990019999910146,-2.021029623497598,-0.7772840765843121,0.9963097426777487,0.08254308231967021,-0.3592461123688909,-0.04758451861638056,-0.10945983528725761,0.007360274538221166,-9.13684761,0.49083354,-2.10941487,-0.050493,-1.111492,0.041805
880261.641122,1.4389729999238625,-2.0351515455855984,-0.7666963358628249,1.0005167921787965,0.015360159162771947,-0.423667206040386,-0.04868518062952718,-0.1126090850200137,0.0073564055836947825,-9.08116605,0.91175121,-1.71887877,-0.057728,-1.42889,0.061153
880261.661109,1.4589599999599159,-2.034439440766816,-0.7614558496797607,1.0127176474344664,0.06529138965817527,-0.4273634297042185,-0.04939576454546423,-0.11405565054599526,0.0073425968441702795,-9.20510559,0.8313680700000001,-1.30917393,-0.038005,-1.528396,0.069823
880261.681095,1.4789459999883547,-2.0345058923145265,-0.7559588840028031,1.0237501908391131,0.09592182439174736,-0.4255632746804575,-0.05012130046456022,-0.11561476245745098,0.007330216368007215,-9.09702882,0.94393782,-1.14496434,-0.012881,-1.660123,0.079871
880261.701081,1.4989320000167936,-2.0354541980498246,-0.7500110975983305,1.0338323776701523,0.10945569592754506,-0.4218850580907737,-0.050865502906969666,-0.11726331781204527,0.007318779843513039,-9.08370684,1.2328325100000002,-1.1587375800000002,0.020274,-1.796551,0.07935
880261.721066,1.518917000037618,-2.0498741732929213,-0.7344669674895424,1.02464920440329,0.0038566552336496015,-0.460684035476551,-0.05243807243085484,-0.1199133683762541,0.008092423874268596,-15.034737330000002,3.09272022,0.00658251,0.26033,-0.72288,0.045406
880261.741052,1.5389029999496415,-2.049039466306339,-0.7298823527681242,1.035191738205592,0.0677761223743148,-0.48056140533482034,-0.05319727411726643,-0.12134094771738863,0.007487712260616558,-10.30591512,0.97851807,1.2410729100000002,0.345483,-0.749617,-0.021743
880261.761038,1.5588889999780804,-2.0486507333044326,-0.7251655878688587,1.0449004982433179,0.09964664264040174,-0.48378899409610576,-0.05400070152119639,-0.12288845542925807,0.008209321293113995,-9.48966426,1.37503827,1.94056515,0.433828,-0.835481,0.044923
880261.781024,1.5788750000065193,-2.059189415389426,-0.7144828645448672,1.047217756253052,0.01433648118831743,-0.43502469745512273,-0.05509530419736991,-0.12549994792673064,0.008432507417123694,-10.02525102,1.3392612000000002,1.7604927900000005,0.485031,-0.686723,0.019894
880261.801009,1.5988600000273436,-2.057890996356673,-0.7102716402816314,1.0572374965469695,0.07666210406328995,-0.45800139045759664,-0.0558502483313148,-0.12686623305345485,0.007775348117212241,-10.15323228,1.22625,1.12596237,0.516085,-0.67239,-0.025036
880261.820995,1.6188459999393672,-2.0571684316454517,-0.7059898097239093,1.0657714336426407,0.12415787845705831,-0.4649920194710392,-0.056645568241742765,-0.12836976033788633,0.0070219011888739535,-9.85804938,0.8584632900000001,0.7896069000000001,0.506414,-0.627488,-0.031137
880261.840981,1.638831999967806,-2.0572297341811785,-0.7013586375098615,1.0733316917454374,0.15705435249999966,-0.4628670115528321,-0.05746586554213513,-0.12999031135313852,0.0063031688876672,-9.72677196,0.7414103700000001,0.86070978,0.488085,-0.634335,-0.030457
880261.860967,1.658817999996245,-2.0582677690545053,-0.6963224971553856,1.0805451985748924,0.18407324958575985,-0.4528435556523905,-0.058281970243125675,-0.13171620565064476,0.005595006444023373,-9.73396269,0.36059598,1.0529073,0.462041,-0.689946,-0.030949
880261.880953,1.6788040000246838,-2.0602201845954036,-0.6907849526325156,1.0874940113508078,0.2025032179858227,-0.43934756949087145,-0.05908786208270095,-0.13352405811185156,0.004703925910560028,-9.73186335,0.31045707,1.49748669,0.422808,-0.74486,-0.04181
880261.900938,1.6987889999290928,-2.063104549712696,-0.6847776412019508,1.0942891107640786,0.21519695767317182,-0.42137445900699383,-0.05988286956698039,-0.13538798397347704,0.0038844327926476066,-9.64414233,0.15971661,1.7893832400000005,0.332559,-0.833754,-0.03921
880261.920924,1.7187749999575317,-2.0668279259820665,-0.6783176261290058,1.1011395600376108,0.22136091857909,-0.39994852009251186,-0.06066316560688886,-0.13728671825487665,0.003350745246935719,-9.46720917,0.12813822,1.93621932,0.220569,-0.930732,-0.024762
880261.94091,1.7387609999859706,-2.0713067443698776,-0.6714005589006126,1.1082698602308003,0.2226972711495206,-0.3784899671832747,-0.06142440753947526,-0.13920748916140696,0.0031865809968024245,-9.40314987,0.18546786,2.3571468,0.105415,-1.037648,-0.005167
880261.960896,1.7587470000144094,-2.076467823130775,-0.6640636606883722,1.1157793348074634,0.22183073766693423,-0.3586841388299532,-0.06216592310602949,-0.14114175276850538,0.00340143443174765,-9.43458111,0.23246757,2.23545375,0.037259,-1.009966,0.015631
880261.980881,1.7787320000352338,-2.0822277695246707,-0.6564818725882725,1.1238098721513756,0.2198241725966542,-0.3344924184710762,-0.06288052462364843,-0.14307889739958363,0.004138254276126631,-9.17756892,0.07499745,2.786756130000001,-0.054862,-1.065452,0.045093
880262.000867,1.7987179999472573,-2.0884939197262757,-0.6486401249602969,1.1330340756224224,0.21840855298356077,-0.31016554882398595,-0.06356600557568415,-0.14501347136387033,0.00412826324359636,-9.11589345,0.01227231,2.79005229,-0.153699,-1.165084,0.076249
880262.020853,1.8187039999756962,-2.0953068571717686,-0.6404226110266737,1.1409209433274166,0.2250739424622797,-0.2947830700396421,-0.06423077575324965,-0.14695662217024372,0.004000976534263621,-9.71344998,-0.10269108,3.48535566,-0.269642,-1.227416,-0.002377
880262.040839,1.838690000004135,-2.1019861569379366,-0.6319904866500455,1.1525325396070665,0.20566081736641523,-0.2809453839835425,-0.0648981617965445,-0.14887022315454332,0.003990732184241425,-8.895855150000001,1.11233628,3.11292882,-0.222738,-1.222509,0.186498
880262.060825,1.858676000032574,-2.1093694251938824,-0.6233591124547746,1.160914666776062,0.2082613122489755,-0.2710594736374638,-0.06555899353653426,-0.15078299703748688,0.004537671927538085,-9.67886973,0.35595585,2.4667245,-0.202898,-1.215028,0.03488
880262.08081,1.878660999936983,-2.1166726686275488,-0.6147205691442863,1.1710248999908428,0.19539458089530692,-0.2565843790065503,-0.06621636955632489,-0.15266928988162787,0.004527238157415604,-8.90662653,0.93750246,3.25078875,-0.147993,-1.25888,0.105356
880262.100796,1.8986469999654219,-2.124296742258528,-0.6060462264534573,1.1796483416744596,0.18941328655182527,-0.24017394837671158,-0.06686560738433472,-0.15453507179304485,0.005333122109890061,-8.922195,0.62330778,2.16988371,-0.106942,-1.070861,0.049611
880262.120782,1.9186329999938607,-2.1320851934636025,-0.5970549600198117,1.1882683781172503,0.1857386172148576,-0.2382214425171386,-0.06752369634892717,-0.1563914226070453,0.00606918115518645,-9.5413041,1.06249167,2.97386226,-0.05693,-1.119594,0.046856
880262.140768,1.9386190000222996,-2.139898716047841,-0.5884509911797126,1.1969790180948872,0.17845230780948834,-0.21526880259478356,-0.06816400055518426,-0.1582198566025407,0.006828012043152352,-8.4334608,0.56641959,3.95792298,-0.056666,-1.020405,0.049159
880262.180739,1.9785899999551475,-2.1477375967912398,-0.5788381389839918,1.2058675175835676,0.23586252022811324,-0.2855231530463819,-0.06902477820725429,-0.16037999535154981,0.007082074570049212,-8.144566110000001,0.56552688,4.8975149700000005,0.023111,-1.042319,0.021606
880262.180739,1.9785899999551475,-2.1583615308763022,-0.5674393800830574,1.214153264943393,0.1477558717410291,-0.14643849877890383,-0.06957665671737207,-0.16207757369419817,0.007327401169035875,-8.144566110000001,0.56552688,4.8975149700000005,0.023111,-1.042319,0.021606
880262.200725,1.9985759999835864,-2.1663935813453636,-0.5587423197595048,1.2224215762450221,0.1536431376045734,-0.1434907964762069,-0.07013705220884577,-0.16378534682793347,0.007015885162264119,-8.89121502,0.7024842900000001,4.5870579000000005,0.049181,-1.069066,-0.009859
880262.240697,2.038547999924049,-2.1750126158529866,-0.5478469612243381,1.231550400817806,0.2330042120927635,-0.23484625964891956,-0.07093774231131979,-0.16586180911679024,0.007273473943513123,-8.6389803,0.54950715,4.72177863,0.041485,-1.102659,0.022278
880262.260683,2.0585339999524876,-2.1843871259923735,-0.5375004721721107,1.2406294734094399,0.216176268344746,-0.18881796789693525,-0.0716564360123929,-0.16783077895340592,0.0078377603401413,-8.069117400000001,0.27123669,5.132827440000001,-0.000186,-1.135311,0.040177
880262.280668,2.078518999973312,-2.193558751981259,-0.5274135641343743,1.2497540496808694,0.20607005930058203,-0.15656624715760034,-0.07231990856602918,-0.16972558261775805,0.008377171308271496,-8.35008561,0.40835106,5.42801034,-0.016887,-1.149967,0.039513
880262.300654,2.098505000001751,-2.2023265754464054,-0.5178075648516516,1.25903814740004,0.19084602093653238,-0.12285918379868903,-0.07293581436447391,-0.17154854888813317,0.009076947828472081,-7.691452020000001,0.5117877000000001,5.52800367,-0.027203,-1.171853,0.049528
880262.32064,2.1184910000301898,-2.210978220990297,-0.5083748608636834,1.2682977339450634,0.18296211799441545,-0.09924973420002807,-0.07352032347793906,-0.17332270250989673,0.009679023921400324,-8.02017531,0.55728648,5.6118301200000005,-0.017322,-1.15194,0.044776
880262.340626,2.1384769999422133,-2.2193934011821788,-0.49929485690442293,1.277555078013438,0.1749459705300453,-0.07418400135107041,-0.07407672061268819,-0.17505106871381887,0.01028759137688274,-7.69324725,0.4830444,5.77469574,-0.010832,-1.146714,0.045956
880262.360612,2.158462999970652,-2.227642666717455,-0.4905158836906501,1.2873893604597795,0.16920030586645107,-0.048007011646297976,-0.0746061578557669,-0.17673873701484824,0.01027694040473041,-7.491171060000001,0.32467176,6.10056432,-0.009464,-1.132223,0.061716
880262.380597,2.1784479999914765,-2.235847445700636,-0.4819648086452719,1.2965389325421057,0.17045017248843344,-0.022650813839884296,-0.07511275307399766,-0.17839680656937432,0.011009856613812177,-7.591017240000001,-0.00404172,6.44739687,-0.023998,-1.101279,0.053576
880262.400583,2.1984340000199154,-2.2438330065780376,-0.47372202223754567,1.3056102299522045,0.1694686163576738,0.007434345883827809,-0.07559148346961996,-0.18002195856101136,0.011811547593631939,-7.148085930000001,-0.19564083,6.56115363,-0.041132,-1.083283,0.05857
880262.420569,2.218419999931939,-2.251711962905253,-0.4655792957075638,1.3146767038100036,0.17176318368552365,0.03294869813690753,-0.0760406220087364,-0.1816276591300095,0.012509624409975691,-7.28310096,-0.23935419,6.51384981,-0.031462,-1.033865,0.053533
880262.440555,2.238405999960378,-2.259383723998865,-0.4575990053422338,1.323771851219755,0.17228710559997223,0.05788557053709483,-0.07645297769231955,-0.18321900346265133,0.012807960513252415,-7.097044500000001,-0.21450546,6.19381818,-0.004992,-1.001778,0.030805
880262.460541,2.2583919999888167,-2.2669968066545616,-0.449585387468237,1.3321296626424246,0.17711729774916593,0.0735766837641074,-0.07685557754866418,-0.18479688525831983,0.012172440393947383,-7.5077892,-0.06780672,6.4553233500000005,-0.003292,-0.867984,-0.024391
880262.480526,2.278377000009641,-2.273677325760805,-0.4413538881617594,1.34068372507061,0.14137848896152583,0.07073814701477589,-0.07729575650484345,-0.18631166001639005,0.012274772191267888,-6.47493354,2.23005825,5.720358150000001,0.229437,-0.755046,0.018892
880262.500512,2.29836300003808,-2.2803427760126382,-0.4331923335384282,1.3480694585894657,0.11109672314321527,0.06410283174098996,-0.07776487574526803,-0.18777988570817855,0.012264845762699171,-6.627920490000001,2.42585604,6.82535655,0.313279,-0.929998,-0.043043
880262.520498,2.3183489999501035,-2.2868986008777874,-0.425429448476912,1.3552868712806916,0.08106549390042235,0.07079239843750953,-0.07824464564911324,-0.18919594878250726,0.012254811228946425,-5.948784000000001,2.08157409,7.1934375600000005,0.327595,-1.000576,-0.052304
880262.540484,2.3383349999785423,-2.300736586658917,-0.42549025991794104,1.3559524399289398,0.008108340871099354,0.009395506268089032,-0.07836742536672785,-0.19068867133621634,0.01170309348478799,-6.480172080000001,1.75420458,6.51415392,0.40879,-1.013678,-0.020058
880262.56047,2.358321000006981,-2.3020570044362083,-0.4285267814339033,1.3638674785946652,0.019765328925196633,-0.02039123723473498,-0.07855637136954063,-0.19166648118348878,0.01141984946670468,-6.086339820000001,1.40287905,6.38197398,0.490596,-1.031739,-0.004458
880262.580455,2.3783060000278056,-2.2997808298043414,-0.4359143439781441,1.3729696137993717,0.06140933879907041,-0.0850179262376574,-0.0784389293658051,-0.19220470986754928,0.01201461411531577,-5.62844826,1.52922204,6.953494770000001,0.529102,-1.06155,0.047347
880262.600441,2.398291999939829,-2.297251714777209,-0.44358977490899193,1.383123240009331,0.09230076839459629,-0.12231890666109162,-0.07848695617828327,-0.19289979220188516,0.012004305218261754,-5.41903419,1.2478025700000002,7.158710160000001,0.519523,-1.182366,0.081564
880262.620427,2.418277999968268,-2.2948447813796733,-0.45072253404867785,1.3949470978133416,0.11399573226995653,-0.1433452488096634,-0.07869322033751291,-0.19374126802175645,0.01199386246092048,-5.57575875,1.29795129,7.27696971,0.500973,-1.264703,0.164269
880262.640413,2.438263999996707,-2.2928653121759126,-0.4568514338924678,1.4063041491767097,0.12657185625096384,-0.14589419548083596,-0.07903465163662775,-0.19470942896556248,0.011983293934070898,-5.52216672,1.20379491,7.4904255,0.471875,-1.370317,0.140386
880262.660399,2.4582500000251457,-2.2915019477174656,-0.46159939901735547,1.417523005845732,0.1245405508907332,-0.1339190962389602,-0.07948684388356705,-0.19577038354587337,0.011972711646903436,-5.178777480000001,1.3681516500000002,8.108337780000001,0.415581,-1.451526,0.137476
880262.680384,2.4782349999295548,-2.290928796053575,-0.46487175517332346,1.4294972469776592,0.1052075149822208,-0.0988661864275711,-0.08000954812935995,-0.1968819348346535,0.011962133516133231,-4.17721572,1.17520857,9.82646118,0.128597,-1.648535,0.179923
880262.700369,2.498219999950379,-2.2913765249267963,-0.4663714628127037,1.4413453226215358,0.0817444094949156,-0.06276987272981284,-0.08058190439606201,-0.19801707024856288,0.011951604145929438,-4.2081957,1.3793841000000002,9.41346999,0.128597,-1.648535,0.179923
880262.720355,2.518205999978818,-2.2963307527637653,-0.46397702248253353,1.4529190106184888,0.008228279743551226,-0.004977822677702807,-0.08146054041867755,-0.19959201720270914,0.011943342224920205,-4.35025431,1.81811673,8.931779370000001,-0.195329,-1.749353,0.26298
880262.760327,2.5581780000356957,-2.2949459133034953,-0.4685972377503489,1.4784662634689028,0.016341240685556167,-0.10696581993603041,-0.0816655528746222,-0.20020134164881576,0.011933989850294103,-3.30722568,2.5255452600000003,8.47866528,-0.071028,-1.280799,0.468043
880262.780313,2.5781639999477193,-2.2938949649759235,-0.47356774786058103,1.489019605638835,0.009775828118323705,-0.11829263461142477,-0.0823395074098119,-0.2006829050662824,0.011935130488808387,-3.94145199,2.30715504,9.15600654,-0.081865,-1.078355,0.578203
880262.800298,2.5981489999685436,-2.293638757900538,-0.47750885773549195,1.5017111099303326,4.270104471142122e-05,-0.11003475936506905,-0.08313869320955944,-0.20124263849112395,0.01193625397150573,-3.90402684,1.97034831,9.107957160000002,-0.17282,-0.838013,0.684762
880262.820284,2.6181349999969825,-2.29459064616065,-0.4763724456169763,1.5080265862345392,0.0006934447765351739,-0.013337304896105608,-0.08453136846416834,-0.20202369936498052,0.011934623080819624,-4.194128160000001,0.69575463,12.85167879,-0.313112,-1.230219,0.261164
880262.84027,2.6381210000254214,-2.2935248673899777,-0.48100741622716253,1.518883468395778,0.007025172923224096,-0.0121626526105948,-0.08473477676291144,-0.20264252806608382,0.011923943082868763,-3.24734544,1.09377576,8.386461090000001,-0.357715,-1.271456,0.154074
880262.860256,2.658106999937445,-2.291348080816146,-0.48607210199448647,1.5271414576691775,-0.003062901612911942,-0.01667584068677648,-0.08498575686071137,-0.20305408019017435,0.012624049941556593,-1.91676609,2.4379812,9.27575721,-0.147296,-1.456622,0.048832
880262.880242,2.678092999965884,-2.289304161840194,-0.491153979374244,1.5350200073440767,-0.00431889466909677,-0.022387032701070245,-0.08533724789149608,-0.20343476464695825,0.012949864889758377,-2.43558756,2.68841088,6.72401925,0.118268,-1.182945,0.030234
880262.900228,2.6980789999943227,-2.2874192116413505,-0.49641486920453937,1.5426247272494873,-0.0015414742761143906,-0.020428709333440806,-0.08566454089756614,-0.20384958255362493,0.012926256553683589,-2.4896210400000003,2.0122664400000003,9.95325543,0.148153,-1.205785,0.012233
880262.920213,2.718064000015147,-2.2853535603991797,-0.5017988795273264,1.5502800019684315,-0.006058593986858768,-0.013701019221175474,-0.08588797079814176,-0.204186923353398,0.012769309813078824,-1.43581122,1.7341431300000003,8.988804900000002,0.182334,-1.174063,0.005099
880262.940199,2.7380499999271706,-2.2833930955291195,-0.507112183703356,1.5581493549091716,-0.0065315058654578486,-0.00861222417338097,-0.08603299872999368,-0.20451110803792277,0.012908413592583426,-1.39330449,1.3681516500000002,10.85602068,0.021499,-1.230887,0.020787
880262.960185,2.7580359999556094,-2.2814919639089553,-0.512208167853997,1.5659755086066536,-0.005674132217267391,-0.007993980121144233,-0.08618120014379867,-0.20483626909536934,0.013438779584584951,-1.5908877,1.45556856,9.11395107,0.019775,-1.161919,0.042163
880262.980171,2.7780219999840483,-2.279878083848489,-0.5169477544229855,1.562433891936637,0.008403077303207718,-0.006401376213468873,-0.08655380224906775,-0.20517457248504192,0.013438770218236794,-3.07580778,0.38080458,12.64509981,-0.510315,-1.299475,-0.169118
880263.000157,2.798008000012487,-2.277622555235888,-0.5212355594442,1.5588858421495377,-0.0029444699208919,-0.015128371428502797,-0.08707096521833575,-0.2053298284400297,0.013438801706590888,-1.80374508,2.55114936,17.437834170000002,-1.307119,-1.904293,-0.167348
880263.000157,2.798008000012487,-2.2753749655347395,-0.5261435434210722,1.558795201484756,-0.005972428741554485,-0.004260238059779821,-0.08721668173344159,-0.20539217146841132,0.013438818673970234,-1.80374508,2.55114936,17.437834170000002,-1.307119,-1.904293,-0.167348
880263.040128,2.837978999945335,-2.273880102695541,-0.530199921463623,1.5600030817913861,-0.00178678120786789,-0.0019733181525179127,-0.08766614688499877,-0.20563155222441598,0.014238660752160749,-1.31441247,0.56072979,17.56028259,-0.913618,-0.718106,0.055742
880263.060114,2.857964999973774,-2.271427644278228,-0.534613326048844,1.5659417542700123,-0.01650344465212306,0.002067638147714132,-0.08792310658702539,-0.2055632201603125,0.014238699797017805,0.32796792,1.50302934,3.29165721,-0.300338,-0.285341,0.308365
880263.0801,2.877951000002213,-2.2695227319828,-0.5390494198669586,1.5706154245989579,-0.011629381037652431,0.005570166927160097,-0.08811102070257006,-0.20557706593176134,0.01423871650755286,-0.71805276,0.51762465,12.56891535,-0.468275,-0.500828,0.244147
880263.100086,2.8979370000306517,-2.2676810958376796,-0.5438301091694073,1.5790384343793091,-0.014471834107703217,0.012073827207775686,-0.08795000621665534,-0.205757766706745,0.014865608022363568,0.17094906,0.23022108,9.45763461,-0.388917,-0.719179,0.047568
880263.120072,2.9179229999426752,-2.2662143151006777,-0.548392837083068,1.5872703417560334,-0.007432915953449922,0.011951159821316285,-0.08778941570966063,-0.20605633830111267,0.014395915908256241,-0.93181266,0.00194238,8.28362286,-0.361857,-0.569577,-0.009325
880263.140058,2.937908999971114,-2.264495934613712,-0.5527617067781545,1.5943803624760804,-0.011072508732243712,0.009267155052268895,-0.08767362493923919,-0.20629228210521472,0.014384992100455683,-0.36823797,0.71460945,10.10324052,-0.352108,-0.604964,-0.054543
880263.160043,2.9578939999919385,-2.262829933171529,-0.5571222832141729,1.6027613356226151,-0.012646728754928333,0.010144110189992672,-0.08754801655999164,-0.20650024542582823,0.014063909689243224,-0.22034241,0.5063922000000001,10.04127075,-0.336325,-0.586841,-0.001937
880263.180029,2.9778800000203773,-2.2612214334456016,-0.5614416291809732,1.6129278954692587,-0.012220480393979445,0.012460607660823003,-0.08739918472746223,-0.20670250876086402,0.014053457465039205,-0.21420135,0.21046374,9.81299205,-0.307836,-0.476549,0.115321
880263.200015,2.997865999932401,-2.259601779714974,-0.5656247695689492,1.6235776789225973,-0.01278118443426493,0.012780871703010253,-0.08725928825574009,-0.20688276578390274,0.014043406190550894,-0.16165899,0.31898196,9.24552279,-0.235261,-0.405194,0.158284
880263.220001,3.0178519999608397,-2.2581388047304087,-0.5697904151869061,1.6326278395183795,-0.009376853869287362,0.014990455795508797,-0.08709204973239643,-0.20711353519517184,0.014033383966936123,-0.46238454,-0.14250006,10.023455790000002,-0.267906,-0.403275,0.082421
880263.239987,3.0378379999892786,-2.256604444899145,-0.5737688988340545,1.640341494937326,-0.010559752378220301,0.013163942375297498,-0.08695329926636197,-0.20732485448305765,0.01359997016743416,-0.32557428,0.3198844799999999,9.1854954,-0.229254,-0.382599,-0.007763
880263.259973,3.0578240000177175,-2.2551936297288133,-0.5773591825979291,1.6483327930994953,-0.007648350467891175,0.003908824146633905,-0.0869711099194609,-0.20756270759480203,0.014443368291518915,-1.21218246,1.14871176,11.97195723,-0.052424,-0.299357,0.057974
880263.279958,3.077809000038542,-2.253699465493619,-0.5815462274338961,1.6542023310754281,-0.009691022044553896,0.017317584252639434,-0.08677018740474446,-0.2077888474799123,0.014433120498582822,0.12558762,-0.68752404,10.38794634,-0.092521,-0.374645,-0.090157
880263.299944,3.0977949999505654,-2.251748057907385,-0.5853067431461082,1.654453369696462,-0.018827114457869967,0.020623614910799754,-0.08670634118710241,-0.20768761678644118,0.015173068879269877,1.02297699,-0.00643536,6.05431017,-0.003824,0.013582,0.052859
880263.31993,3.1177809999790043,-2.2501712943701855,-0.5891258961418662,1.6635041677073357,-0.019718523173935142,0.020653022741505142,-0.08644569172257754,-0.20775312002114155,0.015162724731799382,0.64710684,-0.01661814,8.22883401,0.01588,0.047506,0.065253
880263.339916,3.137767000007443,-2.2488554859902172,-0.5927118991759805,1.6714352613755326,-0.01342617940764928,0.016349942440569993,-0.08626913990319318,-0.20790580702868589,0.015222659869707703,-0.38560167,0.13531914,9.71285157,0.006664,0.029763,0.018804
880263.359902,3.157753000035882,-2.247401963579755,-0.5962162192876367,1.6791465517933188,-0.014401394905419161,0.013749305598101365,-0.08614044165694093,-0.20803229314242935,0.015094354899649366,-0.02963601,0.43574058,9.832602240000002,0.012873,-0.003954,0.009026
880263.379888,3.1777389999479055,-2.2460162159704824,-0.5997434593418816,1.6867727201734581,-0.013541976242102124,0.014979124096033624,-0.08599903613018738,-0.20816883119091578,0.015087805431517635,-0.05823216,0.10119015,10.126588320000002,-0.003611,-0.019692,0.015259
880263.399873,3.19772399996873,-2.2446250863325417,-0.6032121888889752,1.694366105515412,-0.013617514427591463,0.016035245001497958,-0.08584557096506125,-0.20830037412975996,0.015364636874453207,0.02125827,0.04879494,9.74638215,-0.001188,-0.01537,0.030332
880263.419859,3.217709999997169,-2.2432392130978296,-0.6065876497120269,1.701951430135395,-0.013950641364134674,0.015943571410540164,-0.08569706241954451,-0.20842156858941258,0.01589430956669125,0.03367773,0.12214431,9.63172287,0.003447,-0.015588,0.0443
880263.459831,3.257681999937631,-2.2419390240581283,-0.6094826489329999,1.7115923021426838,-0.014958920176545557,0.014826544944290254,-0.08558217596218601,-0.20847432509743455,0.015885124430224128,0.02350476,0.21135645,9.75132639,5.2e-05,-0.008967,0.071627
880263.459831,3.257681999937631,-2.2404080726409736,-0.6130322434683793,1.7188914952577337,-0.013199872043617476,0.01541678205828916,-0.08545016053620169,-0.20862136934800915,0.015876153057361182,0.02350476,0.21135645,9.75132639,5.2e-05,-0.008967,0.071627
880263.499803,3.297653999994509,-2.23914164895689,-0.6157527219675413,1.7298436435208542,-0.015139702240037273,0.013652830294777027,-0.0853709207772267,-0.20866449307203186,0.015867074024681068,0.01092834,0.28874754,9.87720831,-0.004096,-0.001317,0.10969
880263.499803,3.297653999994509,-2.2376498352896084,-0.6191677160524622,1.7369739479651818,-0.01332840327056986,0.014698771840269291,-0.08525497473438798,-0.2088014841778565,0.015858209064570597,0.01092834,0.28874754,9.87720831,-0.004096,-0.001317,0.10969
880263.539774,3.337624999927357,-2.2364135024485847,-0.6215976440382993,1.7517932803564964,-0.01537302868831563,0.010729166528720746,-0.08525432540806413,-0.2088174925885738,0.01584929104457924,-0.0489519,0.51148359,9.67154166,-0.000129,0.005742,0.212737
880263.55976,3.3576109999557957,-2.2351079865673165,-0.6245029013860856,1.7630517342952805,-0.015036832033339727,0.011087700202199596,-0.08521769608491268,-0.20887720178101932,0.015840429689168687,-0.01586277,0.5089428,9.75011976,-0.001787,-0.002903,0.236307
880263.579746,3.3775969999842346,-2.2338285727320915,-0.6273390270786307,1.7741326679055502,-0.015284788402902313,0.01017853386184845,-0.0851952124298407,-0.20892987458669945,0.015831624777601642,-0.01766781,0.62914473,9.71524521,0.000625,0.001378,0.232502
880263.599732,3.3975830000126734,-2.232528472877786,-0.6301258256068556,1.7850313192319103,-0.016723430281270386,0.009491862852671121,-0.0851811489775162,-0.20895505642239146,0.015822799702112023,0.14340258,0.72105462,9.79024266,-0.00094,0.008766,0.225538
880263.619718,3.417568999924697,-2.2312864315947554,-0.632888950818042,1.79593555487401,-0.016549582197802164,0.009750058079334937,-0.08516490720576576,-0.20898148393291338,0.015813891834394196,0.08128566,0.6224052600000001,9.84876912,-0.00094,0.008766,0.225538
880263.639704,3.437554999953136,-2.2300867676810134,-0.6356293064769536,1.805188657237787,-0.015827646281766732,0.010602185434152592,-0.08513903646527608,-0.2090198574293349,0.015804897195741012,0.03382488,0.49861287,9.63860949,-0.000646,0.009183,0.142479
880263.659689,3.45753999997396,-2.2288832043658675,-0.6383601536270368,1.8129016208161879,-0.016019942543889255,0.012182052654555842,-0.08509035076759552,-0.20905777694705782,0.01579590625433142,0.14369688,0.35401347,9.63935505,0.010844,-0.004922,0.068311
880263.679675,3.477526000002399,-2.227662963642053,-0.6410886518939641,1.8193525459767113,-0.01727209394781602,0.014355120554625957,-0.08501015893004867,-0.2090803453094215,0.01511570711810676,0.35281665,0.19264878,9.74563659,0.005394,-0.010945,-0.016482
880263.699661,3.497512000030838,-2.226492510403279,-0.6437385713479946,1.8240509602893358,-0.01674672652716194,0.01476865321544429,-0.08492678860926628,-0.20910784284711464,0.01510715175088677,0.21166056,0.20597076,9.78170796,0.003451,0.009302,-0.068509
880263.719647,3.5174979999428615,-2.225352564802018,-0.6463939294079668,1.8277828636475366,-0.016028070530609277,0.016456051543769244,-0.08482302556818207,-0.20914999586225674,0.015098637253260756,0.19908414,-0.00913311,9.7582032,-0.001414,-0.004885,-0.112786
880263.739633,3.5374839999713004,-2.2242545627314847,-0.6489822001836304,1.8311037466556686,-0.014872943970416462,0.016793832075893193,-0.08472150544617359,-0.2092082587008554,0.01509015052217361,0.07559586,-0.00224649,9.63801108,-0.000605,-0.003565,-0.12972
880263.759619,3.5574699999997392,-2.223181128931554,-0.6515397352563118,1.8344831072545649,-0.013963818298082607,0.017347083834832466,-0.0846172493871279,-0.20928047991199208,0.01508163456612598,0.02948886,-0.07320222,9.6827643,0.001448,-0.00305,-0.125267
880263.779605,3.577456000028178,-2.2221352721476446,-0.654057791847138,1.8386405979576361,-0.01310355172658317,0.017740084097672207,-0.08451222714386078,-0.20936558740067635,0.01507306180974201,-0.03083283,-0.11451213,9.74443977,0.001823,0.006181,-0.085787
880263.79959,3.597440999932587,-2.221093653315303,-0.6565058196555047,1.8447075568768154,-0.013083052173588471,0.017172457105430458,-0.08442204534772857,-0.20944528935184623,0.014455189180898708,-0.01571562,-0.01362609,9.73530666,0.001134,-0.003833,-0.013238
880263.819576,3.617426999961026,-2.2200371851385574,-0.6588902095616488,1.850801124773593,-0.013623953464166514,0.016223251143107076,-0.08434144498961306,-0.20951106758886165,0.014708583768902496,0.03143124,0.09700128,9.708809850000002,0.003328,0.000264,0.026769
880263.839562,3.637412999989465,-2.2190033504065587,-0.6612437457183951,1.8568405233725995,-0.013794790480444666,0.015935934123661295,-0.08426838139921834,-0.2095705699131225,0.014612711471873397,0.03039138,0.08487612,9.749227050000002,0.00256,0.001851,0.010538
880263.859548,3.6573990000179037,-2.217997034215462,-0.6635388577448124,1.8628466108940849,-0.013602497394645965,0.015216808459025476,-0.08421047787075954,-0.20962769256706953,0.014220823506040954,-0.02035575,0.15387966,9.7320105,0.005635,-0.000249,-0.003865
880263.879534,3.6773849999299273,-2.2169785476819848,-0.6657863612527084,1.8688404731331634,-0.01420265564523644,0.014536839414796974,-0.08416156382214335,-0.20967075408297553,0.013904524367648998,0.05553441,0.22512969,9.76733631,0.001766,0.003935,-0.00079
880263.89952,3.697370999958366,-2.2159472268990528,-0.6679756791103703,1.8748227145991798,-0.015289978636325901,0.013557377576567314,-0.0841243029488892,-0.20969093648534737,0.013578377619440495,0.1474443,0.34114275,9.74188917,0.00025,0.000957,-0.00176
880263.919506,3.717356999986805,-2.214964153454327,-0.6700997270622459,1.880741947981642,-0.014898095051814221,0.012200722837831846,-0.0841114927758817,-0.20970812059072352,0.013318447751529752,0.01856052,0.44352972,9.77482134,0.001546,0.002755,0.001033
880263.939491,3.7373420000076294,-2.213978822742687,-0.6721735453213646,1.886622697268927,-0.015104960242978149,0.011018795849431906,-0.0841173625569139,-0.20971435687783355,0.013097416484531716,0.04939335,0.53843166,9.77856876,0.000627,-0.003994,0.002592
880263.959477,3.7573280000360683,-2.212980346962695,-0.6742483965351683,1.8924487765151934,-0.015955897602133166,0.011348506831311876,-0.08411611238648668,-0.2097071748380059,0.012860438906707404,0.173637,0.45670455,9.69653754,0.004567,4.5e-05,0.001447
880263.979463,3.777313999948092,-2.212019835128752,-0.6762766804438176,1.8982188302406913,-0.015704144926995393,0.011171722204357847,-0.0841203027374148,-0.20970069456438373,0.012700052508900448,0.09415638,0.47855142,9.70282575,0.002471,0.011914,0.005014
880263.999449,3.7972999999765307,-2.211094927898817,-0.6782622276856165,1.9038932285227794,-0.01491531267923456,0.010803515670650304,-0.08413651949908839,-0.20970150725292488,0.012503049807032922,-0.00045126,0.49861287,9.67303278,0.004006,0.008142,0.002876
880264.039421,3.8372720000334084,-2.2102164367074226,-0.6797211130304859,1.9094573525410556,-0.01566057109012913,0.010134307849767769,-0.08420400110441704,-0.20961720332936018,0.01236271048814799,0.05029587,0.46029501,9.73126494,0.001513,0.003208,0.005617
880264.059407,3.857257999945432,-2.209254874526659,-0.6816312757755527,1.915087024655839,-0.015252702027529732,0.011168732352019945,-0.08422139017436704,-0.20960451844890304,0.012178036882494974,0.08981055,0.43679025,9.73215765,0.004661,0.000337,0.003093
880264.079392,3.8772429999662563,-2.208337419262206,-0.6835466688176264,1.9206310925657641,-0.015013530996831672,0.011739139984455933,-0.08423055808575027,-0.2096016681552728,0.011971545239861188,0.06765957,0.38290392,9.7866522,0.000187,-0.001151,0.001669
880264.099378,3.897228999994695,-2.2074344162317234,-0.6854454140052314,1.9261125197033637,-0.015045065051286307,0.012141488451638729,-0.0842344274307893,-0.2095992158593787,0.011838418729285111,0.08726976,0.35671122,9.74698056,0.002045,0.000429,0.005257
880264.119364,3.917215000023134,-2.2065459480758403,-0.6873177674763853,1.9314961441478413,-0.015065152888315551,0.012367077092513319,-0.0842368997126801,-0.2095953617593075,0.011677275595988423,0.09145863,0.34533162,9.70851555,0.004846,0.00083,0.003559
880264.119364,3.917215000023134,-2.205506971180744,-0.6894980396167261,1.9368920634436515,-0.013463479424027232,0.013794137170679063,-0.08421409704801885,-0.2096556521781616,0.011522134264842294,0.09145863,0.34533162,9.70851555,0.004846,0.00083,0.003559
880264.119364,3.917215000023134,-2.204500082600979,-0.6916646610058195,1.942146378477064,-0.012804253976938292,0.014384357007377582,-0.08418789591609528,-0.20972534964492992,0.011372665618057451,0.09145863,0.34533162,9.70851555,0.004846,0.00083,0.003559
880264.179322,3.9771729999920353,-2.2036992071442314,-0.6925093331938852,1.9469879009690745,-0.015511627680090567,0.012313465732456936,-0.08422875330216732,-0.2096050845947257,0.011234031717099942,0.05883057,0.27662238,9.74279169,0.002853,0.004228,0.004119
880264.199308,3.997159000020474,-2.2028110343011673,-0.6942572569516019,1.9520357054316886,-0.01473512051768057,0.013330816068746726,-0.08422890384294224,-0.20959565211916348,0.011094159288836334,0.0782838,0.23755896,9.74518533,0.001686,0.001549,0.003849
880264.219294,4.017144999932498,-2.2019649307080202,-0.6960002092385545,1.9570080177033038,-0.014652507675312358,0.01356796743632442,-0.08422587621235232,-0.20959325730257647,0.010967958536368777,0.07948062,0.23665644,9.75176784,0.003861,0.001162,0.004406
880264.239279,4.037129999953322,-2.201144098295928,-0.6977271346312375,1.96189552140343,-0.014571038609601449,0.013709716786673992,-0.08422272981043971,-0.20959171762011045,0.01082277585365014,0.07155414,0.22498254,9.74817738,0.001626,0.002791,0.003164
880264.259265,4.057115999981761,-2.2003357979374703,-0.6994322584945617,1.9667206455799624,-0.014575597599228876,0.01379917826252504,-0.08421920974168019,-0.2095890479527506,0.010723969938262063,0.07739109,0.21929274,9.74982546,0.004476,0.000518,0.005567
880264.279251,4.0771020000102,-2.1995389642002388,-0.7011111325355263,1.9714411017322835,-0.01457683658675611,0.013790434515828185,-0.084217636986669,-0.20958413973431392,0.010587191246617682,0.07768539,0.22348161,9.74384136,0.00176,0.002292,0.003274
880264.299237,4.097088000038639,-2.1987593346724617,-0.7027661137589947,1.976113073941721,-0.014377019452396672,0.01378729596950364,-0.0842181752865651,-0.20958063563944093,0.010483273753093903,0.0525423599999999,0.21899844,9.77587101,0.001816,0.003484,0.004956
880264.319223,4.117073999950662,-2.1979833472361108,-0.7043865540956709,1.980741551838876,-0.014446462746902096,0.013486811335627286,-0.08422394084971137,-0.20957279638665946,0.010338382969272262,0.06825798,0.25925868,9.73755315,0.002844,0.000424,0.002462
880264.339209,4.137059999979101,-2.1972171254612087,-0.7059802444716324,1.9853635753620118,-0.014476940058153618,0.013217763584562833,-0.08423385082933202,-0.2095618205700671,0.010235605956160911,0.06795387,0.27841761,9.73934838,0.004087,0.001478,0.004695
880264.359195,4.15704600000754,-2.196458229709397,-0.7075468439305901,1.989911400892158,-0.01454877745859922,0.012956323894643481,-0.08424850729952327,-0.20954640736426478,0.010102264431178651,0.0751446,0.29893032,9.77048532,0.003999,0.001896,0.002778
880264.379181,4.177032000035979,-2.19570818683265,-0.7090886943079389,1.9944170698081933,-0.014596043968104412,0.012745896121235759,-0.0842667860058553,-0.20952761324389874,0.00997523066977123,0.0778423499999999,0.3125466,9.75626082,0.001207,0.001182,0.002965
880264.399166,4.197016999940388,-2.1949666243661206,-0.7106005330893087,1.9988793211105396,-0.0146220584380316,0.0124002989972347,-0.08429035271680772,-0.20950487650680513,0.0099193747841109,0.07708698,0.34638129,9.72363276,0.005477,0.002342,0.006971
880264.419152,4.217002999968827,-2.1942366816764016,-0.7120935907551137,2.0032856262191974,-0.01457449010129909,0.0122906115778408,-0.08431727666710931,-0.2094806431720213,0.009782823957467423,0.07155414,0.34159401,9.76345155,0.003537,0.000611,0.002131
880264.439138,4.236988999997266,-2.19351398554003,-0.7135639231598385,2.0076651303273714,-0.01458749546869658,0.01218124403559079,-0.08434623066811853,-0.20945439658920106,0.009671985071960763,0.07648857,0.34967745,9.75850731,0.001185,0.000674,0.003475
880264.459124,4.2569750000257045,-2.1927994411143206,-0.7150087322687506,2.0119931544091676,-0.014605062731115167,0.011986076094178393,-0.08437872893023951,-0.20942524390505787,0.009563634444325812,0.07813665,0.36883638,9.70971237,0.001185,0.000674,0.003475
880264.47911,4.276960999937728,-2.192092779728753,-0.716431979025227,2.016266214371038,-0.014625743025047397,0.011841644004228534,-0.08441392236689832,-0.209393467967457,0.009470310976814061,0.08098155,0.37706697,9.71823726,0.00248,0.002218,0.004231
880264.499096,4.296946999966167,-2.1913979139184336,-0.717836720804876,2.0204808911400036,-0.01453976135399013,0.011801471735482242,-0.08445119832226067,-0.2093612801463485,0.009363829200919624,0.07050447,0.37302525,9.76464837,0.003926,0.001907,0.003314
880264.519082,4.316932999994606,-2.1907115013925766,-0.7192241674970221,2.0246143071814107,-0.014480220087384296,0.01184513567504776,-0.08448935310307108,-0.20932867711206862,0.00923579881950305,0.0691605,0.36389214,9.72407421,0.003103,0.001173,0.001868
880264.539068,4.336919000023045,-2.1900311747835772,-0.7205947991809482,2.028725398648894,-0.014493616735255451,0.011928432087100453,-0.08452634675280248,-0.20929553126809347,0.009170197579121178,0.07603731,0.3543175799999999,9.75431844,0.003036,0.004684,0.005497
880264.559054,4.356904999935068,-2.1893608612910263,-0.7219548288799905,2.0327700124218557,-0.01444007078490349,0.012206447707384821,-0.0845606513149012,-0.20926373392308917,0.009086676204348547,0.07184844,0.32018859,9.7784118,0.003306,0.001649,0.004315
880264.579039,4.376889999955893,-2.188698380285448,-0.7232952820760632,2.036739759258504,-0.014400633781430942,0.012331973748018803,-0.0845942433618113,-0.2092319681919472,0.009005824236579564,0.07079877,0.31629402,9.77407578,0.00161,0.002983,0.004368
880264.599025,4.396875999984331,-2.1880412450503077,-0.724616478971557,2.040632268409536,-0.0144384936312298,0.012374204534838541,-0.08462786966265992,-0.2091985452274144,0.008912156205563829,0.07903917,0.31629402,9.75536811,0.004728,0.003229,0.003472
880264.619011,4.41686200001277,-2.187395659107448,-0.7259270494609644,2.044470997201783,-0.014341801488277284,0.012597637858157582,-0.08465956815399818,-0.2091669283643903,0.008829794789123085,0.06706116,0.28709946,9.74712771,0.002164,-0.001342,0.00405
880264.638997,4.436847999924794,-2.186754055435969,-0.7272226592299257,2.0482596499728363,-0.01438203144060339,0.012793735574357465,-0.08468884417303363,-0.20913505252638354,0.008741312899518395,0.07903917,0.2718351,9.76164651,0.002662,0.00306,0.003564
880264.678968,4.476818999974057,-2.1862054192973246,-0.7280342583444237,2.0519579931092746,-0.014851333409382654,0.012066639017897842,-0.08474523139724363,-0.20903275996482834,0.008671517203997772,0.06137136,0.28874754,9.75072798,0.00291,0.000581,0.004669
880264.698955,4.49680600001011,-2.185550654405425,-0.7292678340606099,2.0556754647738877,-0.0143429750231684,0.012625164170605115,-0.08478117562430208,-0.20899264695612163,0.008574330785862857,0.07065162,0.28410741,9.76060665,0.004714,0.001609,0.002884
880264.718941,4.516792000038549,-2.1849201358397776,-0.7304999898993001,2.0593552199385226,-0.014284011553482922,0.01265638135232461,-0.08481617626773036,-0.20895716167374778,0.00848732419402188,0.07155414,0.29024847,9.73306017,0.001433,0.002342,0.003392
880264.738927,4.536777999950573,-2.1843019221308753,-0.731719761332734,2.0629712020750803,-0.014320801103301369,0.012561210824017082,-0.0848526340377091,-0.20891991425884077,0.008406225903628693,0.07768539,0.30147111,9.76913154,0.003102,0.002218,0.003648
880264.738927,4.536777999950573,-2.183524918343593,-0.7332682733624057,2.0665793837652533,-0.01298801575992552,0.013920041025413986,-0.08486964830970548,-0.2089416065083041,0.008327736234021346,0.07768539,0.30147111,9.76913154,0.003102,0.002218,0.003648
880264.758913,4.556763999979012,-2.182944309864857,-0.7344715376486672,2.0700492744988654,-0.0139860204430815,0.012696188353316295,-0.08490382873599943,-0.2089181915812958,0.008220133247806561,0.06196977,0.30386475,9.76599234,0.001089,-0.000307,0.001702
880264.798884,4.596735000028275,-2.1824302776064064,-0.7351701908855431,2.0734783075641685,-0.014968804883271293,0.01155378966295874,-0.08497174718741937,-0.20880267806573663,0.008151105597248938,0.08412075,0.3239262,9.76090095,0.00297,0.00097,0.004084
880264.81887,4.6167209999402985,-2.1818241841115458,-0.736298709162973,2.076980226223366,-0.014313935298667375,0.012059378793191517,-0.08501892708896033,-0.2087531849911491,0.00810926974786981,0.06601149,0.32976315,9.75326877,-0.000392,0.003125,0.005715
880264.838856,4.636706999968737,-2.181239223320737,-0.7374256859294475,2.0803992342246636,-0.01418064120848817,0.011992860167342202,-0.0850672639636762,-0.2087083967269908,0.008026604066348414,0.06511878,0.3441348,9.72647766,0.003758,0.002368,0.003073
880264.838856,4.636706999968737,-2.180495562799376,-0.7388935422101192,2.0838192131441993,-0.012890251847967804,0.013554986030154958,-0.08509031783188503,-0.20872536366727437,0.007946545764816591,0.06511878,0.3441348,9.72647766,0.003758,0.002368,0.003073
880264.878828,4.676679000025615,-2.18001641538407,-0.7395342472010685,2.0870435696004686,-0.014799711358730129,0.011386065711855265,-0.08516127628734395,-0.2086184801575354,0.007863372684458813,0.0811287,0.33380487,9.75551526,0.003592,0.003124,0.002843
880264.898814,4.696664999937639,-2.179440965588798,-0.7406118631198677,2.090343270392876,-0.01429274558324256,0.011929324056835873,-0.0852126311170113,-0.20856516463476407,0.0077869134293921055,0.07349652,0.33260805,9.75745764,0.003519,0.001878,0.00317
880264.9188,4.7166509999660775,-2.1788820506005666,-0.7416890405784883,2.0935827760821546,-0.014210813846089779,0.012003246896063507,-0.08526226311571931,-0.20851662512175465,0.007743527754367781,0.07469334,0.3324609,9.73829871,0.002541,0.003358,0.005194
880264.938786,4.736636999994516,-2.178333653220214,-0.7427660739255563,2.0967802890894705,-0.014198006369425364,0.012227968325768866,-0.08530912569212194,-0.20846976860997152,0.007685428898423838,0.07619427,0.3034233,9.78829047,0.004173,0.000795,0.004194
880264.958772,4.756623000022955,-2.177795978077629,-0.7438280675196268,2.099944971109281,-0.014115896919429594,0.012245086530060942,-0.08535672128148651,-0.2084235063845616,0.007616610385585347,0.06675705,0.31134978,9.76404996,0.002888,0.002558,0.003432
880264.978757,4.776607999927364,-2.17726471495312,-0.7448766049486188,2.1030495183190006,-0.014069091027673718,0.012224085105485056,-0.08540527386103713,-0.20837680463647365,0.007551877416642049,0.06571719,0.31419468,9.76688505,0.004202,0.002587,0.003611
880264.998743,4.796593999955803,-2.1767370518292606,-0.745916087380077,2.106098967431448,-0.014106996311176635,0.012314878436954621,-0.08545258415526251,-0.2083294526751009,0.007486814685783101,0.07394778,0.30027429,9.77601816,0.003027,0.000233,0.00351
880264.998743,4.796593999955803,-2.17604406953111,-0.7472826343644179,2.109141086429786,-0.012851591912265765,0.013769381019425276,-0.08547907922783052,-0.20834117544470135,0.007423763817352383,0.07394778,0.30027429,9.77601816,0.003027,0.000233,0.00351
880265.038715,4.836566000012681,-2.175623095216704,-0.7478306077645631,2.1120622992919644,-0.014650334666689545,0.011666017758584188,-0.08554717777036701,-0.2082338864422866,0.007369102976668222,0.0778423499999999,0.30821058,9.76195062,0.004521,0.001945,0.004037
880265.058701,4.856551999924704,-2.175092983063441,-0.7488122324017853,2.114972982816801,-0.014262237813427298,0.012225366935333864,-0.08559724383347364,-0.208176777180559,0.0072874597446834655,0.08502327,0.29952873,9.77287896,0.002014,0.001933,0.002208
880265.078687,4.876537999953143,-2.174585367773265,-0.7497902225032721,2.1178764006656525,-0.01406095926321269,0.012227532123454505,-0.08564759964654478,-0.20812586401944708,0.0072379931545358805,0.06466752,0.31134978,9.76224492,0.003541,0.003401,0.004217
880265.098672,4.896522999973968,-2.1740856008208786,-0.7507581682839821,2.1207634761819563,-0.014029684751767914,0.012109203791606698,-0.08569982169361828,-0.20807438615594423,0.007186519528436845,0.07005321,0.3242303099999999,9.75236625,0.003734,-6.6e-05,0.004027
880265.118659,4.916510000010021,-2.1735877397016194,-0.7517166987353301,2.123617338183749,-0.014155828058835552,0.012044939159617431,-0.08575191020949709,-0.208020131619452,0.007152143310702872,0.08906499,0.32527017,9.76704201,0.005084,0.001525,0.005089
880265.138645,4.93649600003846,-2.173102993345243,-0.7526652289306892,2.1263798542813355,-0.01401988872498925,0.012031685076403823,-0.08580580165779322,-0.20796653984662938,0.007088961872592881,0.06571719,0.32377905,9.7812567,0.003963,0.000915,0.003147
880265.158631,4.956481999950483,-2.172620067451887,-0.753600941417496,2.1291067376189936,-0.01404325448994794,0.01197590418131677,-0.08586039926529468,-0.20791154230110254,0.007026910493628578,0.07679268,0.32946885,9.73380573,0.003963,0.000915,0.003147
880265.178617,4.976467999978922,-2.172143377047876,-0.7545273063069352,2.131822255803109,-0.014030169387344135,0.011994316794699401,-0.08591498534716706,-0.20785641677792177,0.0069609537408018935,0.07469334,0.3236319,9.76404996,0.003826,0.001239,0.002817
880265.198603,4.996454000007361,-2.1716723469471857,-0.7554447857769407,2.1344656190964466,-0.013995750303207953,0.0120620354280953,-0.08596901234138661,-0.20780147573408514,0.006912352514194919,0.07139718,0.3150972,9.752670360000002,0.001614,0.001206,0.003888
880265.218588,5.0164390000281855,-2.171206371285147,-0.7563462261966777,2.1370834997048505,-0.013975882536274081,0.011955905384664622,-0.08602482661016005,-0.20774536004309133,0.006852665591229236,0.07215255,0.33186249,9.737101890000002,0.003444,0.003899,0.003095
880265.238574,5.036424999940209,-2.1707430258709377,-0.757244039196814,2.13963926708937,-0.014022702820156727,0.012095370476693762,-0.08607858161286924,-0.20768903944250403,0.006787826708735266,0.0791863199999999,0.30716091,9.780962400000002,0.00306,0.001542,0.002681
880265.25856,5.056410999968648,-2.1702862655956894,-0.758127055279427,2.1421845145988563,-0.014001124411574509,0.01205418402743834,-0.08613309182672606,-0.20763224168032657,0.0067292856581109275,0.0754389,0.31913892,9.746235,0.002056,0.000598,0.003027
880265.278546,5.076396999997087,-2.1698339338469195,-0.758999862024555,2.144704575630696,-0.013997446684883088,0.012035738668157636,-0.08618792542574046,-0.2075748341071213,0.006676215288168532,0.07693983,0.31883481,9.72691911,0.004434,0.002945,0.003325
880265.298532,5.096383000025526,-2.1693884901304212,-0.7598658816225574,2.147158142921498,-0.013926335519419734,0.012120668534165893,-0.08624232874036744,-0.20751833461080824,0.006627604220221023,0.06795387,0.3065625,9.76329459,0.00213,0.001041,0.00356
880265.318518,5.116368999937549,-2.168946570014014,-0.7607227804261316,2.1495992124535075,-0.013917079802655935,0.012193840935903527,-0.08629579494408247,-0.20746219323047466,0.006591632840661922,0.07079877,0.30042144,9.76508982,0.003095,0.003088,0.004352
880265.338504,5.136354999965988,-2.1685094056191248,-0.7615663535539491,2.152012116862597,-0.013906253763388797,0.012140126936433874,-0.08635016241054029,-0.20740522667575687,0.006552963368225478,0.07125003,0.31060422,9.75640797,0.002381,0.002296,0.004129
880265.35849,5.156340999994427,-2.1680751609930815,-0.762399641349699,2.154385389199515,-0.013943296729143729,0.012096813349207324,-0.086404937822377,-0.20734682795803666,0.006505347885261211,0.07768539,0.31270356,9.74384136,0.003208,0.003088,0.003482
880265.35849,5.156340999994427,-2.16747268932941,-0.7635676651972151,2.1567517009515997,-0.012747573365018286,0.013627237447232083,-0.08643852680590207,-0.2073482623222326,0.006459151383820772,0.07768539,0.31270356,9.74384136,0.003208,0.003088,0.003482
880265.398462,5.196312999934889,-2.167149094007746,-0.7639048376488355,2.1589881150695263,-0.01444461354723117,0.011319370062908984,-0.08651619747399052,-0.20722874022948953,0.006414612777823613,0.08023599,0.32258223,9.75716334,0.004124,0.001247,0.003584
880265.418448,5.216298999963328,-2.166717718184427,-0.7646886008554955,2.1612534174839864,-0.013888382011259928,0.01189751843588766,-0.08657626994846779,-0.20716320102895278,0.006375127155718968,0.06122421,0.31689243,9.77496849,0.002919,0.003425,0.003874
880265.438434,5.236284999991767,-2.166296360515154,-0.7654743325513744,2.163449268126139,-0.013843146639269908,0.01194021029763004,-0.0866348775445185,-0.20710176715743112,0.006335190424126546,0.07139718,0.32213097,9.76060665,0.002214,0.001687,0.003796
880265.478406,5.2762569999322295,-2.1659608480880452,-0.7657741699998557,2.1656484118856314,-0.014567602007760775,0.011232169037930253,-0.0867175150296148,-0.20696403975295982,0.006302895460312891,0.08786817,0.31404753,9.78230637,0.003715,0.003815,0.0043
880265.498392,5.296242999960668,-2.165530875858027,-0.7665216423143069,2.167836692045853,-0.013924665709297976,0.011871531556469622,-0.08677901640379607,-0.20689531006461215,0.00625111038338133,0.06571719,0.31808925,9.765246780000002,0.002039,-0.00014,0.002956
880265.498392,5.296242999960668,-2.164946560536039,-0.7676301698726538,2.1700271379370015,-0.012705913113915012,0.013510411206988019,-0.08681610930161664,-0.20689314232970277,0.00620086733868945,0.06571719,0.31808925,9.765246780000002,0.002039,-0.00014,0.002956
880265.518376,5.316226999973878,-2.164556134690189,-0.768401450346243,2.17214415871544,-0.013660950333458368,0.012181089433753843,-0.08686993340846351,-0.2068453456267585,0.006162795095184289,0.07409493,0.3210813,9.749227050000002,0.003139,0.004128,0.003728
880265.558349,5.3562000000383705,-2.1642630660990054,-0.7686876603527055,2.174268673871259,-0.014347993492860135,0.011341154054338914,-0.08695249083789396,-0.20671389714741967,0.006154205910608302,0.07125003,0.30506157,9.76300029,0.00217,0.002509,0.005702
880265.578335,5.376185999950394,-2.163852650142608,-0.7694085974926076,2.176360130663613,-0.013827191154489127,0.011967894618952434,-0.08701381310083472,-0.2066458500763479,0.006126866139992919,0.06511878,0.30806343,9.78021684,0.003328,0.004333,0.004428
880265.598321,5.396171999978833,-2.163458288651456,-0.7701345778407351,2.1784244144951037,-0.013760082434404339,0.0119318719612812,-0.08707474648243407,-0.2065823673010391,0.006094613994816413,0.06960195,0.32407335,9.75805605,0.004148,0.002643,0.004065
880265.618307,5.416158000007272,-2.1630720804431913,-0.7708643393888626,2.180456519511475,-0.013774430062739968,0.011993134980338131,-0.08713436476962712,-0.20651945137087607,0.006086144289229334,0.07244685,0.31090833,9.77137803,0.002902,0.002396,0.005633
880265.638293,5.436144000035711,-2.162690085543792,-0.7715840422884681,2.1824382674317357,-0.013834161322956857,0.011888545663794265,-0.08719499780110912,-0.2064543636137907,0.006049234156165275,0.08143281,0.32631984,9.79368597,0.002223,0.00157,0.003698
880265.658279,5.456129999947734,-2.1623143384158423,-0.7722981768681502,2.1844056100489118,-0.013823647058211272,0.011866101536695553,-0.08725603048185589,-0.20638889896165794,0.006008150888442638,0.07753824,0.3239262,9.77751909,0.003892,0.002819,0.003374
880265.678265,5.476115999976173,-2.1619416484890546,-0.7730021283059108,2.1863354446938636,-0.013844696279834645,0.011778820679277229,-0.08731809753327553,-0.20632192446309552,0.0059518493528977565,0.08248248,0.33351057,9.77182929,0.004273,0.000751,0.002295
880265.698251,5.496102000004612,-2.1615759509172388,-0.7737038000486168,2.1882558446227103,-0.013764120767828248,0.011876883831799105,-0.08737936909909282,-0.20625661722203478,0.005924315404905253,0.06990606,0.31689243,9.7781175,0.002545,0.001592,0.004186
880265.698251,5.496102000004612,-2.1610373246880616,-0.774741290643169,2.190156966785243,-0.012629542552357096,0.013491186164227604,-0.08741817240405851,-0.20625158198661733,0.005897605764221423,0.06990606,0.31689243,9.7781175,0.002545,0.001592,0.004186
880265.698251,5.496102000004612,-2.160517229586817,-0.7757886708013666,2.1920067107798022,-0.012161683698961787,0.014157566373030488,-0.08745285976104639,-0.2062566539887545,0.005871682874867533,0.06990606,0.31689243,9.7781175,0.002545,0.001592,0.004186
880265.758209,5.556059999973513,-2.160275950248214,-0.7753467658359843,2.1938434117167436,-0.014487887993393437,0.010599202791478458,-0.08756590044830426,-0.20606019125574604,0.005860845059078748,0.07469334,0.33170553,9.77916717,0.003251,0.000861,0.005235
880265.778195,5.576046000001952,-2.1598857543706913,-0.7759586596226488,2.195673493861049,-0.013795765521063905,0.011576794160829426,-0.08763483345437588,-0.2059822726310369,0.005830030430574538,0.07110288,0.33110712,9.77766624,0.001638,-0.000218,0.003861
880265.798181,5.596032000030391,-2.159521040921979,-0.7766052539116023,2.1974551842285175,-0.013746436919687802,0.011828557688463222,-0.08769844386565834,-0.20591362152245415,0.005799027655226726,0.07679268,0.31479309,9.77871591,0.002653,0.00203,0.003812
880265.818167,5.6160179999424145,-2.15917292312589,-0.7772559331937847,2.1992184261587697,-0.013654911372629065,0.01184685444743623,-0.08776230467397407,-0.20584687291189097,0.005773616909640466,0.06556023,0.32213097,9.76823883,0.002374,0.000146,0.004159
880265.838153,5.636003999970853,-2.1588293338773306,-0.7779049482456162,2.2009787466084374,-0.01367484637286428,0.011851136534081048,-0.08782568516837003,-0.20577983453244295,0.005771133466022257,0.07289811,0.32093415,9.7493742,0.00079,0.001691,0.005698
880265.858139,5.655989999999292,-2.1584911980450627,-0.7785488792605669,2.2026955616694917,-0.013665601867414898,0.011852316598779793,-0.0878893151133317,-0.20571249623365745,0.0057358947289795,0.07125003,0.320787,9.76374585,0.004396,0.000555,0.003452
880265.878124,5.675975000020117,-2.1581577851945335,-0.7791880577008695,2.2043780875008956,-0.013629891197062297,0.01189005576637459,-0.08795264618333443,-0.20564560592843606,0.0057094874288658275,0.06706116,0.31598991,9.77092677,0.000487,-0.000475,0.004017
880265.89811,5.69596099993214,-2.157826289170833,-0.7798219130183508,2.2060644867807717,-0.01365313303371529,0.011946334364123224,-0.08801491379423171,-0.20557878419197606,0.00569545185165923,0.07184844,0.30955455,9.75850731,0.002879,0.000755,0.004837
880265.918096,5.715946999960579,-2.1574982160368847,-0.780447204991132,2.20771350896172,-0.013660781075719825,0.011926029406679601,-0.08807744398139873,-0.20551128885526532,0.005661123193143451,0.07289811,0.31464594,9.76000824,0.003759,0.0013,0.003427
880265.938082,5.735932999989018,-2.1571718632814387,-0.781061242093028,2.2093492864486564,-0.013706690396224056,0.011786191640796985,-0.08814127925421222,-0.2054416576733141,0.005625245099635736,0.0811287,0.33095997,9.752817510000002,0.003056,0.002004,0.003283
880265.958068,5.755919000017457,-2.1568526125664254,-0.7816749748856054,2.210950950397396,-0.01361719013848578,0.011881953515128286,-0.08820461902174186,-0.20537370035515332,0.00559213309400905,0.06541308,0.31270356,9.76300029,0.003519,0.001611,0.003433
880265.978054,5.77590499992948,-2.156534410925607,-0.7822767977063481,2.212503485500573,-0.013620237866575225,0.011783509698202438,-0.08826914345560097,-0.20530435965987787,0.0055491874246962735,0.07289811,0.32946885,9.749227050000002,0.003002,0.001423,0.002718
880265.99804,5.795890999957919,-2.1562225254363843,-0.7828746166201942,2.2140666340942055,-0.01353042425782289,0.01179445573372808,-0.08833414254521531,-0.20523613437391722,0.005530770489526841,0.06077295,0.3242303099999999,9.76778757,0.005146,0.003798,0.004363
880266.018026,5.815876999986358,-2.1559086398622562,-0.783469429371446,2.215571575592856,-0.013610757331455501,0.011889736848218644,-0.08839691291535547,-0.2051673798618174,0.005531154311898091,0.07484049,0.31015296,9.77587101,0.003037,-5e-05,0.005637
880266.038012,5.835863000014797,-2.1555965950712253,-0.784054451222575,2.2170744684880432,-0.013692547617058922,0.011848154260265713,-0.08845961304391554,-0.2050970146764637,0.005503852989662778,0.08337519,0.31913892,9.75386718,0.003643,0.003292,0.003726
880266.057998,5.85584899992682,-2.1552919193179774,-0.7846326273393878,2.2185581621655395,-0.013612195677280465,0.011804807278629708,-0.08852346300272042,-0.20502698733527233,0.005485800172512994,0.06975891,0.3242303099999999,9.75671208,0.003434,0.002264,0.004335
880266.09797,5.895820999983698,-2.155071747230033,-0.7847111823529296,2.2200568377370473,-0.01434600156379493,0.010982907528025053,-0.08861156142548046,-0.20487849510178904,0.005489086244335333,0.09445068,0.320787,9.75731049,0.003791,0.002655,0.005789
880266.117956,5.915807000012137,-2.1547491809107444,-0.7852475665759548,2.2215096426579475,-0.013722559774904773,0.011686216597414952,-0.0886782007242666,-0.2047999315919916,0.0054840983498621685,0.0694548,0.3204828899999999,9.76554108,0.001462,0.002007,0.005225
880266.117956,5.915807000012137,-2.1542671153169417,-0.7861490422171096,2.222928115395227,-0.012579087804116844,0.013396313206953066,-0.08872066072366099,-0.20478831224873711,0.005479282918955289,0.0694548,0.3204828899999999,9.76554108,0.001462,0.002007,0.005225
880266.157928,5.955778999952599,-2.154070937839547,-0.7862186899267359,2.224251196922072,-0.014173873384261331,0.011080042858577199,-0.08880539936507884,-0.20465606457783872,0.005434150955042177,0.08696565,0.32347494,9.74099646,0.005947,0.004141,0.002465
880266.157928,5.955778999952599,-2.153586207562575,-0.7870972217870803,2.225652568538184,-0.012759096431260256,0.01317568054258778,-0.0888499061358347,-0.2046392918779193,0.005390321607490764,0.08696565,0.32347494,9.74099646,0.005947,0.004141,0.002465
880266.1979,5.995751000009477,-2.153395176067261,-0.7871562325862758,2.2270075332675194,-0.014178266771663634,0.011112159595910165,-0.0889344257528485,-0.20450553554728831,0.00537167649121675,0.08547453,0.31808925,9.77960862,0.002319,0.000484,0.004186
880266.217886,6.015737000037916,-2.1530945035263214,-0.7876731643536825,2.2283342837381674,-0.01361420779561948,0.011700145605433249,-0.08900230855485808,-0.20442770526404724,0.005340720120387686,0.06331374,0.32138541,9.77737194,0.003574,0.001252,0.003319
880266.237872,6.0357229999499395,-2.152804079724039,-0.7882021160317272,2.2296797039517013,-0.013541067472157064,0.011805078347974786,-0.08906774168424472,-0.20435570659848812,0.005367975129448603,0.06975891,0.31763799,9.77661657,0.004779,0.002011,0.007282
880266.237872,6.0357229999499395,-2.1523441193941606,-0.7890792001793878,2.230953635226248,-0.012486298730943531,0.01344788985974845,-0.08911086153547507,-0.20434371705026086,0.005394493819715089,0.06975891,0.31763799,9.77661657,0.004779,0.002011,0.007282
880266.277844,6.075695000006817,-2.152183781586965,-0.7891223221498124,2.2322011914596747,-0.013898142361373579,0.011072649496547746,-0.08919931665050713,-0.20421504923530762,0.005368296693137428,0.06840513,0.32602554,9.75147354,0.003065,0.001135,0.003662
880266.29783,6.095681000035256,-2.1518902677502343,-0.7896197368908834,2.2334608392055273,-0.013627328740953126,0.011612380667485983,-0.08926813920615483,-0.20413532772351234,0.005350188755802813,0.08172711,0.32766381,9.76374585,0.005321,0.002585,0.004189
880266.317816,6.11566699994728,-2.1516123943221586,-0.7901325407423276,2.234725668808365,-0.013522630042154739,0.011839715028352977,-0.08933370278083452,-0.2040628702299518,0.005333491462034692,0.06720831,0.30806343,9.79967007,0.001267,-0.001611,0.004267
880266.337802,6.135652999975719,-2.1513403461826015,-0.7906407942795298,2.2359689443667374,-0.013495643583025742,0.01178886867105647,-0.08939976530729439,-0.20399054983554932,0.0053329462409013725,0.06990606,0.32347494,9.76913154,0.00261,0.002573,0.005361
880266.357788,6.155639000004157,-2.1510713167616813,-0.7911444466606262,2.237177626059184,-0.01350703980192646,0.011705491567100107,-0.08946655745413165,-0.203917086136064,0.005337032408405118,0.07409493,0.33095997,9.76972995,0.003776,0.000353,0.005678
880266.357788,6.155639000004157,-2.1506283053647697,-0.791992532759549,2.238347577446776,-0.012468479110001629,0.013377668250561631,-0.08951054239679418,-0.2039035605948038,0.005341030199016569,0.07409493,0.33095997,9.76972995,0.003776,0.000353,0.005678
880266.397759,6.195609999937005,-2.150486337174266,-0.7920093237967822,2.239526713006957,-0.013863157352717611,0.011047346478937231,-0.08959928817882525,-0.20377384335556417,0.005331070896246079,0.06856209,0.32527017,9.76508982,0.004638,0.00207,0.004716
880266.417745,6.215595999965444,-2.1502085998373457,-0.7924781724322164,2.2406916514924653,-0.013602501221772144,0.011617731036698836,-0.08966816360789549,-0.20369320581960135,0.005304783424879815,0.08248248,0.32437746,9.77392863,0.002623,0.001248,0.003576
880266.437731,6.235581999993883,-2.1499424544162955,-0.7929588597895108,2.2418371020934442,-0.0135882383500859,0.011767573178150298,-0.08973368750297635,-0.20361788956398955,0.005301766664992213,0.08098155,0.31494024,9.79413723,0.004725,0.000643,0.005156
880266.457717,6.255568000022322,-2.149683327685892,-0.793442699437717,2.2429586480278214,-0.013577960231700955,0.011880587533753461,-0.08979783228982592,-0.20354408892758372,0.005272497535429754,0.07768539,0.30536568,9.80071974,0.001606,-0.000528,0.003335
880266.477703,6.2755539999343455,-2.149430536900074,-0.7939170583027981,2.244093936863826,-0.013506645545399893,0.011746686758805039,-0.08986407914485954,-0.2034698681625783,0.005269267286300708,0.07244685,0.32931189,9.75940983,0.003267,0.002842,0.005108
880266.497689,6.295539999962784,-2.149179886347985,-0.7943903175703063,2.2451740449695308,-0.013487480084043175,0.011752370157758414,-0.08993060722314987,-0.20339558257830845,0.005215280120526392,0.07275096,0.32153256,9.765246780000002,0.003096,0.000795,0.001584
880266.517675,6.315525999991223,-2.1489307961706134,-0.7948636806093858,2.2462432255011695,-0.013495182377565211,0.011877006696588545,-0.08999504075527764,-0.2033223011655539,0.005215539747104383,0.07260381,0.30506157,9.79892451,0.002126,0.000162,0.005289
880266.537661,6.335512000019662,-2.148681110543447,-0.7953239431745309,2.247293338741004,-0.013582598089956245,0.011710145959118685,-0.09006066482831321,-0.2032461367141491,0.005202022123804381,0.08831943,0.33110712,9.76838598,0.003749,0.003936,0.004332
880266.557647,6.355497999931686,-2.148436789866564,-0.7957816595087273,2.248340592745696,-0.013545923847470042,0.011675522345555764,-0.09012701170270261,-0.20316995216827224,0.005187098847268735,0.07903917,0.32856633,9.78170796,0.00322,0.000237,0.00422
880266.577633,6.3754839999601245,-2.1481951535369777,-0.796240541327376,2.2493570035170167,-0.013508387682809144,0.011815956185081812,-0.09019184705806521,-0.20309537315311021,0.005173618166041314,0.07320222,0.30880899,9.7812567,0.004305,0.00173,0.004303
880266.597619,6.395469999988563,-2.1479572511565133,-0.7966934119764767,2.250379593399785,-0.013444256388408335,0.011853741491718401,-0.090256706176072,-0.20302185937388537,0.005173376365825439,0.06735546,0.31165389,9.75147354,0.001972,-0.00094,0.00521
880266.617605,6.415456000017002,-2.1477197704442017,-0.7971371108009758,2.251417099780058,-0.013460972768664928,0.011746547989160578,-0.09032271280031241,-0.20294703693262553,0.005171202170892978,0.07559586,0.32646699,9.76224492,0.00316,0.001583,0.005076
880266.637591,6.435441999929026,-2.1474841069884674,-0.7975761965850514,2.252396693102974,-0.01347532751452127,0.011681387171963927,-0.09038932364742436,-0.20287106749778583,0.005144536370930848,0.07753824,0.32931189,9.76718916,0.004606,0.002692,0.003365
880266.657577,6.455427999957465,-2.1472501250274494,-0.7980159844158129,2.253347725186547,-0.013491910932844756,0.01178665977587306,-0.09045433558720653,-0.20279572954063646,0.005119453643598976,0.07663572,0.31194819,9.78859458,0.001396,0.001416,0.003446
880266.677564,6.475414999993518,-2.1470180678416213,-0.7984442212926854,2.254290053384792,-0.013505262522413845,0.011643853990598705,-0.090520798207739,-0.20271869229233566,0.005104991891406328,0.08172711,0.33545295,9.74159487,0.004247,0.003049,0.00416
880266.69755,6.495401000021957,-2.1467876937859867,-0.7988700194062295,2.255264966105024,-0.013526714210532066,0.01161675609796675,-0.09058727828472009,-0.20264116011958194,0.005111059915567159,0.0836793,0.33141123,9.79218504,0.00331,0.001891,0.005579
880266.717536,6.51538699993398,-2.1465637032417106,-0.7992984923370487,2.2561957051336625,-0.013414745704392371,0.011795671088311858,-0.0906526897406112,-0.20256646303196052,0.0050886798252022586,0.06436341,0.30910329,9.77632227,0.002022,0.000292,0.003597
880266.737522,6.535372999962419,-2.146340272070566,-0.799713961164116,2.2571369244215447,-0.013394486119922059,0.011649686386922438,-0.09071995639765813,-0.20249050855510384,0.005079366589622272,0.07215255,0.33634566,9.75132639,0.004299,0.00186,0.004487
880266.757508,6.555358999990858,-2.146115870671337,-0.8001287619852633,2.2580572178029588,-0.013463348379362415,0.011664317301849834,-0.09078618565928837,-0.2024137092662592,0.005079264647486639,0.08098155,0.32542713,9.77766624,0.001705,0.000689,0.00512
880266.777494,6.575345000019297,-2.145894805675437,-0.8005418078960518,2.2589807344616073,-0.013462477747691949,0.011737412911534987,-0.09085133440179173,-0.2023375696906869,0.005101671924664263,0.07634142,0.31703958,9.80012133,0.004252,0.001512,0.006694
880266.817466,6.615316999959759,-2.145771141752502,-0.8004492774527107,2.259875717189842,-0.014089809103656797,0.010867928343886484,-0.09094174177921074,-0.2021845807373921,0.005095085994278839,0.09100737,0.3236319,9.75970413,0.004824,0.001341,0.004694
880266.837452,6.635302999988198,-2.145533689600311,-0.8008194920800207,2.260762962473036,-0.013524670609526014,0.011563362411416062,-0.09101092574572926,-0.20210010914095747,0.005078641104741451,0.07139718,0.32602554,9.77108373,0.004203,0.001745,0.004005
880266.837452,6.635302999988198,-2.1451334564494218,-0.8015590162084184,2.261646111289151,-0.012455472671009405,0.013319366016446657,-0.09105594814677015,-0.20208218480425338,0.005062673766249847,0.07139718,0.32602554,9.77108373,0.004203,0.001745,0.004005
880266.857438,6.655289000016637,-2.144927969535089,-0.8019695085758569,2.2625112780235916,-0.013246600514081584,0.012057543328745098,-0.09111607145425472,-0.20202092647101683,0.005069388965312162,0.06975891,0.31134978,9.80416305,0.002803,0.003158,0.005578
880266.89741,6.6952609999571,-2.1448305725806405,-0.8018717559202962,2.263341413887428,-0.013881910106623891,0.01091958298540391,-0.09120795837778992,-0.20187398230960057,0.0050537217065216855,0.07589016,0.32452461,9.7929306,0.001368,0.002044,0.00403
880266.917396,6.715246999985538,-2.144604020367835,-0.8022345236647105,2.2641851462058025,-0.013407355365971667,0.01165805373221395,-0.09127708127056644,-0.20179148492283927,0.005047792334574942,0.06481467,0.31569561,9.78769206,0.004145,0.001706,0.004687
880266.917396,6.715246999985538,-2.144212812034099,-0.8029616448186725,2.2650128335886706,-0.012383092489312375,0.013381953042066626,-0.09132228736117949,-0.20177359609710613,0.005042045881373016,0.06481467,0.31569561,9.78769206,0.004145,0.001706,0.004687
880266.957368,6.755218999926001,-2.144118397425958,-0.8028604198933458,2.2658267809759858,-0.013841658937584964,0.011089615455274836,-0.09140810092717623,-0.20163981469012016,0.0050266635271004915,0.07873506,0.31734369,9.77601816,0.002558,0.003429,0.00402
880266.957368,6.755218999926001,-2.143722766584063,-0.8035684389029842,2.2666575620467917,-0.012559742084740207,0.013184905277767075,-0.09145487717828711,-0.20161737135527277,0.005011727318146283,0.07873506,0.31734369,9.77601816,0.002558,0.003429,0.00402
880266.99734,6.795190999982879,-2.143630171579511,-0.8034453802652743,2.2674189218207372,-0.013865373065485322,0.01092274203740109,-0.09154389850343052,-0.2014788026279429,0.004990935499022925,0.08128566,0.32976315,9.77287896,0.002462,0.001913,0.003612
880267.017326,6.815177000011317,-2.1434143614178494,-0.803795502988074,2.2682282730780656,-0.013448520440981047,0.011617524630609612,-0.09161334571822485,-0.20139517738691204,0.004981651328542602,0.07139718,0.31703958,9.77871591,0.004188,0.00181,0.004389
880267.037312,6.835162999923341,-2.1432089760745563,-0.8041586254455281,2.268992155390368,-0.013397618328936073,0.011743341124804439,-0.09168029392910175,-0.20131709198654038,0.0049622090822246,0.07424208,0.31598991,9.78529842,0.00163,-0.002209,0.003672
880267.037312,6.835162999923341,-2.1428318177361354,-0.8048721271012396,2.269759344064294,-0.012396302842984442,0.013410825953929343,-0.09172581231176409,-0.2012986630934846,0.004943322577313348,0.07424208,0.31598991,9.78529842,0.00163,-0.002209,0.003672
880267.077284,6.875134999980219,-2.142755898506499,-0.80475154297858,2.270492267140618,-0.013795194789216685,0.011011060349210648,-0.09181369832678289,-0.20116378487140732,0.00491724815839338,0.07708698,0.3242303099999999,9.77182929,0.001509,0.0015,0.003173
880267.09727,6.895121000008658,-2.1425485514152447,-0.8050907941345757,2.2712375931405475,-0.01343792252532122,0.011611650682560386,-0.09188325748325103,-0.20107969737482376,0.004905260647835456,0.07499745,0.32093415,9.77032836,0.001368,6.3e-05,0.004123
880267.117256,6.915107000037096,-2.142350363396805,-0.8054394437765905,2.2719738571586383,-0.013408410245825873,0.011663737979348533,-0.09195107274239579,-0.20100017361146502,0.004896222629543848,0.07903917,0.32527017,9.764942670000002,0.004932,0.003225,0.004315
880267.137242,6.93509299994912,-2.1421598075606947,-0.8057933685737726,2.272710375863457,-0.013349575671470642,0.01173147784826003,-0.09201848938219635,-0.2009224614641342,0.004880779872871596,0.07005321,0.3179421,9.75626082,0.004084,0.000119,0.00386
880267.157228,6.955078999977559,-2.1419745215678727,-0.8061472855922258,2.2734564502710928,-0.013257628068726927,0.011791221504929636,-0.09208591044258016,-0.20084646328373934,0.004889222615909012,0.06017454,0.31479309,9.78215922,0.002871,0.002512,0.005507
880267.177214,6.975065000005998,-2.14178757387662,-0.8064960547478751,2.27416962184187,-0.013313038082187565,0.011750360745508795,-0.09215326462709701,-0.20076922996529137,0.004870730461489562,0.07364367,0.320787,9.74384136,0.002951,0.00321,0.003638
880267.1972,6.995051000034437,-2.1416008852513597,-0.8068388693682368,2.274868743246083,-0.01338700903711271,0.011645063101468836,-0.09222102742923037,-0.20068995581899624,0.004852295865207817,0.08292393,0.33110712,9.74832453,0.003694,0.004465,0.003622
880267.217185,7.015035999938846,-2.1414173321165713,-0.8071822897971774,2.275530867885525,-0.01338245873118868,0.011689909545655694,-0.09228809663630662,-0.20061100462252537,0.0048349238270728075,0.07693983,0.320787,9.77601816,0.004427,0.003517,0.003675
880267.237172,7.035022999974899,-2.141234896040403,-0.8075231696434848,2.276182311713381,-0.013394707952763842,0.011736936997185622,-0.09235445775576102,-0.2005322751108046,0.004807500700921596,0.0782838,0.31644117,9.7841016,0.003159,0.001646,0.002955
880267.257157,7.055007999995723,-2.1410539258072365,-0.8078613363436179,2.2768361650156725,-0.013403902815767765,0.011777521601861598,-0.09242013289169142,-0.2004537934074758,0.004790424130987358,0.07858791,0.31330197,9.780815250000002,0.003345,0.003518,0.003649
880267.277143,7.074994000024162,-2.140875307133804,-0.8081933335484766,2.277481866841965,-0.013388432700475753,0.011719557755223372,-0.0924866504670737,-0.20037481061423906,0.00476073863598758,0.07813665,0.32318064,9.76883724,0.003053,-1.6e-05,0.00275
880267.297129,7.094979999936186,-2.1407007628567016,-0.808521518844259,2.278107604157656,-0.013307447174922226,0.011669481320690244,-0.09255448723160273,-0.2002961389209752,0.004723925767031501,0.06930765,0.32856633,9.76584519,0.003785,0.002992,0.00222
880267.297129,7.094979999936186,-2.140346864611344,-0.809194708421371,2.278762825545604,-0.012338850743405088,0.013357751090615504,-0.09260037787852964,-0.20027637859173833,0.0046881402088057855,0.06930765,0.32856633,9.76584519,0.003785,0.002992,0.00222
880267.337101,7.1349519999930635,-2.140304646183533,-0.8090270473509424,2.2793769791077727,-0.013584087132324067,0.010850066152740673,-0.09269269040395306,-0.20014124353675738,0.004683300936424313,0.0663156,0.33829785,9.7957755,0.002087,0.001195,0.004382
880267.357087,7.154938000021502,-2.140118897218465,-0.809324502750366,2.279989342628884,-0.01332298922103487,0.011516211667098679,-0.09276389805426634,-0.2000561044851518,0.004655102939825977,0.07424208,0.32557428,9.77632227,0.003288,0.00212,0.002743
880267.377073,7.174923999933526,-2.1399422169547613,-0.8096333136439502,2.2805964083076944,-0.013315777639332367,0.01164278833375265,-0.09283204328001017,-0.19997603826618868,0.004655224901917917,0.07559586,0.32332779,9.78859458,0.001546,0.001972,0.004695
880267.397059,7.194909999961965,-2.1397707153405547,-0.809943484432987,2.2811916543027806,-0.013323634752882917,0.011636302874622717,-0.09290003564639712,-0.19989622303804244,0.004638125684093668,0.07663572,0.32796792,9.77781339,0.003368,0.003252,0.003489
880267.417045,7.214895999990404,-2.139601589899399,-0.8102528280723786,2.2817941933304713,-0.013344365666376505,0.011622145559238439,-0.09296791202955156,-0.19981605514125939,0.004627156295613023,0.0791863199999999,0.32871348,9.79368597,0.003388,0.002572,0.003901
880267.437031,7.2348820000188425,-2.1394341734224454,-0.8105620350733284,2.28236689380042,-0.013358791179871534,0.011664474284704204,-0.09303491455639847,-0.19973601068678914,0.0046253614809862,0.07903917,0.32227812,9.76764042,0.003007,9e-06,0.004531
880267.477003,7.274853999959305,-2.1393809693010573,-0.8103739216516561,2.2829479111782476,-0.013804781770593995,0.010895907172812837,-0.09312735426156252,-0.19958458037904786,0.004623980453301505,0.07603731,0.3198844799999999,9.76764042,0.002591,0.000316,0.00456
880267.477003,7.274853999959305,-2.139020126717011,-0.8109981907932214,2.283515879901537,-0.012514663628394918,0.013104812806306723,-0.09317552317315492,-0.19955839930474298,0.004622650925219116,0.07603731,0.3198844799999999,9.76764042,0.002591,0.000316,0.00456
880267.516975,7.314826000016183,-2.1389698781002626,-0.8107999548131949,2.284064368798246,-0.01371731456079005,0.010967595925928173,-0.09326468083599879,-0.1994198016877917,0.004604756605825488,0.07589016,0.32437746,9.77901021,0.00277,0.001483,0.003414
880267.536961,7.334811999928206,-2.1387932626827064,-0.8110724280588302,2.2846097047118867,-0.013317260169502002,0.011579185726753349,-0.09333539073956237,-0.19933426262871523,0.004603775469984312,0.06885639,0.32437746,9.7894971,0.003335,0.000563,0.004565
880267.556947,7.354797999956645,-2.138623486578165,-0.8113620882325387,2.2851384268472508,-0.0133614357711793,0.011718430151288687,-0.0934026563980881,-0.19925339094784594,0.004582275922328377,0.08248248,0.31494024,9.78589683,0.00431,0.000638,0.003141
880267.556947,7.354797999956645,-2.138283168312341,-0.812003344093421,2.2856795464362705,-0.012376695116886327,0.013396039362184078,-0.09344905823585486,-0.19923210900398028,0.0045613850548782775,0.08248248,0.31494024,9.78589683,0.00431,0.000638,0.003141
880267.596919,7.394770000013523,-2.13826313283123,-0.8118135407099495,2.2861261571858122,-0.013483170177195757,0.011031535375694086,-0.09353995144378967,-0.19909990637917352,0.004515123482704177,0.05703534,0.32512302,9.77197644,0.004931,0.002519,0.00138
880267.616905,7.414755999925546,-2.1380916014825613,-0.8120773672822361,2.286649146159956,-0.013297431277162586,0.01150445556978662,-0.09361191335473172,-0.19901353059357055,0.004505999135006075,0.0805302899999999,0.33514884,9.78021684,0.00371,0.000594,0.003909
880267.636891,7.434741999953985,-2.1379354761403238,-0.8123577668646511,2.2871808091590715,-0.013171028718462555,0.01164714868758891,-0.09368220008324898,-0.19893382331198659,0.004479783775866908,0.06047865,0.32497587,9.763893,0.003537,0.00242,0.002713
880267.656877,7.454727999982424,-2.1379811750988496,-0.8126413455589712,2.287704263045436,-0.01325846954290225,0.011646099886753199,-0.09374640947481468,-0.1988445883656796,0.004480090662368222,0.07679268,0.3267711,9.77946147,0.004936,0.002088,0.004528
880267.676863,7.474714000010863,-2.1380297049398145,-0.8129251136449653,2.288198268720836,-0.013268937326320203,0.011652351322524653,-0.0938103239130623,-0.19875525952656864,0.004467788473725951,0.07364367,0.32617269,9.79173378,0.002293,0.000714,0.00365
880267.696849,7.494700000039302,-2.138079653557949,-0.8132058397785067,2.288685815395839,-0.013251832015791923,0.011619112868971602,-0.09387472118870366,-0.19866575795657623,0.004456250808730497,0.07199559,0.33126408,9.78170796,0.003647,0.004407,0.00369
880267.716835,7.514685999951325,-2.138128021120917,-0.813488901370484,2.2891532316990606,-0.01329381744324937,0.011731802749218536,-0.09393736995007537,-0.19857684458459726,0.004424033775227802,0.07529175,0.31374342,9.77677353,0.001913,0.002202,0.002237
880267.736821,7.534671999979764,-2.138180790227661,-0.8137645269277983,2.289620368005055,-0.0131959300963755,0.011655912055360835,-0.09400172877443687,-0.1984882619150672,0.0044118045628680925,0.063765,0.33200964,9.77901021,0.002981,-0.000122,0.003596
880267.756807,7.554658000008203,-2.13823290562358,-0.8140400364004813,2.290115801955663,-0.013163827558954804,0.011683745490559986,-0.09406604789896282,-0.19840038744378907,0.004419704096241209,0.06316659,0.32452461,9.78889869,0.002626,0.000581,0.004988
880267.776793,7.574644000036642,-2.1382793545026226,-0.814311465902251,2.2905960639477048,-0.013308157091472308,0.01165937457982486,-0.09412922783513666,-0.19831054375708557,0.004404144773507689,0.08457201,0.32497587,9.780658290000002,0.002538,-0.001612,0.003359
880267.796779,7.5946299999486655,-2.1383312085840966,-0.8145806146587369,2.2910582311345404,-0.013238382030371714,0.011653862853179993,-0.09419311994472308,-0.19822137526961442,0.00437754092512392,0.06856209,0.32766381,9.75685923,0.00182,0.003521,0.002571
880267.816765,7.614615999977104,-2.1383815055017297,-0.8148461900573183,2.2915027894721707,-0.013242428826177845,0.011621252981205579,-0.09425722271350978,-0.19813175933321586,0.004352605787999398,0.07349652,0.33081282,9.75776175,0.003797,0.000365,0.002659
880267.836751,7.634602000005543,-2.1384309200894376,-0.8151109575967351,2.2919794338588986,-0.013271856486671379,0.011651713911304935,-0.0943205660256982,-0.19804217993247838,0.004363208648706352,0.07619427,0.32452461,9.79787484,0.004761,0.002336,0.005118
880267.856737,7.654588000033982,-2.1384821998346406,-0.8153737874183461,2.2924517667723556,-0.013239702604430723,0.011686562893005466,-0.09438388384226766,-0.19795329387536686,0.004354419281989083,0.07020036,0.32258223,9.77617512,0.003686,0.001235,0.003773
880267.876723,7.674573999946006,-2.1385326571225174,-0.8156276372026928,2.292910010713573,-0.01324347029678578,0.011521962071039598,-0.0944488869110008,-0.19786262345318104,0.004361138528441007,0.07708698,0.34518447,9.780962400000002,0.003844,0.000797,0.004848
880267.896709,7.6945599999744445,-2.1385827737086527,-0.8158888666247734,2.293326322535343,-0.013252168178977779,0.011704139975041555,-0.09451153556453953,-0.1977735842548128,0.004353942860546878,0.07184844,0.31330197,9.78725061,0.0026,0.001442,0.003879
880267.916695,7.714546000002883,-2.138632078299289,-0.8161416556918374,2.2937689257909266,-0.013284878326179006,0.011639907313466202,-0.09457463014930548,-0.1976835632513392,0.004355746372516513,0.07933347,0.32976315,9.75731049,0.001398,0.001378,0.004503
880267.936681,7.734532000031322,-2.138682272462062,-0.8163874524291952,2.294191244965136,-0.013277476931428065,0.011473810713099926,-0.09463957665750304,-0.19759185505557758,0.004362034595206949,0.08067744,0.34862778,9.75147354,0.003856,0.003449,0.004818
880267.956667,7.754517999943346,-2.1387318708981624,-0.8166373464081402,2.294571339730962,-0.013289957399306,0.011562543690536626,-0.09470334374743263,-0.1975007866863963,0.004333060177307702,0.07888221,0.32856633,9.78560253,0.004365,0.001878,0.002351
880267.976653,7.774503999971785,-2.138785417822969,-0.8168835738124204,2.2949760828915027,-0.013188731471734891,0.0115760592868822,-0.0947679196878354,-0.1974110558628145,0.004327655970727548,0.06586434,0.33395202,9.77512545,0.004149,0.002635,0.003975
880267.996639,7.7944900000002235,-2.1388352448858554,-0.8171242578690984,2.295357993466874,-0.013236216767788151,0.011493141357454011,-0.09483288265797164,-0.19731985810333183,0.004314920274795972,0.07948062,0.34308513,9.76913154,0.005137,0.004551,0.003454
880268.036611,7.834461999940686,-2.139005427717652,-0.8168747949835754,2.2956912277225765,-0.013644221844453673,0.010830575374884558,-0.09492296468967648,-0.19715963285252458,0.004283990619322991,0.0694548,0.32318064,9.80895033,0.003152,0.001596,0.002193
880268.036611,7.834461999940686,-2.138859286069184,-0.8174355406826805,2.2960953947242775,-0.01242447018702205,0.013068221940313093,-0.0949672295449227,-0.1971228428141502,0.004253930150297945,0.0694548,0.32318064,9.80895033,0.003152,0.001596,0.002193
880268.076583,7.874433999997564,-2.1390236603117407,-0.8171605050203592,2.2965032629139728,-0.013638415889852155,0.010734410597432515,-0.09505538192336412,-0.19697135636526591,0.004263338465014554,0.07978473,0.34368354,9.77677353,0.004566,0.001984,0.004926
880268.096569,7.8944200000260025,-2.1390570069937476,-0.8173740455021816,2.2968936847159735,-0.013309818250157177,0.011535751514017166,-0.09512143492326712,-0.19687474805970898,0.004246684953794388,0.07484049,0.31778514,9.80670384,0.001831,-0.00019,0.003129
880268.116555,7.914405999938026,-2.1390993086548282,-0.8175989623456615,2.297278517219276,-0.013296746491739283,0.011598881306476174,-0.09518542444381843,-0.19678276725109353,0.004239311596767075,0.08143281,0.32946885,9.77632227,0.002627,0.000807,0.003755
880268.136541,7.934391999966465,-2.1391463173766545,-0.8178274313992937,2.29764177927765,-0.013295275508800703,0.011550073070325233,-0.09524973299394973,-0.19669075322395435,0.004224690724499837,0.08203122,0.33664977,9.78919299,0.002507,0.001993,0.003243
880268.156527,7.954377999994904,-2.1391960378023884,-0.8180569825309271,2.298013838884426,-0.013271265763973472,0.011526186726349785,-0.09531452626691414,-0.19659884689120466,0.004214372107224485,0.07903917,0.3376994400000001,9.79457868,0.002408,-0.000565,0.003527
880268.156527,7.954377999994904,-2.139065828113825,-0.8186344653510002,2.298388547105027,-0.012321949587351107,0.013266907637305234,-0.09535717824294643,-0.19656656776666043,0.0042043474087370405,0.07903917,0.3376994400000001,9.79457868,0.002408,-0.000565,0.003527
880268.196499,7.994349999935366,-2.1392448114924503,-0.8183878041147588,2.298716608987446,-0.0136043409353412,0.011017762685271167,-0.09544001738380886,-0.1964215259377989,0.004201303529355363,0.07289811,0.3204828899999999,9.78993855,0.002697,-0.000308,0.00401
880268.216485,8.014335999963805,-2.1409670392595506,-0.8124461390511983,2.2991718611878627,-0.013292014059628732,0.011821688790719011,-0.09517062431856026,-0.1964166580296037,0.004217725851341349,0.06706116,0.33155838,9.780658290000002,0.00136,-0.000149,0.005363
880268.216485,8.014335999963805,-2.1425033283957644,-0.8069142917132934,2.2995946619175918,-0.012360789893157764,0.013635642902712967,-0.0948779286144568,-0.19647513905720213,0.004233701764193553,0.06706116,0.33155838,9.780658290000002,0.00136,-0.000149,0.005363
880268.256457,8.054308000020683,-2.1443488361093297,-0.8005481671681913,2.300068881006128,-0.013638642393035591,0.011162593796405147,-0.0946283428704179,-0.19642007863546646,0.00423164031495945,0.07349652,0.34607718,9.76584519,0.001606,-0.001017,0.004111
880268.276443,8.074293999932706,-2.1460420272364495,-0.7946972678107955,2.3005405916330623,-0.013372006902337521,0.011889117873940024,-0.09435701324776345,-0.19641659429511357,0.004248332733956056,0.07663572,0.32662395,9.77197644,0.003352,0.001689,0.005414
880268.29643,8.09428099996876,-2.147736175471543,-0.788893094283092,2.3009896832489645,-0.013314293721284318,0.012034586378649051,-0.09408358903313357,-0.19641928218356783,0.004242380427650579,0.0722997,0.32272938,9.78485697,0.003133,-6.8e-05,0.003853
880268.316416,8.114266999997199,-2.1494237262171954,-0.7831255933914568,2.301434051382458,-0.01333233120630619,0.012047856874805534,-0.09381013990119394,-0.19642256779446088,0.004253652023839467,0.07708698,0.32332779,9.75970413,0.002319,0.001793,0.005047
880268.336402,8.134253000025637,-2.151106256851117,-0.777391602353464,2.3018719349691823,-0.013281511969572505,0.012045165494685407,-0.09353799974849816,-0.19642658261249135,0.004246678142224462,0.06990606,0.32467176,9.76809168,0.00254,0.001984,0.003786
880268.356388,8.154238999937661,-2.152780061490148,-0.7716859630203505,2.302275949397357,-0.01326523804257781,0.011941124775131423,-0.09326784200487684,-0.19642973760946306,0.004234702346241477,0.07334937,0.33724818,9.75955698,0.002689,-0.000438,0.003428
880268.376374,8.1742249999661,-2.1544447922243792,-0.7660143237789377,2.30268652885197,-0.013276343151208677,0.011966875312892854,-0.0929981202738811,-0.1964331395254037,0.004215280492610581,0.07409493,0.32782077,9.78365034,0.003854,0.002963,0.002896
880268.39636,8.194210999994539,-2.1561013003642366,-0.7603724104635118,2.303093495172498,-0.013271952073476543,0.011956328788118446,-0.09272919153582222,-0.19643654860996854,0.004220155857744073,0.07380063,0.33021441,9.75716334,0.00268,0.002779,0.004573
880268.416346,8.214197000022978,-2.157750544937234,-0.7547592191686633,2.3034999287826023,-0.01323565470092838,0.011908682485569134,-0.09246193001393915,-0.1964399552535914,0.004228950889300282,0.07079877,0.33634566,9.76508982,0.004862,0.001391,0.004852
880268.436332,8.234182999935001,-2.159389267905475,-0.7491765141326626,2.3038521739328264,-0.013272103359585822,0.01189723143620483,-0.09219516581052128,-0.1964427949136936,0.004195427997581863,0.07739109,0.33365772,9.780815250000002,0.003988,0.001135,0.001899
880268.456318,8.25416899996344,-2.161021205384389,-0.7436247693765095,2.304211123474097,-0.013248429367672229,0.011927640690241813,-0.09192903456280781,-0.19644630507252137,0.0041731871008952445,0.07184844,0.32976315,9.77287896,0.000786,0.000304,0.002654
880268.476304,8.274154999991879,-2.1626447176128454,-0.7381008931179823,2.3046121387225256,-0.01324136717812816,0.011902982019518277,-0.09166403870042901,-0.19644980677361815,0.0041862291227337586,0.07334937,0.33395202,9.74757897,0.003645,0.001605,0.005103
880268.49629,8.294141000020318,-2.164254986165849,-0.7326090568250149,2.3049694533338503,-0.013374347698051674,0.01196898171636933,-0.09139756310664696,-0.1964524648361386,0.004183718016563102,0.08906499,0.32003163,9.80820477,0.002308,-0.000112,0.004025
880268.516276,8.314126999932341,-2.165866602383202,-0.7271451056181129,2.3053526147944225,-0.013185473598446807,0.01197914358792607,-0.0911337493900838,-0.19645748855161643,0.004186562884484948,0.05883057,0.32811507,9.77392863,0.002385,0.002048,0.004399
880268.536262,8.33411299996078,-2.1674647443607995,-0.7217067740532545,2.3057065065046745,-0.013228195965085465,0.011898404166437488,-0.09087108177363286,-0.19646120613025989,0.00418038553078359,0.07619427,0.33545295,9.74159487,0.005356,0.001353,0.003768
880268.556248,8.354098999989219,-2.169052419004612,-0.7163013621876317,2.3060650320562424,-0.01332094819215512,0.011980166249809748,-0.09060726892611788,-0.19646480263497418,0.0041810400870218156,0.08322804,0.31838355,9.80461431,0.002286,0.000962,0.004241
880268.576234,8.374085000017658,-2.1706336451176926,-0.7109222567639113,2.3064248943446586,-0.01333352777151124,0.011975363849418729,-0.09034423132449465,-0.19646829014029915,0.004163340612997317,0.08157996,0.32318064,9.7781175,0.004385,0.001871,0.002954
880268.576234,8.374085000017658,-2.1720228208403913,-0.7059322515285407,2.3067967289841844,-0.012396455686191844,0.013678490750504155,-0.09006224826225716,-0.19652972206175714,0.004146134395701797,0.08157996,0.32318064,9.7781175,0.004385,0.001871,0.002954
880268.616206,8.41405699995812,-2.173717630744,-0.7001121533521975,2.3072153098464234,-0.013732901830589677,0.011265534232911607,-0.08981916054199567,-0.19647754768352996,0.004173049942439924,0.08352234,0.32796792,9.81344331,0.004054,0.000734,0.00605
880268.636192,8.43404299998656,-2.1752644688377614,-0.6947893340677507,2.3075799546590963,-0.013385635356957222,0.011893426537849482,-0.08955814372755733,-0.19647637374513838,0.004199582276066622,0.07963758,0.32287653,9.79952292,0.004054,0.000734,0.00605
880268.676164,8.474014999927022,-2.176948051620764,-0.6889810684871075,2.3078535221073215,-0.013619039904100714,0.011203739161850764,-0.08932189127671251,-0.1964135433044777,0.004158695230755475,0.06526593,0.32841918,9.7724277,0.004746,0.000315,0.001381
880268.69615,8.49400099995546,-2.1784706649819547,-0.6836802105254872,2.308198798496889,-0.013419032503630614,0.011893135792008838,-0.08905906935297345,-0.1964127757244048,0.004169302942793058,0.0928026,0.32318064,9.8040159,-0.000365,-7.7e-05,0.004908
880268.716136,8.5139869999839,-2.1800101710536284,-0.6784266305343192,2.30854298714707,-0.013175168253209765,0.01187670602223783,-0.08879740697931639,-0.19641947638391297,0.004202455764708269,0.06211692,0.34024023,9.74398851,0.00529,0.003533,0.006483
880268.716136,8.5139869999839,-2.181358486929263,-0.6735762518055782,2.3088347836536,-0.01228757323290639,0.01362304880467329,-0.08851448149514024,-0.19648431832161456,0.004234695430924725,0.06211692,0.34024023,9.74398851,0.00529,0.003533,0.006483
880268.756108,8.553958999924362,-2.1830122053048893,-0.6679038180788144,2.3091822159303916,-0.013652542540013673,0.011366818045575051,-0.08826914716622399,-0.1964382881985007,0.004237063266871211,0.07888221,0.31689243,9.81045126,0.001492,0.000986,0.004413
880268.776094,8.5739449999528,-2.184524238506949,-0.662719620023352,2.309489150324712,-0.013227201931408614,0.011885484142610564,-0.08800827505016091,-0.19644208747273903,0.004226765014523662,0.06526593,0.33021441,9.76300029,0.004246,0.000308,0.003534
880268.79608,8.59393099998124,-2.186031484914961,-0.6575734719507537,2.3098018753561966,-0.013250492858240367,0.011852625346516923,-0.08774645813322056,-0.1964491644991437,0.004240749321155887,0.08248248,0.33574725,9.75880161,0.003189,0.001716,0.005211
880268.816066,8.613917000009678,-2.1875330065272114,-0.6524683647503764,2.3101121266223092,-0.013327220524851241,0.012036991329011058,-0.08748219395768213,-0.19645790135009383,0.004249520585035509,0.08412075,0.30476727,9.78455286,0.0038,0.001085,0.004863
880268.836052,8.633903000038117,-2.189033898355369,-0.6473863214460078,2.310384767272163,-0.01322368502857119,0.011988115644179584,-0.08722021340373956,-0.196467350629898,0.00422338249986385,0.07035732,0.32272938,9.76778757,0.001639,-0.000375,0.002441
880268.836052,8.633903000038117,-2.190340993307074,-0.6426924120316485,2.3106821708554888,-0.01232104835597895,0.013681834272294607,-0.08693895335362169,-0.19653362896231696,0.004197973791867653,0.07035732,0.32272938,9.76778757,0.001639,-0.000375,0.002441
880268.876024,8.67387499997858,-2.191959133641952,-0.6371710553582088,2.3109641676088923,-0.013592774801475681,0.011325381233542191,-0.08669680473175667,-0.19648930809732748,0.004199960640159394,0.0754389,0.32033574,9.80236782,0.00244,-0.001241,0.004347
880268.89601,8.693861000007018,-2.1934289525758746,-0.6321370624312733,2.3112585560189265,-0.01320898798111239,0.011832394278544024,-0.08643873721456663,-0.19649406839792105,0.004209760455806851,0.06825798,0.3324609,9.77587101,0.002948,0.001078,0.004894
880268.915996,8.713847000035457,-2.1948957261692885,-0.6271408009695264,2.3115302303504155,-0.01320511854091355,0.0118272012062441,-0.08617967765959132,-0.1965026311004714,0.004216875885032262,0.07903917,0.33500169,9.77422293,0.004703,0.002369,0.004716
880268.935982,8.73383299994748,-2.1963583968021942,-0.6221798484304293,2.3118102874528574,-0.013228192391874461,0.011908017414804984,-0.08591996372996398,-0.19651239150815886,0.0042174831945682115,0.0782838,0.32003163,9.81898596,0.00251,-0.000136,0.00427
880268.955968,8.75381899997592,-2.1978179677554035,-0.6172437333468657,2.3120650009299712,-0.013166679173891414,0.01188201941334371,-0.08566171471187756,-0.196522623800673,0.004220478728923934,0.07079877,0.32827203,9.78395445,0.003665,0.002044,0.004436
880268.975954,8.773805000004359,-2.199270247693671,-0.6123306278632857,2.312297349219584,-0.013154553770670277,0.011797962124749133,-0.08540524048813872,-0.19653211400007825,0.0042086352294297925,0.07454619,0.33695388,9.77377167,0.002562,0.001581,0.003402
880268.99594,8.793791000032797,-2.2007162725716176,-0.6074450125021567,2.3125455441995166,-0.013134723066839878,0.011829995318606644,-0.0851493408709027,-0.1965421978971908,0.004216769051021882,0.07095573,0.32871348,9.82661814,0.002905,0.000655,0.004786
880269.015926,8.813776999944821,-2.2021547285264393,-0.602582990421231,2.312768105110785,-0.013146010855552273,0.011830099141538757,-0.0848941068834302,-0.1965521299156427,0.0041930943859040575,0.07394778,0.32931189,9.77797035,0.003321,0.001616,0.00257
880269.035912,8.83376299997326,-2.2035881855788753,-0.5977443017575507,2.3130466013459934,-0.013105630966868611,0.01181381204002013,-0.08464029266516626,-0.19656245479886716,0.00421311745227401,0.06885639,0.33231375,9.76464837,0.003519,0.000233,0.005604
880269.055899,8.853750000009313,-2.205008509811839,-0.5929305241821343,2.313309032814262,-0.013262537903199246,0.011838248674994925,-0.08438533169685856,-0.19657126493934884,0.0042197774851357615,0.09040896,0.32302368,9.7926363,0.004909,0.001529,0.004689
880269.075885,8.873736000037752,-2.206426632533789,-0.5881425121843256,2.3135534376342557,-0.013221045001217789,0.011912308084299638,-0.0841305933247145,-0.19658126735529982,0.004230066296159022,0.07574301,0.31718673,9.79233219,0.001986,-0.001523,0.004949
880269.095871,8.893721999949776,-2.207841024107622,-0.5833723279669815,2.313777956335203,-0.013117553782603672,0.011798948547898496,-0.0838790028074305,-0.19659123158979497,0.004206218968529191,0.06870924,0.33755229,9.75865446,0.002988,0.001158,0.002568
880269.115857,8.913707999978215,-2.2092450066047027,-0.5786271609891073,2.314005082580998,-0.013163590070127974,0.011785368759079038,-0.08362769910981308,-0.19660053712242576,0.004212821653822531,0.07903917,0.33095997,9.78156081,0.00472,0.00106,0.004677
880269.135843,8.933694000006653,-2.2106444838199315,-0.5739082862696185,2.3142402360719654,-0.013133577246396525,0.011871394395866038,-0.08337652502659129,-0.19661109088827994,0.004216040114951617,0.07050447,0.32018859,9.78500412,0.002217,-0.00118,0.004447
880269.155829,8.953680000035092,-2.2120383039235283,-0.5692082781598206,2.3144782132137056,-0.013092247031975774,0.011808011934285838,-0.08312717255419406,-0.1966214504360767,0.004232342184462871,0.06960195,0.33305931,9.76793472,0.00527,0.000747,0.005368
880269.175815,8.973665999947116,-2.213424525442253,-0.56453369322782,2.314709480182909,-0.013101590355852816,0.011850962074826665,-0.08287798351880113,-0.1966321456008426,0.004238517702156593,0.07110288,0.32332779,9.7897914,0.00139,-0.001198,0.004674
880269.195801,8.993651999975555,-2.214805295650484,-0.5598813924910013,2.3149250688822676,-0.013078486731951167,0.011869202838000532,-0.08262949437099852,-0.19664325636652333,0.004239712655625687,0.06780672,0.32347494,9.77751909,0.002841,0.000449,0.00433
880269.215787,9.013638000003994,-2.2161788552268655,-0.5552481944558397,2.3151134955106327,-0.013086920727636868,0.011788221197877346,-0.08238245080344653,-0.19665338281452052,0.004233532274657802,0.07275096,0.33395202,9.79038981,0.002814,-0.000721,0.003812
880269.235773,9.033624000032432,-2.217547349089483,-0.5506382569445082,2.315317833450937,-0.013060284177990954,0.011776456906656288,-0.08213665649027255,-0.19666372731528856,0.004218504772596585,0.06856209,0.33200964,9.77737194,0.003257,1.1e-05,0.003185
880269.255759,9.053609999944456,-2.218905091787497,-0.546049495636898,2.315516039132043,-0.013169730545424106,0.011747064332400038,-0.0818907025848685,-0.1966725353957255,0.004215028712618542,0.08487612,0.33141123,9.77392863,0.004016,0.001442,0.003981
880269.275745,9.073595999972895,-2.2202624458901146,-0.5414846636603344,2.315692144622954,-0.01306499103996884,0.011789279522005007,-0.08164597771003271,-0.19668289499754388,0.004204776749471866,0.06466752,0.32841918,9.78500412,0.002789,0.001735,0.0035
880269.315717,9.113568000029773,-2.2217425404898683,-0.5364260302189722,2.3159245667393797,-0.013494634459579463,0.01113740033457396,-0.0814256716263261,-0.19662681257117157,0.004202868133278062,0.06825798,0.3179421,9.79323471,0.002997,0.001293,0.004081
880269.335703,9.133553999941796,-2.2230698538925417,-0.5318526914368897,2.316116660447566,-0.013166153914905634,0.011773075879309938,-0.08118118116853164,-0.19663204398569226,0.004197332284701271,0.07439904,0.32871348,9.80311338,0.003337,0.00179,0.003825
880269.355689,9.153539999970235,-2.224400584572414,-0.5273200765410382,2.316339418286473,-0.01317561807836016,0.011748225189945234,-0.08093550224388968,-0.19664160598832428,0.004201846746107898,0.0836793,0.33590421,9.77287896,0.003929,0.002708,0.004519
880269.355689,9.153539999970235,-2.2255465609297733,-0.5231839221961118,2.316549533843588,-0.012292081815579099,0.013527345873895327,-0.08066827574964679,-0.19670988479206358,0.004206240901870119,0.0836793,0.33590421,9.77287896,0.003929,0.002708,0.004519
880269.395661,9.193512000027113,-2.227007122429626,-0.5182157725308814,2.316776156484467,-0.013523095353663734,0.01116923179822223,-0.08044178568700139,-0.19666720470993626,0.004224900678279249,0.07753824,0.32198382,9.79533405,0.004589,0.000879,0.00551
880269.415647,9.213497999939136,-2.2283228541852087,-0.5137333466835222,2.3169599230242586,-0.01307537169166473,0.011676211530343181,-0.08019934878281497,-0.19667440656280327,0.004244298213077636,0.06196977,0.33934752,9.7667379,0.002544,-0.000549,0.00558
880269.435633,9.233483999967575,-2.2296331724640486,-0.5092878776312721,2.3171372806989954,-0.013127878405958991,0.011731947358954428,-0.07995473853734596,-0.1966854221702186,0.004232342012703754,0.08172711,0.33110712,9.78230637,0.003368,-0.001189,0.003418
880269.435633,9.233483999967575,-2.230757542362535,-0.5052327382712253,2.3173241705995142,-0.012261666068585001,0.013515335358241625,-0.07968828086886429,-0.196754699771454,0.004220720641538578,0.08172711,0.33110712,9.78230637,0.003368,-0.001189,0.003418
880269.475605,9.273456000024453,-2.2322036501163662,-0.5003381295265067,2.3174570466555275,-0.013388685093050339,0.01104308396052473,-0.07946639789398835,-0.1967132301303578,0.0042120741395121975,0.07005321,0.33320646,9.77182929,0.002401,0.000167,0.003623
880269.495591,9.293441999936476,-2.2334907356457068,-0.4959376465243424,2.3176052705464,-0.013167765937845771,0.01167427525445827,-0.07922376734518684,-0.1967202808540558,0.004180023872086831,0.08023599,0.32766381,9.76704201,0.0042,-0.000224,0.001984
880269.515577,9.313427999964915,-2.234782822607129,-0.4915753489119794,2.317775552830831,-0.013073673671988398,0.011845767838811761,-0.07897904556357513,-0.19673401850067385,0.004189171443077678,0.06751242,0.31749084,9.79473564,0.003416,-0.000754,0.004823
880269.535564,9.333415000000969,-2.2360714098274244,-0.48723641013568586,2.3179628848454907,-0.013064093752154775,0.011823475751282281,-0.07873517106734372,-0.19674819838657215,0.00419614805780115,0.07184844,0.32452461,9.77541975,0.002898,0.000571,0.004682
880269.55555,9.353401000029407,-2.237358838807904,-0.48291861504581346,2.318107739377967,-0.012967108396971917,0.01176574358828553,-0.07849356754956248,-0.19676285635610638,0.004158281037594486,0.06122421,0.33260805,9.76718916,0.003906,-0.000223,0.001558
880269.575536,9.373386999941431,-2.2386361116703988,-0.4786242862749957,2.318293550953733,-0.013049098959949693,0.011804806290595056,-0.078251297451306,-0.1967770372241249,0.004187105583341309,0.07484049,0.320787,9.77572386,0.003445,0.000443,0.006177
880269.595522,9.39337299996987,-2.239907109295204,-0.47434606160377396,2.3184613525025775,-0.01311876272656332,0.011714711861765075,-0.07801005997131881,-0.1967894686788974,0.004190706631702795,0.08308089,0.3327552,9.80162226,0.00372,0.002172,0.004444
880269.615508,9.413358999998309,-2.241175577332796,-0.47008947610444257,2.318621918616114,-0.013074388920684356,0.011718232742061026,-0.07776999497979101,-0.1968023867781039,0.0041772480215371945,0.07304526,0.329616,9.79113537,0.002148,-0.001278,0.003255
880269.635494,9.433345000026748,-2.242438060070552,-0.46584875238010276,2.318780840908623,-0.01305835287740333,0.011615824912582192,-0.07753181230497885,-0.1968143560398184,0.004193633327670336,0.07634142,0.34263387,9.80760636,0.004407,0.001526,0.005328
880269.65548,9.453330999938771,-2.243695038396568,-0.461631638296201,2.3189331191940177,-0.0130498808557914,0.011679470179410402,-0.07729376221049022,-0.19682703753924805,0.004192829911068718,0.07320222,0.32916474,9.77587101,0.004555,0.000479,0.004142
880269.675465,9.473315999959596,-2.2449441021851158,-0.4574351364211226,2.319092650138792,-0.01311298834228696,0.011755574558869879,-0.07705491900481425,-0.19683978285718692,0.004201804230393679,0.08038314,0.32018859,9.80385894,0.000901,-0.001648,0.004826
880269.695451,9.493301999988034,-2.246189162260232,-0.4532526707532099,2.319246326983685,-0.013107921166221675,0.011658202260057256,-0.07681790579348692,-0.1968515244575696,0.004208279930621504,0.0805302899999999,0.33695388,9.7755669,0.004426,0.001097,0.00466
880269.715437,9.513288000016473,-2.2474271993842296,-0.44908914713773673,2.319371084037419,-0.013144644461186716,0.011602026722021598,-0.07658163162242429,-0.1968621638524057,0.0042295806528607075,0.08622009,0.33799374,9.78335604,0.002199,0.000903,0.005704
880269.735423,9.533273999928497,-2.2486614916567986,-0.44495074215737845,2.319476766974738,-0.013119268547147933,0.011749864948219375,-0.07634468078230679,-0.19687454894096593,0.004226173356732028,0.07634142,0.31703958,9.80266212,0.004159,0.000373,0.003993
880269.755409,9.553259999956936,-2.2498911769479593,-0.44082635026178657,2.319602586313793,-0.013088926545086239,0.011705730980685825,-0.07610938783882149,-0.19688682491399376,0.004212078723973786,0.07679268,0.33021441,9.75236625,0.001935,0.0003,0.003241
880269.775395,9.573245999985375,-2.251114290822651,-0.43672259710940775,2.319741902452934,-0.013106898985113018,0.011741455013473217,-0.07587417707754374,-0.19689924098218414,0.004220829153611124,0.0791863199999999,0.32227812,9.78275763,0.004408,0.001961,0.00483
880269.795381,9.593232000013813,-2.252332888240637,-0.43263530879735596,2.319854496724661,-0.013093405755134168,0.011707198023384593,-0.07564008406760378,-0.1969113586302477,0.004219910551284475,0.07813665,0.32871348,9.78889869,0.004168,-0.000431,0.004159
