timestamp,time_rel,x,y,theta,vx,vy,bias_accel_x,bias_accel_y,bias_angular_velocity,accel_x,accel_y,accel_z,gyro_x,gyro_y,gyro_z
880260.202149,0.0,0.0,0.0,-0.4563489963155747,0.11255789579993815,-0.1738059278411044,0.0,0.0,0.004313729203252917,-9.41272443,0.4252635,-3.07535652,0.002747,-0.025133,0.003743
880260.242121,0.03997199994046241,-0.6751725380624568,-0.3338852419332945,-0.7618764574515482,0.3424365703868307,-0.41749874535373055,-0.00015886648700753187,-0.0003401327946727317,0.003858939920840457,-9.358533990000002,0.30955455,-2.89617687,0.000973,-0.004891,0.002929
880260.262107,0.05995799996890128,-1.0112136574082446,-0.5089901296094945,-0.9808199540804519,0.3549512565515835,-0.6860399663565803,-0.0003356148634519091,-0.0005616699350652576,0.003506344609730579,-9.41871834,0.36823797,-2.8472249700000005,0.002,-0.004968,0.002434
880260.282092,0.07994299998972565,-1.2108731786647218,-0.6230021435465662,-1.1496605843175878,0.3292508286244917,-0.987280131300492,-0.0005804510829441401,-0.0008332436090845549,0.004209729689817081,-9.39012219,0.42317397,-2.8548669600000003,0.000555,0.007405,0.006018
880260.282092,0.07994299998972565,-1.3503745996492789,-0.6896874973999587,-1.280748178190288,0.26328579823353054,-1.0796456440035642,-0.0006974596245670513,-0.0008754830457335035,0.004613459675721602,-9.39012219,0.42317397,-2.8548669600000003,0.000555,0.007405,0.006018
880260.322064,0.11991499993018806,-1.4395345015307406,-0.7795927337780425,-1.3927883739912201,0.12751794627699609,-1.5585235101217418,-0.0010238272110714216,-0.0014384693483805368,0.00466639345933592,-9.446255010000002,0.36299943,-2.84198643,-0.000543,0.005311,0.004544
880260.362035,0.1598859999794513,-1.5098452788910908,-0.8747722009485529,-1.4934960164226232,-0.05321397337800734,-2.0234709022658914,-0.0015147675259520957,-0.002566496262702868,0.004413456852889577,-9.370512000000002,0.40445649,-2.88644535,0.001947,-0.002293,0.002443
880260.382021,0.17987200000789016,-1.5726601941361307,-0.9353126383604582,-1.5785939542218603,-0.21062995359151593,-2.2749670973911034,-0.001964510234695471,-0.003359149464022199,0.00481948003336319,-9.44132058,0.39548034,-2.8620478800000004,0.003913,0.005047,0.00692
880260.402007,0.19985800003632903,-1.62792242879165,-0.99172278792952,-1.650245259208542,-0.3887643422516619,-2.4958510975656023,-0.0023978704369115064,-0.004010397794937516,0.00486703558891796,-9.36961929,0.32557428,-2.88405171,0.006806,-0.004004,0.004733
880260.402007,0.19985800003632903,-1.6711141845405375,-0.9993710516889379,-1.705692068301382,-0.47877309585404504,-2.533988730612698,-0.002659902022474412,-0.004143331922652014,0.004884276624728952,-9.36961929,0.32557428,-2.88405171,0.006806,-0.004004,0.004733
880260.441978,0.23982899996917695,-1.7252187704088715,-1.1008911349950887,-1.7609324751080488,-0.7862414147922581,-2.8699790931106524,-0.0031657035388680307,-0.005102287362644886,0.005046670987219866,-9.414823770000002,0.40296537,-2.8827077400000003,0.010974,-0.001809,0.005846
880260.461964,0.2598149999976158,-1.7706411338355548,-1.1534112893526642,-1.8095585905807214,-0.9784308257222526,-3.042935127488091,-0.003669677075959185,-0.00601794241158457,0.004885197059129764,-9.36018207,0.33081282,-2.8957256100000004,-0.000742,0.000136,0.00281
880260.48195,0.2798010000260547,-1.815240057501275,-1.2053727749182501,-1.8528075124224461,-1.175051570425459,-3.201823355977068,-0.0041854720062849075,-0.00696315223474624,0.004893884788757402,-9.41407821,0.38560167,-2.86518708,0.003103,-0.001009,0.004369
880260.48195,0.2798010000260547,-1.8380091868115749,-1.19814500171844,-1.8866827472289853,-1.245661661358215,-3.219345738967359,-0.0045543465884272365,-0.007333896676412208,0.004881534482555529,-9.41407821,0.38560167,-2.86518708,0.003103,-0.001009,0.004369
880260.521921,0.3197719999589026,-1.9047633834950923,-1.3125318714378973,-1.9242700379471422,-1.578125996321299,-3.4835478610997623,-0.005141125211035362,-0.008753941337458222,0.0050364235328905745,-9.35659161,0.36374499,-2.90516283,-0.002382,0.001043,0.0059
880260.541907,0.33975799998734146,-1.9500247311448333,-1.3646807688411353,-1.9579485247593307,-1.7691675922087606,-3.616728046258869,-0.0057114067660557375,-0.010135251545855815,0.005104968623520128,-9.42754734,0.36688419,-2.8515708,0.009316,-0.002671,0.005078
880260.561893,0.35974400001578033,-1.9960286540315957,-1.4167874029645118,-1.9885146841971366,-1.9585737062169386,-3.7396914498187477,-0.006266529149945418,-0.011536096537739121,0.005138139035139128,-9.3730626,0.36164565,-2.8880934300000005,-0.001936,0.003472,0.004714
880260.581878,0.3797290000366047,-2.0427858422974055,-1.469008811997637,-2.0163543210915877,-2.145673942114594,-3.854495193957505,-0.006804227011971369,-0.01299477301698744,0.005204770781118898,-9.37156167,0.39952206,-2.88929025,0.004335,-0.003071,0.005172
880260.601864,0.39971499994862825,-2.0904168312556113,-1.5213877410489212,-2.0419867090175576,-2.330235118301682,-3.9634553352365227,-0.00731727286432479,-0.014527406892269184,0.005258546180495071,-9.4169133,0.38185425,-2.86803198,0.006505,0.00013,0.005059
880260.62185,0.4197009999770671,-2.138934643339384,-1.5739439251264136,-2.06564081569096,-2.5102306206732417,-4.066702804041415,-0.007794762289979311,-0.01613822288976448,0.0052918047868078105,-9.38368683,0.34353639,-2.88225648,-0.001328,0.001503,0.004819
880260.641836,0.439687000005506,-2.1883213335062583,-1.6267114155285434,-2.0876253957401265,-2.6871845928078217,-4.163855751007954,-0.00822960725827447,-0.0178355308691556,0.005162073761543839,-9.39970656,0.40026762,-2.87327052,0.009193,-0.006003,0.002547
880260.66182,0.45967100001871586,-2.2384673929941528,-1.6796626422945737,-2.107933769401427,-2.8595326357436335,-4.256193714594359,-0.008609855417287567,-0.0196219863846448,0.005256316912310914,-9.40074642,0.40296537,-2.86279344,5e-05,0.005334,0.005553
880260.681806,0.4796569999307394,-2.289362715748783,-1.7327676604458275,-2.1267946599023615,-3.0264147397935304,-4.3444098071171275,-0.008923495524041097,-0.02149276357784386,0.00528953943332183,-9.36842247,0.35625996,-2.883159,0.006173,-0.006295,0.004762
880260.701792,0.49964299995917827,-2.3409455991383705,-1.78599000811386,-2.144404660018359,-3.1899488809976257,-4.428109622031573,-0.009161529208488933,-0.02345109603162162,0.00534578932640779,-9.41422536,0.38574882,-2.8692288,0.000749,0.001626,0.005119
880260.721778,0.5196289999876171,-2.393169500056708,-1.839285564907143,-2.1608938182638093,-3.3489065586636544,-4.507006025042168,-0.009314321267383909,-0.025496819701461657,0.005380957629707227,-9.39731292,0.40715424,-2.8886918400000003,0.001799,0.00203,0.004853
880260.741763,0.5396140000084415,-2.445890773029983,-1.8926119203107614,-2.1762823887888465,-3.502379179809571,-4.5825793131224755,-0.009370765975154577,-0.027627243217039108,0.0052488629112946985,-9.37859544,0.36104724,-2.90156256,0.007603,-0.006387,0.002364
880260.761749,0.5596000000368804,-2.499073239915112,-1.9458692676638578,-2.1907061537076764,-3.6522324593696656,-4.653879009524047,-0.009319682295472313,-0.029843687107291603,0.005341535612639531,-9.41616774,0.38096154,-2.8678848300000004,-0.001515,0.005458,0.005617
880260.781735,0.5795859999489039,-2.552642981502859,-1.9990090927710602,-2.204291542420163,-3.7968484133821003,-4.7210345310603605,-0.009152952317548093,-0.03214638732567273,0.005264680991228057,-9.38009637,0.36898353,-2.90605554,0.006299,-0.004509,0.003115
880260.801721,0.5995719999773428,-2.60644676611336,-2.0519593400424334,-2.2170425150043225,-3.9368427067456953,-4.784070230622967,-0.008860103071179579,-0.03453785724797444,0.005228309504065841,-9.38084193,0.37811664,-2.88615105,0.000702,0.000197,0.003649
880260.821706,0.6195569999981672,-2.6604368025408154,-2.1045795055177963,-2.2290748577060455,-4.072874765959489,-4.843077081139869,-0.008431096975769187,-0.03701944088370705,0.005396703026474893,-9.40987953,0.38020617,-2.8551612600000005,0.003913,0.000588,0.006787
880260.841692,0.639543000026606,-2.7145084172915745,-2.1568474329838403,-2.2404808371172913,-4.20357455359129,-4.898289474482641,-0.007859097244227172,-0.03959346918462629,0.0052814550041045275,-9.379341,0.35880075,-2.89347912,0.004216,-0.002026,0.002534
880260.861678,0.6595289999386296,-2.768689350737841,-2.2085302758289935,-2.251414820123611,-4.330758280020162,-4.948390272953119,-0.007133643511460223,-0.04225764356343063,0.005240912847270955,-9.39521358,0.38844657,-2.8689345,-0.001811,0.002726,0.003581
880260.881663,0.6795139999594539,-2.822811334460539,-2.259532982358971,-2.2618156791854487,-4.45327780784052,-4.994482779564128,-0.006245152317776444,-0.045012613184935095,0.005440579601958285,-9.3904263,0.35730963,-2.8827077400000003,0.004292,0.001038,0.007331
880260.901649,0.6994999999878928,-2.876751048128382,-2.3098347830950297,-2.2717701939062422,-4.570712985149081,-5.037794486558538,-0.005187781546846994,-0.04786013119117083,0.005227153376894368,-9.38548206,0.27453285,-2.98688994,-0.005318,0.010569,0.001001
880260.901649,0.6994999999878928,-2.8492772060178337,-2.267419622366003,-2.2773308151457283,-4.533150412187602,-5.01483465798265,-0.004124969206302543,-0.04995504457103814,0.005013700905472911,-9.38548206,0.27453285,-2.98688994,-0.005318,0.010569,0.001001
880260.961606,0.7594569999491796,-3.0723146562105312,-2.5118554357083775,-2.2959239897510333,-4.979923919770155,-5.157589020226501,-0.0024952723253563016,-0.05459550031384822,0.0039297517842225215,-9.49370598,0.74485368,-3.09631068,-0.006574,0.0164,-0.013047
880260.981592,0.7794429999776185,-3.122618593260046,-2.555195451964641,-2.3082920648512433,-5.065671508572398,-5.1748553250954,-0.0006717142901458246,-0.05845068960900585,0.004903297920923012,-9.02847654,0.8155053,-3.0942113400000006,0.002303,-0.006622,0.017318
880260.981592,0.7794429999776185,-3.0834989857231214,-2.5026088903381356,-2.3144817461088762,-5.005747813826689,-5.138557579991025,0.0011147237759330999,-0.061191445289918406,0.0057204226233796285,-9.02847654,0.8155053,-3.0942113400000006,0.002303,-0.006622,0.017318
880261.001578,0.7994290000060573,-3.1358987185571916,-2.54654168646283,-2.321526740958118,-5.109334403808385,-5.154126815512149,0.0030953433237353297,-0.06429410145245133,0.0059929826842457234,-9.53562411,0.33215679,-3.1448113200000005,0.025558,-0.009367,0.009226
880261.041549,0.8393999999389052,-3.2816418218902847,-2.6869200108011997,-2.3338841818119325,-5.354983273045106,-5.226820569239945,0.005638194044379655,-0.06858482432783958,0.0059767215078057444,-9.27725814,0.08427771,-2.75277429,-0.021919,-0.026165,0.004335
880261.061535,0.8593859999673441,-3.3288219365621723,-2.723015464777953,-2.3439303734968857,-5.433594258913577,-5.229808155973357,0.008395095351975305,-0.07257623225599437,0.005316939282881355,-9.49281327,0.32482872,-2.92880493,-0.013305,0.011973,-0.005363
880261.081521,0.879371999995783,-3.3753315618425592,-2.756978573720941,-2.3528760565043623,-5.5075475750258684,-5.221132676182866,0.011383167140136864,-0.07650960253584994,0.005222468319208747,-9.28923615,0.45520362,-2.87342748,5.4e-05,-0.005536,0.002761
880261.081521,0.879371999995783,-3.324584754400953,-2.6949429214865743,-2.3573866273401207,-5.428036838504817,-5.164618024694983,0.014223780770490316,-0.0795971275080201,0.005111682647580522,-9.28923615,0.45520362,-2.87342748,5.4e-05,-0.005536,0.002761
880261.121492,0.9193429999286309,-3.4720487432238163,-2.8282754683414644,-2.3675931633906275,-5.665333190233032,-5.1973324835048205,0.017686693526894753,-0.08407269344106669,0.005504861717755465,-9.32276673,0.41029344,-2.97041895,0.00914,0.002629,0.009955
880261.141478,0.9393289999570698,-3.5144208935285346,-2.8563824110876777,-2.3764963083116144,-5.722977800124059,-5.179847151868786,0.021366904976295367,-0.08835449972291275,0.0056486454942220815,-9.28744092,0.29084688,-2.8711809900000005,0.00709,-0.022515,0.006644
880261.161464,0.9593149999855086,-3.555767859205446,-2.8823425260447824,-2.384868248578383,-5.78021925604822,-5.155015750145554,0.025260589471813075,-0.09262164445439522,0.0051074604549912585,-9.34895943,0.36389214,-2.8689345,0.00706,-0.014046,-0.003905
880261.18145,0.9793010000139475,-3.5957365137227026,-2.906259961912486,-2.3928100870666977,-5.84065712975134,-5.126182150828096,0.029371202516969744,-0.09693065882578521,0.005704222148202102,-9.68905251,0.41373675,-2.75188158,0.020599,0.01509,0.0135
880261.201435,0.9992860000347719,-3.634614114425051,-2.9279827472620106,-2.4005436249443872,-5.885208338325404,-5.093845734278426,0.03369642473807953,-0.1012701265717261,0.00591934761211869,-9.07427943,0.19938825,-2.9713214700000004,0.003899,-0.001052,0.008115
880261.221421,1.0192719999467954,-3.6719913030489555,-2.9478212147484513,-2.408314767585648,-5.930899956747007,-5.057633573614915,0.03822143089568075,-0.10567415957130705,0.0051308155390783474,-9.29956608,0.27572967,-2.9440791,-0.00423,-0.023781,-0.007611
880261.241407,1.0392579999752343,-3.707806798805841,-2.965685330030209,-2.4158711566775617,-5.978442558767685,-5.017810479326549,0.04295052105114546,-0.11013621023988338,0.005539691083057369,-9.57678687,0.34547877,-2.90770362,0.011398,-0.001399,0.01067
880261.261393,1.0592440000036731,-3.742266439523953,-2.9815827406120263,-2.4233910681185478,-6.018604872512009,-4.976026513768367,0.0478734135942125,-0.11465082690188343,0.005921393768090721,-9.39461517,0.24055101,-2.88419886,0.011398,-0.001399,0.01067
880261.281378,1.0792290000244975,-3.775317382261079,-2.9955408884234194,-2.430921250963207,-6.054768852188368,-4.932093955680554,0.052982848236100784,-0.11921108194405104,0.005938458750614801,-9.36108459,0.18322137,-2.9624924700000004,0.00818,-0.002565,0.005229
880261.301364,1.099214999936521,-3.807061058937848,-3.0073625572110663,-2.438342356052223,-6.087104642410818,-4.885873212618601,0.05828037494809348,-0.12379209880443232,0.00650163444911778,-9.31348647,0.09415638,-3.0108361500000003,0.03367,-0.014755,0.014038
880261.32135,1.11920099996496,-3.837428310092014,-3.017257069501524,-2.4458015115638454,-6.114509662111592,-4.8329579894319314,0.06375184197854813,-0.1284083268686719,0.007135353367056235,-9.17233038,0.25896438,-3.22878492,0.049067,-0.071067,0.015759
880261.341336,1.1391869999933988,-3.866355242056403,-3.0253742129576153,-2.4534420937097114,-6.137257576887672,-4.776098294640049,0.06938162983248064,-0.1330681812865635,0.006787206539271107,-9.06380235,0.33365772,-3.1841788500000003,0.048617,-0.179162,0.000578
880261.361322,1.1591730000218377,-3.8938171689337455,-3.0315968128459647,-2.461071955292803,-6.160718666777818,-4.7174839183561,0.07516927418853582,-0.13775505863461648,0.006808470737055141,-9.23190651,0.32901759,-3.1542387300000003,-0.000692,-0.250379,0.006192
880261.381307,1.1791579999262467,-3.9198760800399364,-3.0361378903238623,-2.4688348099425155,-6.181986543474584,-4.657328409351995,0.0811000748480181,-0.14247685043197347,0.0062524050521640204,-9.25076133,0.32407335,-2.91339342,-0.040355,-0.317922,-0.003121
880261.401293,1.1991439999546856,-3.944707858076621,-3.038724722197061,-2.476488454036752,-6.198679289599584,-4.599937335340369,0.08717963477637429,-0.14718899649558745,0.0058079285737619776,-9.15196482,0.02185668,-2.8744771500000006,-0.076567,-0.401088,-0.00186
880261.421279,1.2191299999831244,-3.968580340580764,-3.039120157163412,-2.4848210681825824,-6.214074973270226,-4.5436241252263585,0.09340305851952842,-0.15182847679533776,0.005861561956773175,-9.14538231,-0.25492266,-2.8868966100000004,-0.131797,-0.489866,-0.046268
880261.441265,1.2391160000115633,-3.990402856301922,-3.038980621537238,-2.4920455860695157,-6.236415607374036,-4.481441065639488,0.09974864264976602,-0.15655159733043586,0.006055500276754189,-9.63964935,0.18710613,-2.5896143700000005,-0.147619,-0.524302,0.007946
880261.46125,1.2591010000323877,-4.010455354107068,-3.0383054384685333,-2.499264151648921,-6.254772903916748,-4.421129843667257,0.10620437275494435,-0.16135252396920394,0.005336046916104915,-9.62588592,0.18590931,-2.6048787300000003,-0.156172,-0.484008,-0.005956
880261.481236,1.2790869999444112,-4.02916811074971,-3.036507639108742,-2.5063627525816554,-6.271412765600516,-4.363897554917958,0.11277659395986524,-0.166174085491,0.004939918414052122,-9.67558338,0.01511721,-2.83480551,-0.126358,-0.543642,-0.001715
880261.501222,1.29907299997285,-4.046994930376461,-3.0332027643858637,-2.513528018974431,-6.278695925303885,-4.299048676076908,0.11945880921095389,-0.17098907707437594,0.005195199743780137,-9.23983299,0.25657074,-3.0726587700000003,-0.087253,-0.61887,0.008041
880261.521208,1.319059000001289,-4.064026259252823,-3.028109838982556,-2.5208830177787553,-6.283762094165922,-4.2258449344423115,0.12623953507610475,-0.1757935208182169,0.006986060376729703,-9.14103648,0.55713933,-2.99198133,-0.028004,-0.676226,0.03244
880261.561179,1.3590299999341369,-4.19126264774759,-3.1006207377117954,-2.532219150044624,-6.445995024823265,-4.180335097351116,0.13383705585959993,-0.18169786575166377,0.009682508393318271,-9.37650591,0.25177365,-2.20192317,0.006781,-0.853289,0.045964
880261.581165,1.3790159999625757,-4.197260787842045,-3.0872639402966167,-2.541495390774225,-6.43260158144809,-4.110431959704669,0.14142179842459363,-0.18709722681535287,0.011505486781440874,-9.34013043,0.27453285,-2.22257322,-0.01273,-0.967694,0.036162
880261.581165,1.3790159999625757,-4.093759029685716,-3.0004040343447063,-2.5462156114213514,-6.273069845815213,-4.022858046845601,0.1483548497752999,-0.19137637807668795,0.013075007603679955,-9.34013043,0.27453285,-2.22257322,-0.01273,-0.967694,0.036162
880261.601151,1.3990019999910146,-4.106709656511034,-2.9922345320504835,-2.551560624063097,-6.276009662017293,-3.9498089308752786,0.15535074238814342,-0.19596766971979845,0.01490396190498708,-9.13684761,0.49083354,-2.10941487,-0.050493,-1.111492,0.041805
880261.641122,1.4389729999238625,-4.229556755368764,-3.0574970352072848,-2.562006062330183,-6.4242176315905235,-3.876456811574304,0.1631355736534738,-0.2018584345939267,0.01801960824894611,-9.08116605,0.91175121,-1.71887877,-0.057728,-1.42889,0.061153
880261.661109,1.4589599999599159,-4.231223621157719,-3.04249043521266,-2.5706934088862923,-6.403776275214797,-3.802989722378726,0.17086837803225252,-0.20737424565384785,0.018092231153902568,-9.20510559,0.8313680700000001,-1.30917393,-0.038005,-1.528396,0.069823
880261.681095,1.4789459999883547,-4.232532939287621,-3.0269879191482336,-2.578289222397904,-6.38302173957379,-3.7261257218305355,0.17860002719917453,-0.21275173636964825,0.01816396608490754,-9.09702882,0.94393782,-1.14496434,-0.012881,-1.660123,0.079871
880261.701081,1.4989320000167936,-4.233108144984429,-3.01160097581976,-2.585511859045057,-6.362207557316158,-3.645686632881982,0.1863240355435207,-0.21810849348292438,0.018238458824316114,-9.08370684,1.2328325100000002,-1.1587375800000002,0.020274,-1.796551,0.07935
880261.721066,1.518917000037618,-4.237007141395724,-2.993023586739626,-2.5982761635024874,-6.466085735255505,-3.527636753813052,0.1938683165366713,-0.22353794477729155,0.02038807806734505,-15.034737330000002,3.09272022,0.00658251,0.26033,-0.72288,0.045406
880261.741052,1.5389029999496415,-4.238151548682264,-2.9813740367867934,-2.6074966278146987,-6.466844914556548,-3.4712943026276664,0.201345269068773,-0.22924906719224936,0.01737791711557171,-10.30591512,0.97851807,1.2410729100000002,0.345483,-0.749617,-0.021743
880261.761038,1.5588889999780804,-4.239893112928217,-2.967639559663158,-2.6159714646146965,-6.453712215882753,-3.400412446545158,0.20888873196548624,-0.2347512471870231,0.019439568223390935,-9.48966426,1.37503827,1.94056515,0.433828,-0.835481,0.044923
880261.781024,1.5788750000065193,-4.241604047731639,-2.953563860065629,-2.6246677142002537,-6.452138575018822,-3.3309475228172043,0.21641628263818427,-0.24023312683464812,0.01955003783933668,-10.02525102,1.3392612000000002,1.7604927900000005,0.485031,-0.686723,0.019894
880261.801009,1.5988600000273436,-4.2437929249062245,-2.938964049216207,-2.6338568201252244,-6.454543521128239,-3.263578342252172,0.2239157051284508,-0.2456819546449729,0.016533182977666705,-10.15323228,1.22625,1.12596237,0.516085,-0.67239,-0.025036
880261.820995,1.6188459999393672,-4.246459713307692,-2.923311412499025,-2.6428643383362074,-6.45282702153121,-3.2009455308889017,0.23142650126580597,-0.25101467377217346,0.01334693551215689,-9.85804938,0.8584632900000001,0.7896069000000001,0.506414,-0.627488,-0.031137
880261.840981,1.638831999967806,-4.249460161300855,-2.9067167701535404,-2.651667113868194,-6.450032804684459,-3.1381009264090864,0.23895207042811495,-0.25623372507129516,0.01046028029786993,-9.72677196,0.7414103700000001,0.86070978,0.488085,-0.634335,-0.030457
880261.860967,1.658817999996245,-4.252303411213232,-2.889865797333061,-2.6599197380206188,-6.448316423593183,-3.082108652615435,0.24649713330803147,-0.26136928284317423,0.007762703109716778,-9.73396269,0.36059598,1.0529073,0.462041,-0.689946,-0.030949
880261.880953,1.6788040000246838,-4.255066677503737,-2.87297068446814,-2.667877060325678,-6.44719924722667,-3.026898827416729,0.2540533941004812,-0.26644477720981447,0.004550660557994108,-9.73186335,0.31045707,1.49748669,0.422808,-0.74486,-0.04181
880261.900938,1.6987889999290928,-4.258235409393258,-2.855103543115807,-2.6757655728183365,-6.445876989792384,-2.971807671757718,0.2616273961423656,-0.2714034753596562,0.0017457785144443386,-9.64414233,0.15971661,1.7893832400000005,0.332559,-0.833754,-0.03921
880261.920924,1.7187749999575317,-4.261871674205722,-2.8361644835260966,-2.6835784843884967,-6.442508251756651,-2.9142482375093786,0.2692178832722986,-0.2762377546855962,8.182170016194658e-05,-9.46720917,0.12813822,1.93621932,0.220569,-0.930732,-0.024762
880261.94091,1.7387609999859706,-4.265648528910559,-2.8167118322046534,-2.6911934246433025,-6.438578238184519,-2.854239046692552,0.2768164599632422,-0.28099192097807374,-0.0002007906643584352,-9.40314987,0.18546786,2.3571468,0.105415,-1.037648,-0.005167
880261.960896,1.7587470000144094,-4.269376084575374,-2.7971442091772873,-2.6985863589203736,-6.4355174745185595,-2.7933463651875092,0.28441550888560335,-0.28570488474935657,0.0008688293000082988,-9.43458111,0.23246757,2.23545375,0.037259,-1.009966,0.015631
880261.980881,1.7787320000352338,-4.273098198978488,-2.7772295500832747,-2.705629793091364,-6.428014801575721,-2.7353428792292647,0.2920231309732531,-0.29035262813002016,0.003741544905396103,-9.17756892,0.07499745,2.786756130000001,-0.054862,-1.065452,0.045093
880262.000867,1.7987179999472573,-4.276358390927102,-2.7582834340569877,-2.7116061382994205,-6.41869299611177,-2.6826331652337103,0.2996150258380662,-0.2950751102393277,0.0037955734353140786,-9.11589345,0.01227231,2.79005229,-0.153699,-1.165084,0.076249
880262.020853,1.8187039999756962,-4.279597905339974,-2.739484750179811,-2.7189453564539283,-6.422161501795002,-2.6316893005606734,0.307188777376381,-0.29975623020262787,0.003438743654014349,-9.71344998,-0.10269108,3.48535566,-0.269642,-1.227416,-0.002377
880262.040839,1.838690000004135,-4.287593646824368,-2.703211696662183,-2.7176550604668526,-6.42380693213441,-2.4909555707627713,0.3152324762441044,-0.30222792806632925,0.0034448752140350245,-8.895855150000001,1.11233628,3.11292882,-0.222738,-1.222509,0.186498
880262.060825,1.858676000032574,-4.286413961803023,-2.6946072134368833,-2.727855897377905,-6.411450908630755,-2.4764878584731074,0.3226662887492675,-0.30833389174061543,0.005728269136961259,-9.67886973,0.35595585,2.4667245,-0.202898,-1.215028,0.03488
880262.08081,1.878660999936983,-4.28742010157457,-2.6820767481864025,-2.7349540849868426,-6.3896941024505685,-2.4339897124275773,0.33010204404881344,-0.31379803297002606,0.005804274877978067,-8.90662653,0.93750246,3.25078875,-0.147993,-1.25888,0.105356
880262.100796,1.8986469999654219,-4.289555914390885,-2.666235237029746,-2.742966615401745,-6.37346831820519,-2.385236205806588,0.3375588361043542,-0.3188058513354408,0.009033498177047957,-8.922195,0.62330778,2.16988371,-0.106942,-1.070861,0.049611
880262.120782,1.9186329999938607,-4.291849175736993,-2.650196432663358,-2.7507805686235183,-6.369634181969918,-2.3253972582083025,0.3449848933293965,-0.3237365094092204,0.011775641385189474,-9.5413041,1.06249167,2.97386226,-0.05693,-1.119594,0.046856
880262.140768,1.9386190000222996,-4.294584295906783,-2.6329460589951283,-2.758192570395585,-6.346626347336318,-2.274628680111923,0.3524149945185741,-0.3285024987141164,0.014436958063071992,-8.4334608,0.56641959,3.95792298,-0.056666,-1.020405,0.049159
880262.180739,1.9785899999551475,-4.410795896531098,-2.657960678707759,-2.7700130953498103,-6.447267762773811,-2.204205358257095,0.36054706780692886,-0.3341635483418935,0.015045582844980336,-8.144566110000001,0.56552688,4.8975149700000005,0.023111,-1.042319,0.021606
880262.180739,1.9785899999551475,-4.294413198346422,-2.5958867680609927,-2.7753901801877814,-6.282232491864302,-2.1716639131752555,0.3679306255008882,-0.3383067944979277,0.015528358506363473,-8.144566110000001,0.56552688,4.8975149700000005,0.023111,-1.042319,0.021606
880262.200725,1.9985759999835864,-4.296537090810965,-2.578137010315439,-2.781459471468607,-6.271796390374403,-2.1127670116615462,0.3752879793385047,-0.34272900395435724,0.013886401007923916,-8.89121502,0.7024842900000001,4.5870579000000005,0.049181,-1.069066,-0.009859
880262.240697,2.038547999924049,-4.4105448945372165,-2.600389206427045,-2.791833331822306,-6.393354214818844,-2.036928547507547,0.3833553339201146,-0.34819652243813065,0.01454862852999322,-8.6389803,0.54950715,4.72177863,0.041485,-1.102659,0.022278
880262.260683,2.0585339999524876,-4.403604013913152,-2.577756395967396,-2.799941572438743,-6.351342025123606,-1.9909680406482384,0.3913645949096452,-0.3530863131045246,0.016362544993450544,-8.069117400000001,0.27123669,5.132827440000001,-0.000186,-1.135311,0.040177
880262.280668,2.078518999973312,-4.396816349854314,-2.5553284912625998,-2.806987393576246,-6.316767845189109,-1.9391624237976846,0.39931657778870927,-0.35779167133479267,0.01797943292107144,-8.35008561,0.40835106,5.42801034,-0.016887,-1.149967,0.039513
880262.300654,2.098505000001751,-4.390106127808132,-2.533123037446598,-2.8132430799941104,-6.270368491289186,-1.8871051403140364,0.4072280147453948,-0.36238147613823024,0.020133825673552763,-7.691452020000001,0.5117877000000001,5.52800367,-0.027203,-1.171853,0.049528
880262.32064,2.1184910000301898,-4.383113867580589,-2.5117550208832427,-2.819130621740201,-6.231179941545914,-1.8349946354540194,0.415084456035718,-0.3669563045165618,0.02180888778522433,-8.02017531,0.55728648,5.6118301200000005,-0.017322,-1.15194,0.044776
880262.340626,2.1384769999422133,-4.376067852633726,-2.490716471622805,-2.8247026181429,-6.186913970986784,-1.7863322290928292,0.4228963888515785,-0.3714818150340099,0.023434961483939698,-7.69324725,0.4830444,5.77469574,-0.010832,-1.146714,0.045956
880262.360612,2.158462999970652,-4.368969794975528,-2.4694828052097093,-2.8299612407856656,-6.140503697437161,-1.7406061261480337,0.4306749798863695,-0.37591342100475705,0.025964181151192155,-7.491171060000001,0.32467176,6.10056432,-0.009464,-1.132223,0.061716
880262.380597,2.1784479999914765,-4.361839498601221,-2.4481765439371403,-2.83515478465748,-6.09875299961788,-1.7001655626965388,0.43840973479039114,-0.380258183117398,0.027786578348297807,-7.591017240000001,-0.00404172,6.44739687,-0.023998,-1.101279,0.053576
880262.400583,2.1984340000199154,-4.35485001170056,-2.426327129603641,-2.840163700601612,-6.050699040281117,-1.6627002080378483,0.4461135135753816,-0.3844557030705843,0.02979899403988891,-7.148085930000001,-0.19564083,6.56115363,-0.041132,-1.083283,0.05857
880262.420569,2.218419999931939,-4.347598797492106,-2.404969995931479,-2.84487419297251,-6.006538351004581,-1.6257982988782886,0.4537759659292087,-0.3885893979299568,0.031349223391518986,-7.28310096,-0.23935419,6.51384981,-0.031462,-1.033865,0.053533
880262.440555,2.238405999960378,-4.339898130669739,-2.3849995174111784,-2.849117207934434,-5.959338095897497,-1.5920617215618562,0.46139161953907076,-0.3927260675066886,0.031349231583022615,-7.097044500000001,-0.21450546,6.19381818,-0.004992,-1.001778,0.030805
880262.460541,2.2583919999888167,-4.332214627961259,-2.364960071648443,-2.854405878928314,-5.9208615401610825,-1.5524628233221844,0.46895735782771564,-0.39676546639547783,0.03138243922590969,-7.5077892,-0.06780672,6.4553233500000005,-0.003292,-0.867984,-0.024391
880262.480526,2.278377000009641,-4.324206055031722,-2.3470097101151843,-2.8590177723482193,-5.85130389271499,-1.4805657347396946,0.4764422659591697,-0.4010178475151608,0.030588913363854678,-6.47493354,2.23005825,5.720358150000001,0.229437,-0.755046,0.018892
880262.500512,2.29836300003808,-4.31540670636281,-2.3302551301756607,-2.864876592871193,-5.784135036565494,-1.410171167999214,0.4838397936019153,-0.40540569448670566,0.030628764267302967,-6.627920490000001,2.42585604,6.82535655,0.313279,-0.929998,-0.043043
880262.520498,2.3183489999501035,-4.3060586252153055,-2.3137427573882543,-2.870639426445849,-5.706362732763029,-1.3520771017080586,0.49116599862171173,-0.4098080298893516,0.03066991362378227,-5.948784000000001,2.08157409,7.1934375600000005,0.327595,-1.000576,-0.052304
880262.540484,2.3383349999785423,-4.295914979304787,-2.2975338642773,-2.8756728632435125,-5.641155994813114,-1.299898847265741,0.4984329586438858,-0.41423861197043205,0.03071337375670042,-6.480172080000001,1.75420458,6.51415392,0.40879,-1.013678,-0.020058
880262.56047,2.358321000006981,-4.285146119276242,-2.281933672972683,-2.8797002384729518,-5.570788027965066,-1.259219358759397,0.5056460242945193,-0.41871174342005224,0.02807356456458939,-6.086339820000001,1.40287905,6.38197398,0.490596,-1.031739,-0.004458
880262.580455,2.3783060000278056,-4.2737231245707274,-2.2654700537322134,-2.883329905806096,-5.491463229984542,-1.2160566210168335,0.5128503403824912,-0.42306759499863356,0.029549068221072144,-5.62844826,1.52922204,6.953494770000001,0.529102,-1.06155,0.047347
880262.600441,2.398291999939829,-4.2614118908981835,-2.2493095782789854,-2.8859265645632886,-5.41014435290883,-1.1809614600398284,0.5200172019378382,-0.42743119202799046,0.029589645588245644,-5.41903419,1.2478025700000002,7.158710160000001,0.519523,-1.182366,0.081564
880262.620427,2.418277999968268,-4.250447961385996,-2.2175607893437914,-2.883192037251318,-5.3399478729453715,-1.0813731164002804,0.5274250304577399,-0.42941071285273597,0.029584388228269094,-5.57575875,1.29795129,7.27696971,0.500973,-1.264703,0.164269
880262.640413,2.438263999996707,-4.238995714278405,-2.1849920127223994,-2.88069881539906,-5.270730580669277,-0.984194916293977,0.534772831250425,-0.43128474781946224,0.029577038881598725,-5.52216672,1.20379491,7.4904255,0.471875,-1.370317,0.140386
880262.660399,2.4582500000251457,-4.2270933341783685,-2.151659626530284,-2.8780281491225566,-5.195563764822965,-0.8859937379913698,0.5420590567557595,-0.4330552487402002,0.02956755371735762,-5.178777480000001,1.3681516500000002,8.108337780000001,0.415581,-1.451526,0.137476
880262.680384,2.4782349999295548,-4.214626843106265,-2.1176189234508613,-2.8742441975156265,-5.103609819847575,-0.7972587403651479,0.5492814897836891,-0.4347286614228276,0.029555778454130065,-4.17721572,1.17520857,9.82646118,0.128597,-1.648535,0.179923
880262.700369,2.498219999950379,-4.201301569162885,-2.0830821669686728,-2.8701928957734535,-5.012858367825543,-0.7051394292458196,0.5564374610308462,-0.4363086446736439,0.029541662548818116,-4.2081957,1.3793841000000002,9.41346999,0.128597,-1.648535,0.179923
880262.720355,2.518205999978818,-4.187183434038788,-2.047991797772414,-2.8642223857478006,-4.924390234125279,-0.604629127658596,0.5635245016575939,-0.43779821783763906,0.029525214423101794,-4.35025431,1.81811673,8.931779370000001,-0.195329,-1.749353,0.26298
880262.760327,2.5581780000356957,-4.260480877960791,-2.0194785960301105,-2.8455526598633707,-4.839432756898682,-0.4294684646647898,0.5711745787475785,-0.4391655493179552,0.029506747249458988,-3.30722568,2.5255452600000003,8.47866528,-0.071028,-1.280799,0.468043
880262.780313,2.5781639999477193,-4.237991593515811,-1.9655537278650645,-2.839757476830517,-4.732847967356498,-0.29237429392798625,0.5787267501054271,-0.43975728679732057,0.029521944891941352,-3.94145199,2.30715504,9.15600654,-0.081865,-1.078355,0.578203
880262.800298,2.5981489999685436,-4.215121712632646,-1.91185796926065,-2.831406281995525,-4.630127974037667,-0.16607132537092184,0.5861334278667039,-0.44031239255416077,0.02953636863050536,-3.90402684,1.97034831,9.107957160000002,-0.17282,-0.838013,0.684762
880262.820284,2.6181349999969825,-4.191943309510438,-1.8585992341041355,-2.831104131904093,-4.541731962504537,-0.0676133338801776,0.593396995772168,-0.4408397275831914,0.02955004562511263,-4.194128160000001,0.69575463,12.85167879,-0.313112,-1.230219,0.261164
880262.84027,2.6381210000254214,-4.16666684637088,-1.8172088627234746,-2.8258139011208594,-4.4368394295313704,0.00786508740659951,0.600489404530065,-0.4419748949472483,0.029520663866117996,-3.24734544,1.09377576,8.386461090000001,-0.357715,-1.271456,0.154074
880262.860256,2.658106999937445,-4.075343000853104,-1.9588061871929894,-2.8600529602794786,-4.114009832390153,-0.5142579859931071,0.6091763204923912,-0.47030220006861506,0.03233789882019476,-1.91676609,2.4379812,9.27575721,-0.147296,-1.456622,0.048832
880262.880242,2.678092999965884,-4.034823126060339,-1.9914671523486585,-2.8702518292183705,-3.9505191431334383,-0.6354526790255327,0.6152733149492515,-0.4809834872083161,0.03228355838414366,-2.43558756,2.68841088,6.72401925,0.118268,-1.182945,0.030234
880262.900228,2.6980789999943227,-4.000464497456442,-1.997440026747524,-2.875302288180573,-3.81407557517933,-0.6780129182882013,0.6213132751813853,-0.48774130498384904,0.03036989370405126,-2.4896210400000003,2.0122664400000003,9.95325543,0.148153,-1.205785,0.012233
880262.920213,2.718064000015147,-3.9672177940538607,-1.9928103057736481,-2.877884091705663,-3.666744012166391,-0.6946099925548006,0.6273879277900517,-0.492905598617951,0.02804477083575411,-1.43581122,1.7341431300000003,8.988804900000002,0.182334,-1.174063,0.005099
880262.940199,2.7380499999271706,-3.9335907573442475,-1.9825950451178298,-2.8791142591946604,-3.524849079069715,-0.6986200789171549,0.6334720439990718,-0.4971834496804316,0.0274247009030634,-1.39330449,1.3681516500000002,10.85602068,0.021499,-1.230887,0.020787
880262.960185,2.7580359999556094,-3.8994421188120487,-1.9690540088039827,-2.8798415064016254,-3.3895217459491973,-0.6882959226919347,0.639515877635296,-0.5009217981625245,0.028697416468611552,-1.5908877,1.45556856,9.11395107,0.019775,-1.161919,0.042163
880262.980171,2.7780219999840483,-3.8684128272709106,-1.9290674157712835,-2.889650541625669,-3.297965026340673,-0.6094353636164129,0.6456600101304852,-0.501348218690548,0.028712499716520883,-3.07580778,0.38080458,12.64509981,-0.510315,-1.299475,-0.169118
880263.000157,2.798008000012487,-3.8375061523980563,-1.8895374997276377,-2.899127826026146,-3.1729028401188315,-0.4972286573594561,0.6516659515076971,-0.5017193603616792,0.02872699334251276,-1.80374508,2.55114936,17.437834170000002,-1.307119,-1.904293,-0.167348
880263.000157,2.798008000012487,-3.7529855939866477,-1.8434838592776444,-2.9042969265404586,-3.0545055812215742,-0.44064047270690554,0.6571035185844111,-0.5020548841686692,0.02873997145091702,-1.80374508,2.55114936,17.437834170000002,-1.307119,-1.904293,-0.167348
880263.040128,2.837978999945335,-3.781231359865771,-1.840979616573616,-2.9097177744241303,-2.9369778323584064,-0.46575267128232595,0.6622330589263224,-0.5066729386018906,0.03128428444553485,-1.31441247,0.56072979,17.56028259,-0.913618,-0.718106,0.055742
880263.060114,2.857964999973774,-3.748055936647463,-1.8039134610932186,-2.90918690319018,-2.7831224637183825,-0.3937459385821656,0.6678709842165584,-0.5070392518945154,0.03129788701208258,0.32796792,1.50302934,3.29165721,-0.300338,-0.285341,0.308365
880263.0801,2.877951000002213,-3.713884993927274,-1.76732633386824,-2.9096564518439028,-2.658067193532058,-0.3364789212899204,0.6733674809152523,-0.5073601735033173,0.03131085562082131,-0.71805276,0.51762465,12.56891535,-0.468275,-0.500828,0.244147
880263.100086,2.8979370000306517,-3.67534921365242,-1.7676231755432712,-2.906132121841101,-2.5112376956745046,-0.4054719498009126,0.6784067885315297,-0.5124235131467216,0.03285066093830402,0.17094906,0.23022108,9.45763461,-0.388917,-0.719179,0.047568
880263.120072,2.9179229999426752,-3.6361649611603037,-1.7608809224856796,-2.90193615129995,-2.391805121442239,-0.43878693387834167,0.6834970010016815,-0.5160145098953266,0.02907196589001815,-0.93181266,0.00194238,8.28362286,-0.361857,-0.569577,-0.009325
880263.140058,2.937908999971114,-3.5969507075836136,-1.7503573363010339,-2.8993395973911222,-2.261402724020408,-0.44406870387942443,0.6885416581171262,-0.5187960767921509,0.029057119865712338,-0.36823797,0.71460945,10.10324052,-0.352108,-0.604964,-0.054543
880263.160043,2.9578939999919385,-3.5573359222500587,-1.7387100249694618,-2.89470614309967,-2.132698544475445,-0.44663756392003684,0.6934911890295277,-0.5212015182124226,0.02628642013210204,-0.22034241,0.5063922000000001,10.04127075,-0.336325,-0.586841,-0.001937
880263.180029,2.9778800000203773,-3.5175274223201005,-1.7249940777089408,-2.888794914678599,-2.0086709599198884,-0.44653313073717465,0.6983424019563375,-0.5231845795959651,0.0262666331202038,-0.21420135,0.21046374,9.81299205,-0.307836,-0.476549,0.115321
880263.200015,2.997865999932401,-3.4787184043472275,-1.706872338691538,-2.882657523581999,-1.890222063607876,-0.4246974973835977,0.7030242364447293,-0.5241985024213959,0.026242267417468722,-0.16165899,0.31898196,9.24552279,-0.235261,-0.405194,0.158284
880263.220001,3.0178519999608397,-3.4384227528685996,-1.6929521012457929,-2.877581159377453,-1.7781771769705244,-0.42680792133136,0.7076322150524994,-0.5259223675447172,0.026220328746281617,-0.46238454,-0.14250006,10.023455790000002,-0.267906,-0.403275,0.082421
880263.239987,3.0378379999892786,-3.398296008091369,-1.679586201757442,-2.873040878295802,-1.6649959946713675,-0.4179323088398074,0.7120880399749848,-0.5274604692624822,0.022972387553349433,-0.32557428,0.3198844799999999,9.1854954,-0.229254,-0.382599,-0.007763
880263.259973,3.0578240000177175,-3.358022224214767,-1.6659931945992172,-2.8688492891205866,-1.5671203438222965,-0.388014032778509,0.7164323924494292,-0.5289050047952941,0.026094405936320425,-1.21218246,1.14871176,11.97195723,-0.052424,-0.299357,0.057974
880263.279958,3.077809000038542,-3.318950014103188,-1.6506280453035576,-2.8666918508256,-1.4591831110161455,-0.3894767989827676,0.7205808656578291,-0.5297770459989725,0.026066521408728272,0.12558762,-0.68752404,10.38794634,-0.092521,-0.374645,-0.090157
880263.299944,3.0977949999505654,-3.2812650095775657,-1.626964216586973,-2.8701645284802515,-1.3335164254531156,-0.3693097207073686,0.724590399667082,-0.5299967883112852,0.028462502600466177,1.02297699,-0.00643536,6.05431017,-0.003824,0.013582,0.052859
880263.31993,3.1177809999790043,-3.2420730960986948,-1.6121538016147905,-2.86550417883469,-1.2188006183080853,-0.3572106480046483,0.7284678184204811,-0.5305858857396244,0.03156829306187407,0.64710684,-0.01661814,8.22883401,0.01588,0.047506,0.065253
880263.339916,3.137767000007443,-3.202626159640674,-1.5983615311279789,-2.860566814452527,-1.1258565786122048,-0.3384368492616486,0.7322128174876107,-0.5311977009076612,0.030494510642399057,-0.38560167,0.13531914,9.71285157,0.006664,0.029763,0.018804
880263.359902,3.157753000035882,-3.1634455311246166,-1.5848479744555812,-2.8556769232191566,-1.027298546368621,-0.3157979476511885,0.735827864737408,-0.5317705005203135,0.028769561907183425,-0.02963601,0.43574058,9.832602240000002,0.012873,-0.003954,0.009026
880263.379888,3.1777389999479055,-3.124539737868843,-1.5711842529674922,-2.8508948537659036,-0.934086325734714,-0.2982971237481188,0.7393084684703489,-0.5322306701133691,0.027707620233883606,-0.05823216,0.10119015,10.126588320000002,-0.003611,-0.019692,0.015259
880263.399873,3.19772399996873,-3.0860235355170453,-1.5574184293346338,-2.8462269389382864,-0.8428407530601223,-0.2807845083234578,0.7426547756319535,-0.5325679747188219,0.027879532868549193,0.02125827,0.04879494,9.74638215,-0.001188,-0.01537,0.030332
880263.419859,3.217709999997169,-3.0478604145495463,-1.5437328139395448,-2.8415818570008873,-0.7540986201872503,-0.2611192403721838,0.7458706322478674,-0.5328145622712754,0.029054230284905093,0.03367773,0.12214431,9.63172287,0.003447,-0.015588,0.0443
880263.459831,3.257681999937631,-3.021843318396715,-1.5337965443620385,-2.8360939508904948,-0.6457818257499512,-0.23720091251014536,0.7491457892185602,-0.5328682985617916,0.03221838826567658,0.02350476,0.21135645,9.75132639,5.2e-05,-0.008967,0.071627
880263.459831,3.257681999937631,-2.971663556845337,-1.5159346907398608,-2.8321458162746653,-0.580365473636084,-0.2144339374369924,0.7521042168671501,-0.5330260328258702,0.03494931300293065,0.02350476,0.21135645,9.75132639,5.2e-05,-0.008967,0.071627
880263.499803,3.297653999994509,-2.9430903413292735,-1.5059846385886393,-2.8243618628627587,-0.47741014654908426,-0.18894974602715064,0.7551034568020757,-0.533077682594566,0.034927427628106286,0.01092834,0.28874754,9.87720831,-0.004096,-0.001317,0.10969
880263.499803,3.297653999994509,-2.8961203083060214,-1.4905254690988716,-2.8191598269177516,-0.41484627754344283,-0.1727645595358585,0.7578531572515168,-0.5334826017158084,0.03490573591282734,0.01092834,0.28874754,9.87720831,-0.004096,-0.001317,0.10969
880263.539774,3.337624999927357,-2.864523170993021,-1.4813594774134908,-2.806878150329419,-0.31476196325049877,-0.1458810876963497,0.7606378928974098,-0.5338505416966711,0.03488211315429249,-0.0489519,0.51148359,9.67154166,-0.000129,0.005742,0.212737
880263.55976,3.3576109999557957,-2.8249622768490834,-1.468879229641903,-2.7976710266911673,-0.2359539826206245,-0.12443151565561689,0.7632839990660791,-0.5341964555717049,0.034857639168649965,-0.01586277,0.5089428,9.75011976,-0.001787,-0.002903,0.236307
880263.579746,3.3775969999842346,-2.786099564285381,-1.4566205057489277,-2.7885380219585736,-0.15976378991566897,-0.10098768595011295,0.7657954421605856,-0.5345206236093394,0.03483230816265154,-0.01766781,0.62914473,9.71524521,0.000625,0.001378,0.232502
880263.599732,3.3975830000126734,-2.747925549988398,-1.4445782208801368,-2.7794628905499295,-0.08305841605668607,-0.0766447661275667,0.7681761193357176,-0.5348267373378157,0.034805776105379216,0.14340258,0.72105462,9.79024266,-0.00094,0.008766,0.225538
880263.619718,3.417568999924697,-2.7031122164254135,-1.422339520696902,-2.773048238024347,0.0011318121246185388,-0.008616544669813403,0.771544948435165,-0.5332056049209385,0.03478386518912829,0.08128566,0.6224052600000001,9.84876912,-0.00094,0.008766,0.225538
880263.639704,3.437554999953136,-2.688148900617442,-1.4165965616810243,-2.765207708044485,0.010455707608185686,-0.0012522279217596862,0.7710591406257936,-0.5332800135725682,0.034754773813535034,0.03382488,0.49861287,9.63860949,-0.000646,0.009183,0.142479
880263.659689,3.45753999997396,-2.673445620049977,-1.4110103885068097,-2.7597225691810316,0.017137572322530326,0.0007521346682680387,0.7703678054857738,-0.5333653308070154,0.03804941039741308,0.14369688,0.35401347,9.63935505,0.010844,-0.004922,0.068311
880263.679675,3.477526000002399,-2.658820964684087,-1.4054034849783499,-2.7550745821121785,0.023025714417088367,-9.460338617381045e-05,0.7695075744696626,-0.5333458663661086,0.03802118101814949,0.35281665,0.19264878,9.74563659,0.005394,-0.010945,-0.016482
880263.699661,3.497512000030838,-2.6442281822967186,-1.3997766749341072,-2.7516076820113557,0.024812948935137552,-0.0001510761778228775,0.7685957180373392,-0.5332879945645378,0.037992572673495636,0.21166056,0.20597076,9.78170796,0.003451,0.009302,-0.068509
880263.719647,3.5174979999428615,-2.6299331935978882,-1.3941506565136947,-2.7490645438550043,0.025343602224847696,-0.0024171345332481315,0.7676997031951003,-0.5331319052167901,0.03796312207243603,0.19908414,-0.00913311,9.7582032,-0.001414,-0.004885,-0.112786
880263.739633,3.5374839999713004,-2.6160598736972123,-1.3886650537866596,-2.746878748693831,0.024314431679916402,-0.003373087381872095,0.7668527515435912,-0.5329487284525021,0.037932734038298256,0.07559586,-0.00224649,9.63801108,-0.000605,-0.003565,-0.12972
880263.759619,3.5574699999997392,-2.602702755055287,-1.383327423320745,-2.744568366231442,0.023163753825921674,-0.004565399665696191,0.7660622138682374,-0.532734536602939,0.03790111958318279,0.02948886,-0.07320222,9.6827643,0.001448,-0.00305,-0.125267
880263.779605,3.577456000028178,-2.5898755053854114,-1.3781598905072034,-2.74140885075925,0.021843701995505945,-0.00554920167077809,0.7653309315027144,-0.5325006150071215,0.03786811415452146,-0.03083283,-0.11451213,9.74443977,0.001823,0.006181,-0.085787
880263.79959,3.597440999932587,-2.577605293420844,-1.3731719004277065,-2.7367895424779474,0.02142236488087369,-0.004998544349520263,0.7646054502448499,-0.5322872033257461,0.037833932807723084,-0.01571562,-0.01362609,9.73530666,0.001134,-0.003833,-0.013238
880263.819576,3.617426999961026,-2.5658770885040654,-1.3683428334411674,-2.7309681670880885,0.02183034454628458,-0.003533580035008134,0.7638423023335212,-0.5321177753967348,0.03651667513598225,0.03143124,0.09700128,9.708809850000002,0.003328,0.000264,0.026769
880263.839562,3.637412999989465,-2.554638550295336,-1.363638788822904,-2.724927909554547,0.022015482826841817,-0.0028075844589856755,0.7630602469173156,-0.5319704996686734,0.03370391572682199,0.03039138,0.08487612,9.749227050000002,0.00256,0.001851,0.010538
880263.859548,3.6573990000179037,-2.543850955579993,-1.3590854960418233,-2.7187458611133017,0.021641709717912093,-0.0015609426212204282,0.7622714124039425,-0.5318701552944585,0.02991969700400083,-0.02035575,0.15387966,9.7320105,0.005635,-0.000249,-0.003865
880263.879534,3.6773849999299273,-2.533529580027512,-1.354663185053747,-2.712692494771175,0.022309517845664286,-0.00015758798890706983,0.7614408919703918,-0.5317994861083213,0.02700071131913082,0.05553441,0.22512969,9.76733631,0.001766,0.003935,-0.00079
880263.89952,3.697370999958366,-2.523648394649225,-1.3503828724447613,-2.706673498199182,0.023740604349722062,0.0018084655566953628,0.7605331955843136,-0.5317682184078308,0.02440419119988488,0.1474443,0.34114275,9.74188917,0.00025,0.000957,-0.00176
880263.919506,3.717356999986805,-2.5141205884993205,-1.3462117094434638,-2.700797467057586,0.02319472372526041,0.004135935918700473,0.7596098859304992,-0.5318159283489199,0.02238403228465927,0.01856052,0.44352972,9.77482134,0.001546,0.002755,0.001033
880263.939491,3.7373420000076294,-2.504977530535801,-1.3421508578435748,-2.6949940329076374,0.023274480665199118,0.006424132384511009,0.7586497528011727,-0.5319329251812933,0.020736987600984816,0.04939335,0.53843166,9.77856876,0.000627,-0.003994,0.002592
880263.959477,3.7573280000360683,-2.4962197788203127,-1.338140300351259,-2.689253582188579,0.024543474538609056,0.006738268590110341,0.7576438405465317,-0.5320327868464272,0.019186885225014803,0.173637,0.45670455,9.69653754,0.004567,4.5e-05,0.001447
880263.979463,3.777313999948092,-2.487765162606514,-1.3342187551445461,-2.683620499670236,0.02436084223717847,0.007258125711690948,0.7566380457660062,-0.532143940597595,0.018077444276895255,0.09415638,0.47855142,9.70282575,0.002471,0.011914,0.005014
880263.999449,3.7972999999765307,-2.4796020318827425,-1.33036895940906,-2.6780906478432085,0.023232226691288025,0.007866281330784023,0.7556615976169022,-0.5322853740550592,0.01692133994236504,-0.00045126,0.49861287,9.67303278,0.004006,0.008142,0.002876
880264.039421,3.8372720000334084,-2.4720053287587636,-1.3266443656151212,-2.6727157857781076,0.027791596083275225,0.00929632202057942,0.7540161180871435,-0.5323231735460299,0.016037751765513926,0.05029587,0.46029501,9.73126494,0.001513,0.003208,0.005617
880264.059407,3.857257999945432,-2.4645958766100526,-1.322964397548707,-2.6671915512969395,0.024690669059866877,0.007959682048883717,0.7528888827102038,-0.5324145873994875,0.015055627138932052,0.08981055,0.43679025,9.73215765,0.004661,0.000337,0.003093
880264.079392,3.8772429999662563,-2.4573756234928017,-1.3193139724540868,-2.6617716445103854,0.023659053542186746,0.007020340005928352,0.7518897843281782,-0.5324947569261932,0.014064525549283514,0.06765957,0.38290392,9.7866522,0.000187,-0.001151,0.001669
880264.099378,3.897228999994695,-2.450379272974878,-1.3157189702887204,-2.6564593468706845,0.02351708187150441,0.006342764615531914,0.7509283972822435,-0.5325487966951707,0.01342039530255344,0.08726976,0.35671122,9.74698056,0.002045,0.000429,0.005257
880264.119364,3.917215000023134,-2.4436080248455156,-1.3121769442557665,-2.651263408540922,0.023525260807248507,0.0059223992827803565,0.749981122703265,-0.5325810224989934,0.012714592234778815,0.09145863,0.34533162,9.70851555,0.004846,0.00083,0.003559
880264.119364,3.917215000023134,-2.4370936155631147,-1.3087276310567908,-2.6461060375642615,0.01655643433971569,0.004251369378318847,0.7495610852427993,-0.5327352971752672,0.012100110370646155,0.09145863,0.34533162,9.70851555,0.004846,0.00083,0.003559
880264.119364,3.917215000023134,-2.4306885329816788,-1.3053183483524906,-2.641158713228304,0.013067536994676653,0.0034115506329991637,0.7492912559264899,-0.5329188137394817,0.01156027276050989,0.09145863,0.34533162,9.70851555,0.004846,0.00083,0.003559
880264.179322,3.9771729999920353,-2.42529757913072,-1.3020211607086858,-2.636576871960394,0.02921569221049168,0.005657860158050893,0.7474569161200484,-0.5325827174453737,0.011035905129462726,0.05883057,0.27662238,9.74279169,0.002853,0.004228,0.004119
880264.199308,3.997159000020474,-2.4195513215692945,-1.2987194422162214,-2.6318069462862907,0.024668150390914682,0.004320008584760299,0.746378461781944,-0.5324617977497974,0.010536310977988942,0.0782838,0.23755896,9.74518533,0.001686,0.001549,0.003849
880264.219294,4.017144999932498,-2.413897143692966,-1.2954622656764994,-2.6271354424623508,0.023494738154700164,0.0038459837071454076,0.7454448226000436,-0.5323718141703001,0.010113795065065061,0.07948062,0.23665644,9.75176784,0.003861,0.001162,0.004406
880264.239279,4.037129999953322,-2.4083734935362275,-1.292250220504816,-2.6225661090231935,0.023077425188647766,0.003557374941377984,0.7445555603809569,-0.5322808942991889,0.009641848438905932,0.07155414,0.22498254,9.74817738,0.001626,0.002791,0.003164
880264.259265,4.057115999981761,-2.4029987976559672,-1.289092304320979,-2.618085888668048,0.02298647982526411,0.0033935276365467818,0.743680955568151,-0.5321808739478853,0.009363286087882939,0.07739109,0.21929274,9.74982546,0.004476,0.000518,0.005567
880264.279251,4.0771020000102,-2.39777790883359,-1.2859821047929398,-2.61373247036052,0.022949048211103842,0.003394528508649008,0.742811505769626,-0.5320742446679089,0.008956324024860187,0.07768539,0.22348161,9.74384136,0.00176,0.002292,0.003274
880264.299237,4.097088000038639,-2.3926994373439054,-1.2829288504903178,-2.6094420741133315,0.022650709103875826,0.0033850042001539768,0.7419544701877977,-0.5319661610605743,0.008687559677553545,0.0525423599999999,0.21899844,9.77587101,0.001816,0.003484,0.004956
880264.319223,4.117073999950662,-2.3877733163761894,-1.2799466005021758,-2.605183338741066,0.022639617442634683,0.003853245968420728,0.7410909941457432,-0.5318683587944301,0.00827781890519798,0.06825798,0.25925868,9.73755315,0.002844,0.000424,0.002462
880264.339209,4.137059999979101,-2.382987102807258,-1.277031883851646,-2.600925578821302,0.022608862085183,0.004348797189868065,0.7402212630080306,-0.5317821052591978,0.008039248226285569,0.06795387,0.27841761,9.73934838,0.004087,0.001478,0.004695
880264.359195,4.15704600000754,-2.378341619674384,-1.2741692413512857,-2.5967518206497813,0.022645373668922324,0.0048747964675777845,0.7393425832053606,-0.531705480712947,0.007695506423670142,0.0751446,0.29893032,9.77048532,0.003999,0.001896,0.002778
880264.379181,4.177032000035979,-2.373828305095613,-1.2713616605555818,-2.5926243045777064,0.022669817638629675,0.005341567582034145,0.7384563863310764,-0.5316375116559354,0.007387046881157023,0.0778423499999999,0.3125466,9.75626082,0.001207,0.001182,0.002965
880264.399166,4.197016999940388,-2.3694412415849433,-1.2686121983456402,-2.588564548437341,0.022643556211696083,0.005989572810556244,0.7375611542759666,-0.5315836370983112,0.007351930807460128,0.07708698,0.34638129,9.72363276,0.005477,0.002342,0.006971
880264.419152,4.217002999968827,-2.3651744871241775,-1.2659076464610062,-2.5845474951198426,0.022549140901439262,0.0063223241550843376,0.7366641296986253,-0.5315374989210733,0.007015321328384823,0.07155414,0.34159401,9.76345155,0.003537,0.000611,0.002131
880264.439138,4.236988999997266,-2.361025607664261,-1.2632560384747384,-2.5805603606034078,0.022526499992006822,0.006624451918271737,0.735764061528555,-0.5314959815894027,0.006785118471886253,0.07648857,0.34967745,9.75850731,0.001185,0.000674,0.003475
880264.459124,4.2569750000257045,-2.3569896540937734,-1.2606549527721522,-2.5766345366624446,0.022501676243716073,0.007027303357137405,0.734859083442834,-0.5314616690359479,0.0065701098967049015,0.07813665,0.36883638,9.70971237,0.001185,0.000674,0.003475
880264.47911,4.276960999937728,-2.3530629001211207,-1.2580986990408969,-2.572779706375502,0.022492268005267074,0.007366475789448518,0.7339500287654627,-0.5314318448582802,0.006416333496205194,0.08098155,0.37706697,9.71823726,0.00248,0.002218,0.004231
880264.499096,4.296946999966167,-2.34923728616746,-1.2555828524419315,-2.5689931755586897,0.022354315096566678,0.007533164167801463,0.7330440435008557,-0.5314040354468836,0.006215615747400488,0.07050447,0.37302525,9.76464837,0.003926,0.001907,0.003314
880264.519082,4.316932999994606,-2.3455131884319096,-1.2531024706661946,-2.565308005564379,0.022249124400811362,0.007555620004717956,0.7321431027012593,-0.5313722570984921,0.0059382181247538135,0.0691605,0.36389214,9.72407421,0.003103,0.001173,0.001868
880264.539068,4.336919000023045,-2.341887029616382,-1.2506656242204905,-2.5616591841849408,0.02225125255476405,0.00749924740267896,0.7312454478608693,-0.5313329792298034,0.005903526379905204,0.07603731,0.3543175799999999,9.75431844,0.003036,0.004684,0.005497
880264.559054,4.356904999935068,-2.338353264860171,-1.2482588738810356,-2.5580915024418065,0.022208808810209823,0.007132174114472185,0.7303585509160622,-0.5312771303374682,0.005798085863804803,0.07184844,0.32018859,9.7784118,0.003306,0.001649,0.004315
880264.579039,4.376889999955893,-2.3349095600056033,-1.2458902351984205,-2.554623729463953,0.02215884360139353,0.006922109534296246,0.7294797304131818,-0.5312090288645275,0.005702815562502058,0.07079877,0.31629402,9.77407578,0.00161,0.002983,0.004368
880264.599025,4.396875999984331,-2.3315553317934072,-1.2435594266222143,-2.5512540557894847,0.02220211641625231,0.006844104192596016,0.7286034103125895,-0.5311312177081978,0.005558435815089229,0.07903917,0.31629402,9.75536811,0.004728,0.003229,0.003472
880264.619011,4.41686200001277,-2.3282807837012505,-1.241259234624634,-2.547954383374353,0.022100605157570206,0.006509234124824114,0.7277390760678426,-0.5310393637096436,0.005458940755246329,0.06706116,0.28709946,9.74712771,0.002164,-0.001342,0.00405
880264.638997,4.436847999924794,-2.325090344582762,-1.2389955920397846,-2.544713302310802,0.022169143705744486,0.006203437466634949,0.7268809013225848,-0.5309316070376323,0.00533585747702881,0.07903917,0.2718351,9.76164651,0.002662,0.00306,0.003564
880264.678968,4.476818999974057,-2.322204094381309,-1.2368338391738847,-2.5414990852426174,0.02639799558262282,0.007484089944104881,0.7254387968558583,-0.5306266396445283,0.005285910593186578,0.06137136,0.28874754,9.75072798,0.00291,0.000581,0.004669
880264.698955,4.49680600001011,-2.3192981012155913,-1.2346828636236937,-2.538342965631225,0.023162289741287017,0.006584543681553671,0.7244565275324008,-0.5304705572231377,0.005124345527874207,0.07065162,0.28410741,9.76060665,0.004714,0.001609,0.002884
880264.718941,4.516792000038549,-2.316397373578117,-1.2325539609847183,-2.5352322743914617,0.022277543054921276,0.006430239701139645,0.7235716005731694,-0.5303458112904292,0.005006923261473176,0.07155414,0.29024847,9.73306017,0.001433,0.002342,0.003392
880264.738927,4.536777999950573,-2.3135329854542532,-1.230452308758174,-2.5322060679035685,0.022061956966225336,0.006558257242760041,0.7227094651663033,-0.5302294522177917,0.004914192842467998,0.07768539,0.30147111,9.76913154,0.003102,0.002218,0.003648
880264.738927,4.536777999950573,-2.31075063117366,-1.2283919365347207,-2.5292800903878163,0.015503303722013823,0.004671999900113815,0.7223290249186811,-0.5302679303270553,0.0048326021285943375,0.07768539,0.30147111,9.76913154,0.003102,0.002218,0.003648
880264.758913,4.556763999979012,-2.3079134334235554,-1.2263307304004667,-2.5264231353661866,0.019757325153661114,0.006132087156524968,0.7216652865695748,-0.5302143855254653,0.004638467197210515,0.06196977,0.30386475,9.76599234,0.001089,-0.000307,0.001702
880264.798884,4.596735000028275,-2.3053960605502106,-1.2243943082122766,-2.5235190097874822,0.025986914304111514,0.008510598841510513,0.7202720714180721,-0.5299437358044169,0.0045973806658823144,0.08412075,0.3239262,9.76090095,0.00297,0.00097,0.004084
880264.81887,4.6167209999402985,-2.3028401209119416,-1.2224600571061857,-2.5206146066142896,0.02285730244667823,0.007737576963722492,0.7192927488692228,-0.5298072145320819,0.004662944268665072,0.06601149,0.32976315,9.75326877,-0.000392,0.003125,0.005715
880264.838856,4.636706999968737,-2.300295796656417,-1.2205429804177348,-2.5178071880972057,0.021912793223293762,0.0077502622102104055,0.7184032740988374,-0.5297041833256317,0.004556896527545977,0.06511878,0.3441348,9.72647766,0.003758,0.002368,0.003073
880264.838856,4.636706999968737,-2.2978183666705636,-1.2186599629776356,-2.5150885935480822,0.015336281206162287,0.005488901561755016,0.7180173453341643,-0.5297430052488487,0.0044634296652764135,0.06511878,0.3441348,9.72647766,0.003758,0.002368,0.003073
880264.878828,4.676679000025615,-2.2955367295190903,-1.216849147151422,-2.5124217947148795,0.024829618091891503,0.00890830621023363,0.71676598133697,-0.5295288126678717,0.0043555435890395185,0.0811287,0.33380487,9.75551526,0.003592,0.003124,0.002843
880264.898814,4.696664999937639,-2.293173708426795,-1.2150257391101014,-2.5097517498817092,0.02249057865660284,0.008139109377215415,0.7158147762054705,-0.5294003595766004,0.00427565115488981,0.07349652,0.33260805,9.75745764,0.003519,0.001878,0.00317
880264.9188,4.7166509999660775,-2.290830112381536,-1.2132181082926177,-2.5071725155789673,0.021820037512835202,0.007952870850239945,0.7149353945751935,-0.5292883812316406,0.004328671567539719,0.07469334,0.3324609,9.73829871,0.002541,0.003358,0.005194
880264.938786,4.736636999994516,-2.2885185564467587,-1.2114242012760563,-2.5046368694566086,0.021649126375383,0.007621620007266608,0.7140819666267743,-0.5291700863200491,0.004315537221544382,0.07619427,0.3034233,9.78829047,0.004173,0.000795,0.004194
880264.958772,4.756623000022955,-2.2862409038567324,-1.209659350905517,-2.5021311199844853,0.02147424655895976,0.007551715242516422,0.7132400787268987,-0.529051211338509,0.004255649611905648,0.06675705,0.31134978,9.76404996,0.002888,0.002558,0.003432
880264.978757,4.776607999927364,-2.2840047335220794,-1.2079196533509058,-2.499703794387741,0.021361436699719835,0.007565402974248629,0.7124041600765025,-0.5289305218706789,0.004210973091615763,0.06571719,0.31419468,9.76688505,0.004202,0.002587,0.003611
880264.998743,4.796593999955803,-2.281814512250172,-1.206201210430637,-2.49734530800918,0.021393926228030036,0.007454243886543214,0.7115719239909201,-0.5288014457036596,0.004163021405276878,0.07394778,0.30027429,9.77601816,0.003027,0.000233,0.00351
880264.998743,4.796593999955803,-2.2797056817944483,-1.2045292828231327,-2.4950713955554438,0.01505522540969421,0.005285851151348151,0.7112054389356406,-0.5288166307638956,0.004120742189468457,0.07394778,0.30027429,9.77601816,0.003027,0.000233,0.00351
880265.038715,4.836566000012681,-2.2777781731057525,-1.2029267043328935,-2.49277673074615,0.024489577731053522,0.008615630561939999,0.709996633658839,-0.5285621128262257,0.0041113346094406545,0.0778423499999999,0.30821058,9.76195062,0.004521,0.001945,0.004037
880265.058701,4.856551999924704,-2.2757786137197,-1.2013065789719826,-2.490574998909913,0.02235275702694552,0.00780724938486456,0.7090732494488874,-0.5283910859746015,0.003988486262055662,0.08502327,0.29952873,9.77287896,0.002014,0.001933,0.002208
880265.078687,4.876537999953143,-2.2737837907785265,-1.1997072912529063,-2.4883803644595983,0.021538844698642375,0.007684872704615902,0.7082217249938103,-0.528246058394321,0.003998775414865568,0.06466752,0.31134978,9.76224492,0.003541,0.003401,0.004217
880265.098672,4.896522999973968,-2.2718131467505365,-1.1981321491120025,-2.4861925705488366,0.02127717730730877,0.007832465648917552,0.7073875060810664,-0.5281124927248971,0.003996608770888327,0.07005321,0.3242303099999999,9.75236625,0.003734,-6.6e-05,0.004027
880265.118659,4.916510000010021,-2.2698771099608455,-1.1965777296189215,-2.4840469224911064,0.02136405624806101,0.007980568228652047,0.7065526240082343,-0.5279787410987936,0.004060585015269229,0.08906499,0.32527017,9.76704201,0.005084,0.001525,0.005089
880265.138645,4.93649600003846,-2.2679660169224807,-1.1950396030461767,-2.482014005423614,0.02116066967920657,0.008029825047813861,0.7057254660146502,-0.5278459086539016,0.0040003369349828136,0.06571719,0.32377905,9.7812567,0.003963,0.000915,0.003147
880265.158631,4.956481999950483,-2.2660920096477106,-1.1935256117882973,-2.480019081215434,0.021148722646357372,0.008148357830142151,0.7048979580644293,-0.5277136189696506,0.003943973762560074,0.07679268,0.32946885,9.73380573,0.003963,0.000915,0.003147
880265.178617,4.976467999978922,-2.2642506663770026,-1.1920332169453567,-2.4780222939047847,0.02111380355611704,0.008162227329985344,0.7040724708043021,-0.5275806656431123,0.003870768164698637,0.07469334,0.3236319,9.76404996,0.003826,0.001239,0.002817
880265.198603,4.996454000007361,-2.26244282299975,-1.1905577103461988,-2.4761286490503545,0.02105858623461263,0.008086640960433699,0.703252419098017,-0.5274414399947065,0.003868480497617615,0.07139718,0.3150972,9.752670360000002,0.001614,0.001206,0.003888
880265.218588,5.0164390000281855,-2.260667277763061,-1.1891101325666815,-2.4742513593491835,0.020996094108853332,0.008238856143427058,0.7024321475207894,-0.5273056877071993,0.003817448231925015,0.07215255,0.33186249,9.737101890000002,0.003444,0.003899,0.003095
880265.238574,5.036424999940209,-2.258927590368639,-1.1876749724828404,-2.4724511133554414,0.021060985514361922,0.00808180986676893,0.7016154138569608,-0.5271598951379944,0.0037442226356035517,0.0791863199999999,0.30716091,9.780962400000002,0.00306,0.001542,0.002681
880265.25856,5.056410999968648,-2.257216882211023,-1.18626645312324,-2.4706518447506864,0.02102277060204761,0.008131737227350453,0.7007999090779925,-0.5270144889920252,0.003696881115433646,0.0754389,0.31913892,9.746235,0.002056,0.000598,0.003027
880265.278546,5.076396999997087,-2.2555372175446484,-1.1848788251633582,-2.4688765156557055,0.021004015263161386,0.008170084086203084,0.6999855274990741,-0.5268680454936158,0.003670874787966534,0.07693983,0.31883481,9.72691911,0.004434,0.002945,0.003325
880265.298532,5.096383000025526,-2.2538857898210747,-1.1835055808713604,-2.467189568666208,0.02090439892931874,0.008057113885216481,0.6991783680778757,-0.5267161192155558,0.0036610964094310563,0.06795387,0.3065625,9.76329459,0.00213,0.001041,0.00356
880265.318518,5.116368999937549,-2.252264704048446,-1.1821522875725823,-2.4655104119924784,0.02087722607979656,0.007947449001964636,0.698375694296336,-0.5265596848399229,0.003700643645923541,0.07079877,0.30042144,9.76508982,0.003095,0.003088,0.004352
880265.338504,5.136354999965988,-2.2506715966148274,-1.180822437453631,-2.4638560534587106,0.02083689884228513,0.008008740126607648,0.6975741482352764,-0.5264035331173443,0.0037240830434914444,0.07125003,0.31060422,9.75640797,0.002381,0.002296,0.004129
880265.35849,5.156340999994427,-2.2491080651123627,-1.1795121585913568,-2.4622413639210907,0.020865971121569092,0.008085616967404017,0.6967715779591981,-0.5262462020227743,0.0037063934397415592,0.07768539,0.31270356,9.74384136,0.003208,0.003088,0.003482
880265.35849,5.156340999994427,-2.2476105366691295,-1.1782379364256592,-2.4606887772401107,0.014683620350352049,0.005723815255452058,0.6964223360666221,-0.5262309167866619,0.0036908212242440733,0.07768539,0.31270356,9.74384136,0.003208,0.003088,0.003482
880265.398462,5.196312999934889,-2.2462725152420426,-1.177036261026875,-2.4591646616990714,0.023851858784381768,0.009529907416045997,0.6952480652479012,-0.5259601730621837,0.003681537082418106,0.08023599,0.32258223,9.75716334,0.004124,0.001247,0.003584
880265.418448,5.216298999963328,-2.2448420630704597,-1.1758030687008785,-2.4576688457644744,0.021499121041996416,0.00864582495954981,0.6943604017430168,-0.5257775978410709,0.003690839554573111,0.06122421,0.31689243,9.77496849,0.002919,0.003425,0.003874
880265.438434,5.236284999991767,-2.243414332744807,-1.1745779153132883,-2.4562632966625193,0.02087960879943972,0.008472813204170593,0.6935385368591526,-0.5256133152129082,0.0036948895421955045,0.07139718,0.32213097,9.76060665,0.002214,0.001687,0.003796
880265.478406,5.2762569999322295,-2.2422353470520933,-1.1734502696829836,-2.4547806532334246,0.025164815070436643,0.01006859490096649,0.692158604248753,-0.5252693226480613,0.003731666833098267,0.08786817,0.31404753,9.78230637,0.003715,0.003815,0.0043
880265.498392,5.296242999960668,-2.240954349316505,-1.1722995803737228,-2.453363427199969,0.021845306001045114,0.008836746992791746,0.691233419927107,-0.525069101788553,0.003678844278425974,0.06571719,0.31808925,9.765246780000002,0.002039,-0.00014,0.002956
880265.498392,5.296242999960668,-2.2396614232252343,-1.1711535908311599,-2.451992849777268,0.01506691434772774,0.006129054568254989,0.6908604288819206,-0.5250393269996098,0.003632423816668471,0.06571719,0.31808925,9.765246780000002,0.002039,-0.00014,0.002956
880265.518376,5.316226999973878,-2.2382601653007415,-1.1699713599754604,-2.4506401093703536,0.018881638619540453,0.007748701268532399,0.6902271003782644,-0.5249286938660797,0.003635937579726938,0.07409493,0.3210813,9.749227050000002,0.003139,0.004128,0.003728
880265.558349,5.3562000000383705,-2.2371035309067584,-1.1688809652388679,-2.4492364695399655,0.024408559563599795,0.009789272039045992,0.6889378009575509,-0.524601232037627,0.003766867956289588,0.07125003,0.30506157,9.76300029,0.00217,0.002509,0.005702
880265.578335,5.376185999950394,-2.2358756629470293,-1.1677789558628522,-2.447913385641851,0.02151571206980357,0.008660205093128544,0.688039510856148,-0.524397521129256,0.0038069034504848135,0.06511878,0.30806343,9.78021684,0.003328,0.004333,0.004428
880265.598321,5.396171999978833,-2.2346202641259603,-1.1666786626752097,-2.446611956262091,0.020706880745153224,0.008530378216158332,0.6872236624258105,-0.5242250009957173,0.0038210370402139704,0.06960195,0.32407335,9.75805605,0.004148,0.002643,0.004065
880265.618307,5.416158000007272,-2.2333602642044847,-1.1655775915058808,-2.4453565882586217,0.020504961727708274,0.008410691758381099,0.6864321438084512,-0.524055527413276,0.00393386235543737,0.07244685,0.31090833,9.77137803,0.002902,0.002396,0.005633
880265.638293,5.436144000035711,-2.232107147752477,-1.164490154422147,-2.444146340227643,0.02050321939258934,0.00855441086212418,0.6856428547163937,-0.523889095450108,0.003916791313074124,0.08143281,0.32631984,9.79368597,0.002223,0.00157,0.003698
880265.658279,5.456129999947734,-2.2308638082402767,-1.1634128214888286,-2.4429382573435805,0.020467803459180974,0.008612333145195217,0.6848554039963591,-0.5237242759300872,0.003880453770564061,0.07753824,0.3239262,9.77751909,0.003892,0.002819,0.003374
880265.678265,5.476115999976173,-2.229636237576504,-1.1623506162832513,-2.4417623583405605,0.02047462713071041,0.008762420369000986,0.6840659889242867,-0.5235615640147823,0.003778825795520347,0.08248248,0.33351057,9.77182929,0.004273,0.000751,0.002295
880265.698251,5.496102000004612,-2.2284220823693373,-1.1612956406226653,-2.440599592888602,0.020365882390314442,0.008650163975700611,0.6832833151551921,-0.5233964978746874,0.0038022691632736724,0.06990606,0.31689243,9.7781175,0.002545,0.001592,0.004186
880265.698251,5.496102000004612,-2.227266379124714,-1.1602756484760026,-2.439492239563399,0.014327225236545059,0.006106762163234789,0.6829447005262202,-0.5233660428257371,0.0038230992619775477,0.06990606,0.31689243,9.7781175,0.002545,0.001592,0.004186
880265.698251,5.496102000004612,-2.2260360777013286,-1.1592306320655976,-2.4384298687334987,0.01130133376099371,0.004831738047682182,0.682732316034974,-0.5233724008131855,0.0038417403276182626,0.06990606,0.31689243,9.7781175,0.002545,0.001592,0.004186
880265.758209,5.556059999973513,-2.225546788221498,-1.1585152446206282,-2.437257224328458,0.025911036092170454,0.011333840040966615,0.6811018131201543,-0.5229569235952389,0.00392844939626944,0.07469334,0.33170553,9.77916717,0.003251,0.000861,0.005235
880265.778195,5.576046000001952,-2.2245700711980776,-1.1575911894369302,-2.4361643928311163,0.02171512182330248,0.009551723587274692,0.6801486171228336,-0.5227443422692577,0.003922262267363189,0.07110288,0.33110712,9.77766624,0.001638,-0.000218,0.003861
880265.798181,5.596032000030391,-2.2235293347756557,-1.1566378730025502,-2.4351307054755496,0.020665191843771438,0.008930757166332912,0.6793260400710438,-0.5225619454862708,0.003913497802881556,0.07679268,0.31479309,9.77871591,0.002653,0.00203,0.003812
880265.818167,5.6160179999424145,-2.2224582317199846,-1.1556815049477531,-2.434111774717827,0.020235880949543327,0.008776521604676813,0.6785408645530409,-0.5223903168866443,0.003927158894648935,0.06556023,0.32213097,9.76823883,0.002374,0.000146,0.004159
880265.838153,5.636003999970853,-2.2213828946743135,-1.1547282651305633,-2.4330933837213853,0.020149388019613773,0.008732411195061728,0.6777658534561422,-0.5222201094739493,0.004036397600826905,0.07289811,0.32093415,9.7493742,0.00079,0.001691,0.005698
880265.858139,5.655989999999292,-2.220310279463899,-1.1537816286822817,-2.432107810748548,0.02009537169808896,0.008718367463258835,0.6769953575880919,-0.5220497300517676,0.003998152089065962,0.07125003,0.320787,9.76374585,0.004396,0.000555,0.003452
880265.878124,5.675975000020117,-2.219245651123153,-1.1528421345473892,-2.4311639797473847,0.020026392352929696,0.008658319673652852,0.6762298632079727,-0.521877205738146,0.003997691318508506,0.06706116,0.31598991,9.77092677,0.000487,-0.000475,0.004017
880265.89811,5.69596099993214,-2.2181944580562822,-1.1519123617754548,-2.430204413587703,0.02004333653222549,0.008573285683696618,0.6754668161539356,-0.5217015795880883,0.004048265911489926,0.07184844,0.30955455,9.75850731,0.002879,0.000755,0.004837
880265.918096,5.715946999960579,-2.2171562006039385,-1.1509952866739903,-2.4292751292696377,0.020042371110004936,0.008588333365017608,0.6747046282655489,-0.5215248590105005,0.0040080694645166755,0.07289811,0.31464594,9.76000824,0.003759,0.0013,0.003427
880265.938082,5.735932999989018,-2.216132936453955,-1.1500945988958002,-2.4283485748122264,0.020084377265314236,0.008789359205086975,0.6739377625312094,-0.5213516659271342,0.003961506537028627,0.0811287,0.33095997,9.752817510000002,0.003056,0.002004,0.003283
880265.958068,5.755919000017457,-2.2151197780575043,-1.1491974518159025,-2.427460681780359,0.019967388182925615,0.008676875382546257,0.6731777688502502,-0.5211761195589019,0.003927249484729056,0.06541308,0.31270356,9.76300029,0.003519,0.001611,0.003433
880265.978054,5.77590499992948,-2.2141224037692284,-1.1483164943809077,-2.4266270052343866,0.01993858515272745,0.0088115253818013,0.672416846956022,-0.5210024700727384,0.0038510261698037184,0.07289811,0.32946885,9.749227050000002,0.003002,0.001423,0.002718
880265.99804,5.795890999957919,-2.2131353846453075,-1.1474440556241945,-2.4257742227245385,0.019795361542738296,0.008807147885302269,0.6716605435863142,-0.5208315199647713,0.003881189748932229,0.06077295,0.3242303099999999,9.76778757,0.005146,0.003798,0.004363
880266.018026,5.815876999986358,-2.2121677684663736,-1.146577984492595,-2.425007363630207,0.01988544407182887,0.008687251455364337,0.6709063792605983,-0.5206517960940097,0.003988232991007317,0.07484049,0.31015296,9.77587101,0.003037,-5e-05,0.005637
880266.038012,5.835863000014797,-2.2112145582048846,-1.1457269830813963,-2.424211277288821,0.01999399512156642,0.008739454468825038,0.6701487549425971,-0.5204715183983543,0.003970698270519005,0.08337519,0.31913892,9.75386718,0.003643,0.003292,0.003726
880266.057998,5.85584899992682,-2.210269486418502,-1.1448866848221946,-2.423434242529594,0.0198879345125951,0.008795666385825192,0.6693936681470692,-0.5202937690537621,0.003991813091087561,0.06975891,0.3242303099999999,9.75671208,0.003434,0.002264,0.004335
880266.09797,5.895820999983698,-2.2095699274297727,-1.1441508249162866,-2.42261990940161,0.02427802498074256,0.010661516695141341,0.668085098975152,-0.5199390338425196,0.004107360650418216,0.09445068,0.320787,9.75731049,0.003791,0.002655,0.005789
880266.117956,5.915807000012137,-2.208773118569266,-1.1433826021781526,-2.4218832703559072,0.02109369969484471,0.009321559247066236,0.6672069279955545,-0.5197194424318595,0.004178247106122769,0.0694548,0.3204828899999999,9.76554108,0.001462,0.002007,0.005225
880266.117956,5.915807000012137,-2.2079632596303447,-1.1426144949650165,-2.4211962652812375,0.014551078356782762,0.006450368367084394,0.6668559236822911,-0.5196634441808571,0.004240767374539544,0.0694548,0.3204828899999999,9.76554108,0.001462,0.002007,0.005225
880266.157928,5.955778999952599,-2.207278313023835,-1.1419033882356762,-2.420545862566592,0.023006490583207632,0.010223664458991798,0.6657326379147765,-0.5193663872032273,0.004125131379458031,0.08696565,0.32347494,9.74099646,0.005947,0.004141,0.002465
880266.157928,5.955778999952599,-2.2065174439093145,-1.1411657086704625,-2.4198595923578146,0.015390881582226446,0.006858832599262499,0.6653369867877301,-0.5192950696199846,0.00402325099786337,0.08696565,0.32347494,9.74099646,0.005947,0.004141,0.002465
880266.1979,5.995751000009477,-2.205847781073654,-1.1404664158243212,-2.4191610378633377,0.02315799431904874,0.010230690665347092,0.6641927826820408,-0.5189867840858362,0.0040324762169864055,0.08547453,0.31808925,9.77960862,0.002319,0.000484,0.004186
880266.217886,6.015737000037916,-2.205062875502052,-1.139726123513925,-2.4185247468681523,0.02064065009693697,0.009209427580740266,0.6633530959767491,-0.518775217389888,0.003985744191538076,0.06331374,0.32138541,9.77737194,0.003574,0.001252,0.003319
880266.237872,6.0357229999499395,-2.2042533605546164,-1.1389772903875928,-2.4178789343666507,0.01994526300885947,0.00889726597663297,0.6625841858132197,-0.5185845998854214,0.00419423262783672,0.06975891,0.31763799,9.77661657,0.004779,0.002011,0.007282
880266.237872,6.0357229999499395,-2.2034683687638172,-1.1382455184685758,-2.4173149605149318,0.013972937525006366,0.00624778064348568,0.6622582852914172,-0.5185316371904819,0.0043783795850065805,0.06975891,0.31763799,9.77661657,0.004779,0.002011,0.007282
880266.277844,6.075695000006817,-2.202806940714346,-1.137576095956288,-2.416718266821662,0.022374218475672662,0.010167028649901091,0.6611725121509363,-0.5182475211414274,0.0043317137442693745,0.06840513,0.32602554,9.75147354,0.003065,0.001135,0.003662
880266.29783,6.095681000035256,-2.2020505433451647,-1.1368647107252,-2.4161322988334133,0.02043343497318944,0.009310427128199392,0.6603444388401418,-0.5180416509522684,0.004321644658861223,0.08172711,0.32766381,9.76374585,0.005321,0.002585,0.004189
880266.317816,6.11566699994728,-2.2012714221676712,-1.1361419765098144,-2.415523988019321,0.019806322778438967,0.008859139702257489,0.6595841626600378,-0.5178509884495356,0.004317134713097184,0.06720831,0.30806343,9.79967007,0.001267,-0.001611,0.004267
880266.337802,6.135652999975719,-2.2004854866996064,-1.1354254186665265,-2.4149439103307673,0.019596762111059575,0.00884770615377174,0.658841301908452,-0.5176667130208548,0.004381762578418582,0.06990606,0.32347494,9.76913154,0.00261,0.002573,0.005361
880266.357788,6.155639000004157,-2.1997008240959492,-1.1347143793140742,-2.4144054213529165,0.0195421506200446,0.008947149072133261,0.658101761051173,-0.5174854448165804,0.004462081409436402,0.07409493,0.33095997,9.76972995,0.003776,0.000353,0.005678
880266.357788,6.155639000004157,-2.1989586641140786,-1.1340257843026444,-2.4139112253149,0.013747614640627542,0.006311289903087063,0.6577839756523796,-0.517432407395892,0.00453317724060643,0.07409493,0.33095997,9.76972995,0.003776,0.000353,0.005678
880266.397759,6.195609999937005,-2.1983414014405356,-1.1333961653256852,-2.413356833703349,0.0221975855655962,0.010205480769386231,0.6567116823157982,-0.517150087889657,0.004543727599702078,0.06856209,0.32527017,9.76508982,0.004638,0.00207,0.004716
880266.417745,6.215595999965444,-2.1976357649184446,-1.1327287897752947,-2.412823645960951,0.020306003589805808,0.009306975450784027,0.6558926391166172,-0.5169430247938007,0.0044820959703984345,0.08248248,0.32437746,9.77392863,0.002623,0.001248,0.003576
880266.437731,6.235581999993883,-2.196913673357871,-1.1320542835794676,-2.412320665095579,0.019812620990316804,0.008963129614139222,0.655135157031488,-0.5167490506173353,0.004523384025049819,0.08098155,0.31494024,9.79413723,0.004725,0.000643,0.005156
880266.457717,6.255568000022322,-2.196184415635857,-1.1313779618578215,-2.4118246366927774,0.019664775939216714,0.008735483157579377,0.6543979636222409,-0.516555573249473,0.004448371269111912,0.07768539,0.30536568,9.80071974,0.001606,-0.000528,0.003335
880266.477703,6.2755539999343455,-2.1954519271113493,-1.1307128505719646,-2.411308075758083,0.019508059094831463,0.008870632148584015,0.6536652679018329,-0.516370049550275,0.004488554376111448,0.07244685,0.32931189,9.75940983,0.003267,0.002842,0.005108
880266.497689,6.295539999962784,-2.19472442104427,-1.1300495549739524,-2.4108324426989127,0.019445757522103087,0.008868322465215597,0.6529359966870004,-0.5161850672725616,0.004307231387938523,0.07275096,0.32153256,9.765246780000002,0.003096,0.000795,0.001584
880266.517675,6.315525999991223,-2.1940042593220657,-1.1293870950008764,-2.4103928821103375,0.019442001649740057,0.00869384987223308,0.6522122832141872,-0.5159937440723874,0.004367384575946074,0.07260381,0.30506157,9.79892451,0.002126,0.000162,0.005289
880266.537661,6.335512000019662,-2.1932941110058577,-1.1287405155741295,-2.4099600326032395,0.019539011023111032,0.008909032080217462,0.6514821129379614,-0.5158053604222327,0.004364449108141395,0.08831943,0.33110712,9.76838598,0.003749,0.003936,0.004332
880266.557647,6.355497999931686,-2.1925884496724004,-1.1280983853595588,-2.4095165804732797,0.019490339689960536,0.008977673765781315,0.6507522676742846,-0.5156198416428024,0.004354752743532038,0.07903917,0.32856633,9.78170796,0.00322,0.000237,0.00422
880266.577633,6.3754839999601245,-2.19189050717696,-1.1274563592680003,-2.409108662593017,0.01943819694764424,0.008793815135456559,0.6500289572364177,-0.5154294067636167,0.0043508559009931185,0.07320222,0.30880899,9.7812567,0.004305,0.00173,0.004303
880266.597619,6.395469999988563,-2.191198801883395,-1.1268227453058592,-2.4086855164977052,0.019333812852227863,0.00871186768828039,0.6493107351253262,-0.5152392484700011,0.004403167682768465,0.06735546,0.31165389,9.75147354,0.001972,-0.00094,0.00521
880266.617605,6.415456000017002,-2.190516812203382,-1.126201469901731,-2.408224297125415,0.01932199303372503,0.00884236891125722,0.6485902293744681,-0.5150535377950235,0.004443877962594127,0.07559586,0.32646699,9.76224492,0.00316,0.001583,0.005076
880266.637591,6.435441999929026,-2.1898432539409627,-1.125586500506192,-2.407825086907939,0.01932078776133282,0.008946355498767142,0.647868614013872,-0.5148686050078047,0.004376709802617237,0.07753824,0.32931189,9.76718916,0.004606,0.002692,0.003365
880266.657577,6.455427999957465,-2.1891783025427762,-1.1249722405353293,-2.407458160501989,0.01934101539273898,0.00881723479248275,0.6471504409620187,-0.5146786502866743,0.0043187678774467796,0.07663572,0.31194819,9.78859458,0.001396,0.001416,0.003446
880266.677564,6.475414999993518,-2.1885208725286343,-1.1243720741848442,-2.407097490923046,0.019344288100647224,0.009005096205241578,0.6464287363809779,-0.5144928064252721,0.004308380729027096,0.08172711,0.33545295,9.74159487,0.004247,0.003049,0.00416
880266.69755,6.495401000021957,-2.187871509100023,-1.123776725013724,-2.406685572236552,0.01936635412012039,0.009067613875341931,0.6457053996098294,-0.5143090894090181,0.004385837188962492,0.0836793,0.33141123,9.79218504,0.00331,0.001891,0.005579
880266.717536,6.51538699993398,-2.1872252466525395,-1.1231794915707973,-2.4063128763543467,0.01921712972869184,0.008823727177775692,0.6449922234756529,-0.5141214389835836,0.004336704379196818,0.06436341,0.30910329,9.77632227,0.002022,0.000292,0.003597
880266.737522,6.535372999962419,-2.186587469093805,-1.1225981703089847,-2.4059187921440124,0.01914871118643409,0.008995587372687287,0.6442774086381515,-0.5139399077195718,0.004345271357328882,0.07215255,0.33634566,9.75132639,0.004299,0.00186,0.004487
880266.757508,6.555358999990858,-2.1859604663564776,-1.122019202581124,-2.405550774200922,0.01922074972689382,0.008992329907931024,0.643561860242863,-0.5137555337850261,0.004392239552660023,0.08098155,0.32542713,9.77766624,0.001705,0.000689,0.00512
880266.777494,6.575345000019297,-2.185339251081561,-1.121443587986007,-2.405179775402945,0.0192213466490848,0.008891275573174297,0.6428493197631443,-0.5135681889245769,0.004532966300245885,0.07634142,0.31703958,9.80012133,0.004252,0.001512,0.006694
880266.817466,6.615316999959759,-2.1849413151466406,-1.1209726707389298,-2.4048183025085725,0.023360849171192234,0.010781241228860141,0.6416155218812696,-0.5132163417861236,0.004542773821095123,0.09100737,0.3236319,9.75970413,0.004824,0.001341,0.004694
880266.837452,6.635302999988198,-2.184450315704404,-1.1204661387680748,-2.4044661221279475,0.020316080272983098,0.009454412258967803,0.6407868242093515,-0.5129937279869363,0.004507480082713204,0.07139718,0.32602554,9.77108373,0.004203,0.001745,0.004005
880266.837452,6.635302999988198,-2.1839429569648874,-1.1199546612288003,-2.404120091243296,0.0140151096949151,0.006536129042628318,0.6404572522344915,-0.5129255085630078,0.004476397954246574,0.07139718,0.32602554,9.77108373,0.004203,0.001745,0.004005
880266.857438,6.655289000016637,-2.1833182604630466,-1.1193874071882393,-2.4037816652616004,0.017519253244621585,0.008035765242116149,0.6398967056049394,-0.512781480429631,0.004542803076902822,0.06975891,0.31134978,9.80416305,0.002803,0.003158,0.005578
880266.89741,6.6952609999571,-2.182905492175511,-1.1189260342809864,-2.40346027144823,0.02267712802559206,0.010537285892201934,0.6387350258051762,-0.5124524507478959,0.004509207707697502,0.07589016,0.32452461,9.7929306,0.001368,0.002044,0.00403
880266.917396,6.715246999985538,-2.1824154303694088,-1.1184267120234843,-2.4031347067132875,0.01996991530636649,0.009244674887185797,0.6379298960088442,-0.5122327516703394,0.004520007600476182,0.06481467,0.31569561,9.78769206,0.004145,0.001706,0.004687
880266.917396,6.715246999985538,-2.181921137937593,-1.1179303195843013,-2.4028258311255173,0.013798976748301712,0.006396789011083649,0.6376075031588755,-0.5121641334615952,0.0045295611417485145,0.06481467,0.31569561,9.78769206,0.004145,0.001706,0.004687
880266.957368,6.755218999926001,-2.1815401246351254,-1.1174839377770132,-2.4024950657787674,0.021904393882101483,0.010077182523456107,0.6365669393708212,-0.5118675128207991,0.004496378111935416,0.07873506,0.31734369,9.77601816,0.002558,0.003429,0.00402
880266.957368,6.755218999926001,-2.181088422094723,-1.1170115155167342,-2.402159974051759,0.014655765221225086,0.006753104298864085,0.6362013126465632,-0.5117846508756615,0.004467123747602829,0.07873506,0.31734369,9.77601816,0.002558,0.003429,0.00402
880266.99734,6.795190999982879,-2.180717334514181,-1.1165849796945553,-2.4018798146021774,0.022075977146945445,0.010385319292634436,0.6351308638572757,-0.5114861278495022,0.004411950918516005,0.08128566,0.32976315,9.77287896,0.002462,0.001913,0.003612
880267.017326,6.815177000011317,-2.180238455712784,-1.1161030541883359,-2.4015479189185487,0.01982986047430926,0.009257604980800384,0.6343431056037282,-0.5112729597839599,0.004409911906000664,0.07139718,0.31703958,9.77871591,0.004188,0.00181,0.004389
880267.037312,6.835162999923341,-2.17973022609094,-1.1156091401072399,-2.4012696399167317,0.01921430925406579,0.008909958324241402,0.6336216275645905,-0.5110765376882213,0.00436271018190324,0.07424208,0.31598991,9.78529842,0.00163,-0.002209,0.003672
880267.037312,6.835162999923341,-2.179241663492871,-1.1151291631536184,-2.40099078183862,0.013462294548432157,0.006249601131809996,0.6333170694743322,-0.5110111092732748,0.004321026344579744,0.07424208,0.31598991,9.78529842,0.00163,-0.002209,0.003672
880267.077284,6.875134999980219,-2.1788696595907266,-1.1147074136084425,-2.4007013692699943,0.02168406859917603,0.01015468041685273,0.6322930102398926,-0.5107236957371958,0.004247678410834836,0.07708698,0.3242303099999999,9.77182929,0.001509,0.0015,0.003173
880267.09727,6.895121000008658,-2.178395160559574,-1.1142375249504375,-2.400423675358682,0.01968365786693554,0.009208166633344596,0.6315177617030169,-0.5105119142954246,0.0042393217924033295,0.07499745,0.32093415,9.77032836,0.001368,6.3e-05,0.004123
880267.117256,6.915107000037096,-2.177899439168034,-1.1137611934405074,-2.400151218466389,0.01914885171911213,0.00899291458667678,0.6307994208528029,-0.5103185095025539,0.004243612138104084,0.07903917,0.32527017,9.764942670000002,0.004932,0.003225,0.004315
880267.137242,6.93509299994912,-2.177390225518031,-1.1132790388512188,-2.3998637839332044,0.01891324496420978,0.00884292250734609,0.6301008511759641,-0.5101301928818444,0.004219052290441107,0.07005321,0.3179421,9.75626082,0.004084,0.000119,0.00386
880267.157228,6.955078999977559,-2.176874517164345,-1.1127959511029637,-2.3995666079866136,0.01872108545950663,0.008722752260713267,0.6294130919459087,-0.5099439917185054,0.004299106289620959,0.06017454,0.31479309,9.78215922,0.002871,0.002512,0.005507
880267.177214,6.975065000005998,-2.17636312237296,-1.1123180031716546,-2.3992934380806727,0.018747620209826083,0.008756405910861529,0.6287255078870051,-0.5097577032202114,0.004257384249719446,0.07364367,0.320787,9.74384136,0.002951,0.00321,0.003638
880267.1972,6.995051000034437,-2.175855894556711,-1.1118464767347789,-2.3990317794418687,0.018830096605005637,0.008904019320295248,0.6280336058760715,-0.5095728046069238,0.004217373855329795,0.08292393,0.33110712,9.74832453,0.003694,0.004465,0.003622
880267.217185,7.015035999938846,-2.175350877864443,-1.1113741504110828,-2.398818484219868,0.018828817073130007,0.008859350050973434,0.6273438879140457,-0.5093853082221282,0.004183301943097534,0.07693983,0.320787,9.77601816,0.004427,0.003517,0.003675
880267.237172,7.035022999974899,-2.174850726769707,-1.1109049716679804,-2.398605169592473,0.01884525279642484,0.008791891721862257,0.6266558756819999,-0.5091957467420339,0.004106734232114228,0.0782838,0.31644117,9.7841016,0.003159,0.001646,0.002955
880267.257157,7.055007999995723,-2.174355304134017,-1.1104394729608866,-2.398384583795464,0.018856408677622227,0.00872151976241813,0.6259697912372815,-0.5090041922454408,0.004078001739889394,0.07858791,0.31330197,9.780815250000002,0.003345,0.003518,0.003649
880267.277143,7.074994000024162,-2.173863696212156,-1.1099813970417354,-2.3981585269399943,0.018826998429837205,0.008784994463191984,0.6252835226447561,-0.5088150270028242,0.00399545976375031,0.07813665,0.32318064,9.76883724,0.003053,-1.6e-05,0.00275
880267.297129,7.094979999936186,-2.173374131434386,-1.1095279899958714,-2.3979489931841966,0.018698505093586976,0.008852976206565848,0.6245995617608769,-0.5086298889650132,0.0038853917709052855,0.06930765,0.32856633,9.76584519,0.003785,0.002992,0.00222
880267.297129,7.094979999936186,-2.172931431185236,-1.1090972460812534,-2.3977187211567297,0.01315378889277241,0.006239614684694902,0.6243065679666128,-0.50856572708978,0.0037878541471225787,0.06930765,0.32856633,9.76584519,0.003785,0.002992,0.00222
880267.337101,7.1349519999930635,-2.1725965686436393,-1.1087295831814605,-2.397506191997154,0.021130905806207207,0.010341138026382264,0.6233087085560052,-0.508295754261019,0.0038244891376267623,0.0663156,0.33829785,9.7957755,0.002087,0.001195,0.004382
880267.357087,7.154938000021502,-2.172178263903766,-1.1083122837227604,-2.3972941107839345,0.019286039724158224,0.009332985107155545,0.622550199597354,-0.5080934618750494,0.0037569432228711417,0.07424208,0.32557428,9.77632227,0.003288,0.00212,0.002743
880267.377073,7.174923999933526,-2.1717419787523604,-1.1078875656257967,-2.397099382929398,0.01880761542347387,0.009010675660944528,0.6218485333062614,-0.5079042790135925,0.003814788363818569,0.07559586,0.32332779,9.78859458,0.001546,0.001972,0.004695
880267.397059,7.194909999961965,-2.171295705215752,-1.1074618641022476,-2.396902947434262,0.018676015238153734,0.008950623149910299,0.6211617750452052,-0.5077197308827738,0.00379427766474872,0.07663572,0.32796792,9.77781339,0.003368,0.003252,0.003489
880267.417045,7.214895999990404,-2.1708460814231896,-1.1070365099494666,-2.3966900334752945,0.018659983778996518,0.008948195240186276,0.6204787042605172,-0.5075366499615803,0.0038005161097201755,0.0791863199999999,0.32871348,9.79368597,0.003388,0.002572,0.003901
880267.437031,7.2348820000188425,-2.170396526908803,-1.1066104442280824,-2.3965208956844593,0.01866841757277121,0.008881593397721802,0.6197987183912324,-0.5073505756861134,0.003845356149345194,0.07903917,0.32227812,9.76764042,0.003007,9e-06,0.004531
880267.477003,7.274853999959305,-2.170145499270109,-1.1062760592933663,-2.3963227665049445,0.02243883339738275,0.010580333799115767,0.6186362908654247,-0.5070108937505444,0.0038916353979230956,0.07603731,0.3198844799999999,9.76764042,0.002591,0.000316,0.00456
880267.477003,7.274853999959305,-2.1698555576951897,-1.1059302147501178,-2.3961584188767264,0.014737787836010202,0.006956433968792141,0.6182598612687064,-0.506917630529592,0.003932378092614851,0.07603731,0.3198844799999999,9.76764042,0.002591,0.000316,0.00456
880267.516975,7.314826000016183,-2.169619497719515,-1.1056122603652543,-2.395970592636981,0.021581983446916697,0.010238199532470177,0.6172226051673434,-0.506619943973098,0.0038983824771713005,0.07589016,0.32437746,9.77901021,0.00277,0.001483,0.003414
880267.536961,7.334811999928206,-2.169268072443424,-1.105241008137172,-2.395818109979147,0.019317290880146575,0.009195151728655667,0.6164650064995719,-0.5064086643131961,0.003941076006224259,0.06885639,0.32437746,9.7894971,0.003335,0.000563,0.004565
880267.556947,7.354797999956645,-2.168883776713649,-1.1048514478822626,-2.395669032588109,0.018826443597639214,0.008837513456008087,0.6157695010788286,-0.5062125616627353,0.0038895523370764897,0.08248248,0.31494024,9.78589683,0.00431,0.000638,0.003141
880267.556947,7.354797999956645,-2.168511347597613,-1.1044726389205415,-2.3955129477465182,0.013193166522312314,0.006195555457338651,0.6154760762636542,-0.5061433843637713,0.003844111436514788,0.08248248,0.31494024,9.78589683,0.00431,0.000638,0.003141
880267.596919,7.394770000013523,-2.1682340575789647,-1.1041463561232019,-2.3954075336114404,0.020838547985929115,0.009981588785374876,0.614504628346671,-0.5058680393749188,0.0036861219546658634,0.05703534,0.32512302,9.77197644,0.004931,0.002519,0.00138
880267.616905,7.414755999925546,-2.1678713163823145,-1.1037789406714764,-2.3952487932327275,0.0190784386297179,0.009227196689522706,0.6137605436460439,-0.5056652718426766,0.0037000334422255424,0.0805302899999999,0.33514884,9.78021684,0.00371,0.000594,0.003909
880267.636891,7.434741999953985,-2.1674788465586428,-1.1033968972114367,-2.3950569754553146,0.018440489132038176,0.008908377278423633,0.6130758424313819,-0.5054812016286389,0.003637138050363759,0.06047865,0.32497587,9.763893,0.003537,0.00242,0.002713
880267.656877,7.454727999982424,-2.167334653350824,-1.103015732088624,-2.3948961652269176,0.018380361217272257,0.008854870653850098,0.612412828080154,-0.5053073980817855,0.003693091269933093,0.07679268,0.3267711,9.77946147,0.004936,0.002088,0.004528
880267.676863,7.474714000010863,-2.1671815170052526,-1.1026326847494359,-2.394765037478311,0.018346765035215335,0.0088277986390617,0.611754714676298,-0.505133744049926,0.0036901485104285556,0.07364367,0.32617269,9.79173378,0.002293,0.000714,0.00365
880267.696849,7.494700000039302,-2.167023958619192,-1.1022517274391868,-2.394636079569868,0.01830307641544697,0.008865149656865546,0.6110981527686218,-0.5049620696911368,0.0036899112891672567,0.07199559,0.33126408,9.78170796,0.003647,0.004407,0.00369
880267.716835,7.514685999951325,-2.166867457246063,-1.1018675890691145,-2.3945170213135705,0.018351640790265192,0.00870917153160474,0.6104446835485746,-0.504785470101311,0.0035988474670106173,0.07529175,0.31374342,9.77677353,0.001913,0.002202,0.002237
880267.736821,7.534671999979764,-2.1667063254832857,-1.1014910510947988,-2.394402904374702,0.018207994083515498,0.008786477614717616,0.6097935928662712,-0.5046135500977342,0.0035984682060698774,0.063765,0.33200964,9.77901021,0.002981,-0.000122,0.003596
880267.756807,7.554658000008203,-2.1665469706031906,-1.1011148973127436,-2.394249711926108,0.018135762350108005,0.008746097638160099,0.6091453649522398,-0.5044431011946127,0.003684694343225835,0.06316659,0.32452461,9.78889869,0.002626,0.000581,0.004988
880267.776793,7.574644000036642,-2.166395249616651,-1.1007434612666205,-2.3940973907503147,0.01831253667084328,0.008778491086174855,0.6084927492996112,-0.5042696769651431,0.003664194584819492,0.08457201,0.32497587,9.780658290000002,0.002538,-0.001612,0.003359
880267.796779,7.5946299999486655,-2.1662392178454075,-1.1003744599815881,-2.3939584876500617,0.018226590885382296,0.008783725414118378,0.6078426582230971,-0.5040979436750892,0.0035961472604585892,0.06856209,0.32766381,9.75685923,0.00182,0.003521,0.002571
880267.816765,7.614615999977104,-2.1660863734121567,-1.100009454838145,-2.3938403713814127,0.01821781612139256,0.00882852953159229,0.6071925067147909,-0.5039268283846677,0.0035378995051061806,0.07349652,0.33081282,9.75776175,0.003797,0.000365,0.002659
880267.836751,7.634602000005543,-2.16593618611897,-1.099645714930358,-2.3936877116505477,0.01824954159022461,0.008790612191904048,0.6065427880416674,-0.5037546601314907,0.0036353711143169353,0.07619427,0.32452461,9.79787484,0.004761,0.002336,0.005118
880267.856737,7.654588000033982,-2.1657856654246195,-1.0992843386918818,-2.3935223030193846,0.018201239705463206,0.008734201002936764,0.6058958032636992,-0.5035826837007394,0.003643589559395995,0.07020036,0.32258223,9.77617512,0.003686,0.001235,0.003773
880267.876723,7.674573999946006,-2.165637494416059,-1.0989328080168532,-2.3933815742795677,0.018186691219562578,0.008953823469111473,0.6052451195362374,-0.5034154160593397,0.003717684026301158,0.07708698,0.34518447,9.780962400000002,0.003844,0.000797,0.004848
880267.896709,7.6945599999744445,-2.1654915993557826,-1.0985733031473168,-2.3932906577394952,0.01819358891067497,0.008723117151242675,0.604600253229228,-0.5032411702729989,0.0037274727044819328,0.07184844,0.31330197,9.78725061,0.0026,0.001442,0.003879
880267.916695,7.714546000002883,-2.1653480802189984,-1.0982233247859001,-2.3931571567241012,0.01822923229638797,0.008787189302685308,0.6039533335565456,-0.5030687171261538,0.003775029301998566,0.07933347,0.32976315,9.75731049,0.001398,0.001378,0.004503
880267.936681,7.734532000031322,-2.165205065325557,-1.097881032127838,-2.393050961332338,0.01821065238743842,0.00901908666858755,0.603302525418305,-0.502901400919741,0.003839066713870216,0.08067744,0.34862778,9.75147354,0.003856,0.003449,0.004818
880267.956667,7.754517999943346,-2.1650644382725046,-1.097534310689398,-2.3929809917867395,0.018223011106199272,0.008927140175613003,0.6026541660502831,-0.5027309275686808,0.003747369171357347,0.07888221,0.32856633,9.78560253,0.004365,0.001878,0.002351
880267.976653,7.774503999971785,-2.1649210151102913,-1.0971916331545757,-2.3928805079063062,0.018074102135407617,0.008900076781566546,0.6020101968973217,-0.5025636465807993,0.0037611954979229175,0.06586434,0.33395202,9.77512545,0.004149,0.002635,0.003975
880267.996639,7.7944900000002235,-2.1647831404743663,-1.0968551427005682,-2.3928038314046036,0.018108064330472292,0.009010758790739445,0.6013637024845162,-0.5023976647099889,0.0037421755033876045,0.07948062,0.34308513,9.76913154,0.005137,0.004551,0.003454
880268.036611,7.834461999940686,-2.164834771050405,-1.096599407347768,-2.392755124459391,0.021732138881977243,0.01056070148378349,0.6002587894565437,-0.5020855364748281,0.003641397088039735,0.0694548,0.32318064,9.80895033,0.003152,0.001596,0.002193
880268.036611,7.834461999940686,-2.1648504801256996,-1.0963386764867002,-2.392653390019782,0.014266418662849636,0.006939167644300471,0.5999068583927105,-0.5020029955120687,0.0035526632840210456,0.0694548,0.32318064,9.80895033,0.003152,0.001596,0.002193
880268.076583,7.874433999997564,-2.164920341099442,-1.0961155857263776,-2.3925297023321908,0.021010609564059105,0.010476532596356801,0.5989108198128608,-0.5017350385870726,0.00364133375180138,0.07978473,0.34368354,9.77677353,0.004566,0.001984,0.004926
880268.096569,7.8944200000260025,-2.16487601652733,-1.0958236459312616,-2.3924161232527754,0.01890193724306677,0.009200205830286082,0.5981876235063662,-0.5015404518242333,0.0036081991048552958,0.07484049,0.31778514,9.80670384,0.001831,-0.00019,0.003129
880268.116555,7.914405999938026,-2.1647931387153134,-1.095519385840555,-2.3923109881337723,0.018361319685766587,0.008920261135136316,0.5975242208668388,-0.501363071259603,0.00361739257866483,0.08143281,0.32946885,9.77632227,0.002627,0.000807,0.003755
880268.136541,7.934391999966465,-2.164688112989275,-1.0952085729220293,-2.3922280816518584,0.01820037327239207,0.008914280352064673,0.5968760038407791,-0.501191795762624,0.003593435031352647,0.08203122,0.33664977,9.78919299,0.002507,0.001993,0.003243
880268.156527,7.954377999994904,-2.164570387468579,-1.0948937692189171,-2.3921276211482767,0.01811462961589642,0.008932140655321356,0.5962327397621711,-0.5010241530842455,0.0035890496224766986,0.07903917,0.3376994400000001,9.79457868,0.002408,-0.000565,0.003527
880268.156527,7.954377999994904,-2.1644845182245005,-1.0945964381390352,-2.3920304463542257,0.012736535845005378,0.0062894463229203924,0.5959621615023908,-0.5009679025823384,0.003585182656382352,0.07903917,0.3376994400000001,9.79457868,0.002408,-0.000565,0.003527
880268.196499,7.994349999935366,-2.164503461146144,-1.094339972073672,-2.391976977341526,0.020589541984880576,0.009886437779058788,0.5950333214632356,-0.5007023530988848,0.0036120403997289903,0.07289811,0.3204828899999999,9.78993855,0.002697,-0.000308,0.00401
880268.216485,8.014335999963805,-2.166433153068998,-1.0867710171458627,-2.3920511367197625,0.01854057112076132,0.00932907293398296,0.5940731015858675,-0.5010381000061433,0.003722543564148372,0.06706116,0.33155838,9.780658290000002,0.00136,-0.000149,0.005363
880268.216485,8.014335999963805,-2.16836092725218,-1.0792754631168588,-2.392156610674113,0.01280619972096986,0.00666833045954995,0.5935331974403452,-0.5015050944280199,0.0038202116229482646,0.06706116,0.33155838,9.780658290000002,0.00136,-0.000149,0.005363
880268.256457,8.054308000020683,-2.1703767074114517,-1.071866755268754,-2.392168081642957,0.020333122613043264,0.01077810683822231,0.5923304341585561,-0.5017889015541378,0.0038384382277104226,0.07349652,0.34607718,9.76584519,0.001606,-0.001017,0.004111
880268.276443,8.074293999932706,-2.172281108620498,-1.0644549208481915,-2.392195680838948,0.018486112925002636,0.009727488040269041,0.5913626794266341,-0.5021347638244346,0.003937625387619903,0.07663572,0.32662395,9.77197644,0.003352,0.001689,0.005414
880268.29643,8.09428099996876,-2.174144548145848,-1.0570800153649735,-2.3922312790895264,0.017955243403002592,0.00933730672503269,0.5904530134231144,-0.5024920989932283,0.003932161543419377,0.0722997,0.32272938,9.78485697,0.003133,-6.8e-05,0.003853
880268.316416,8.114266999997199,-2.175981013621364,-1.0497494755493593,-2.392272189041088,0.017848717457943083,0.009190538427714015,0.5895598939958954,-0.5028491244325705,0.004001871426084749,0.07708698,0.32332779,9.75970413,0.002319,0.001793,0.005047
880268.336402,8.134253000025637,-2.177793515432897,-1.0424657324761533,-2.3922974409060918,0.017747517714687352,0.009111564260142865,0.5886746813879217,-0.5032059664139051,0.003988222024966671,0.06990606,0.32467176,9.76809168,0.00254,0.001984,0.003786
880268.356388,8.154238999937661,-2.179589401619003,-1.035233825553101,-2.3923585212347973,0.01770659908092212,0.009200098593460633,0.5877909605727252,-0.5035630715707939,0.003953199772529116,0.07334937,0.33724818,9.75955698,0.002689,-0.000438,0.003428
880268.376374,8.1742249999661,-2.1813714853261685,-1.0280475810128418,-2.3923909361410542,0.017714344959793318,0.009140619653387857,0.5869097687721567,-0.5039174092032355,0.003887286471360492,0.07409493,0.32782077,9.78365034,0.003854,0.002963,0.002896
880268.39636,8.194210999994539,-2.1831400878560623,-1.0209109195206922,-2.392431707108889,0.017707141444786433,0.009121409870192065,0.5860308278605415,-0.5042689074266612,0.003929736613238382,0.07380063,0.33021441,9.75716334,0.00268,0.002779,0.004573
880268.416346,8.214197000022978,-2.1848950359691126,-1.0138245300154451,-2.3924629442324883,0.0176536179814881,0.009157190393000095,0.5851537623683133,-0.5046205174262227,0.00398676930644837,0.07079877,0.33634566,9.76508982,0.004862,0.001391,0.004852
880268.436332,8.234182999935001,-2.1866405161701143,-1.0067857053565263,-2.3925387603476027,0.017696334462899158,0.009153650423348057,0.5842775124252078,-0.504968221676895,0.0038574498397761386,0.07739109,0.33365772,9.780815250000002,0.003988,0.001135,0.001899
880268.456318,8.25416899996344,-2.188372844069895,-0.9997933496024565,-2.392598615582857,0.017666933105636766,0.009086885539176913,0.5834047403363923,-0.5053132148572401,0.0037829454168820343,0.07184844,0.32976315,9.77287896,0.000786,0.000304,0.002654
880268.476304,8.274154999991879,-2.1900940262680226,-0.9928502936401957,-2.392603539540914,0.01765292420247761,0.009087929855780113,0.582533368220745,-0.5056575915789755,0.003864294006622518,0.07334937,0.33395202,9.74757897,0.003645,0.001605,0.005103
880268.49629,8.294141000020318,-2.1918096362708557,-0.9859510180303331,-2.392655672060309,0.017839126311574978,0.008970125483470932,0.5816620569426504,-0.5059920279445617,0.0038741078791446706,0.08906499,0.32003163,9.80820477,0.002308,-0.000112,0.004025
880268.516276,8.314126999932341,-2.1935039187470715,-0.9790994422076305,-2.392658839276442,0.017599435776967074,0.008909252535738037,0.5807985824084667,-0.5063294099650602,0.003906285618654939,0.05883057,0.32811507,9.77392863,0.002385,0.002048,0.004399
880268.536262,8.33411299996078,-2.1951931395531643,-0.9722972269643905,-2.3926907278653236,0.017630805052970842,0.008984634904250265,0.5799343990587621,-0.5066651911357313,0.0038976333188478246,0.07619427,0.33545295,9.74159487,0.005356,0.001353,0.003768
880268.556248,8.354098999989219,-2.196874507071936,-0.9655358175034788,-2.3927092203986713,0.017758013324633466,0.008853434816738004,0.5790714553974824,-0.5069934417849994,0.003918619023130731,0.08322804,0.31838355,9.80461431,0.002286,0.000962,0.004241
880268.576234,8.374085000017658,-2.1985436407890098,-0.9588216232523219,-2.3927031119586126,0.017793099517071215,0.008820051433782918,0.5782095789327337,-0.5073189869121404,0.0038590745374050936,0.08157996,0.32318064,9.7781175,0.004385,0.001871,0.002954
880268.576234,8.374085000017658,-2.2002363589050886,-0.9521883573260765,-2.392679999934407,0.012475991265251894,0.006358847831016049,0.5777052799126415,-0.507756752503806,0.003806272355087925,0.08157996,0.32318064,9.7781175,0.004385,0.001871,0.002954
880268.616206,8.41405699995812,-2.2020323835262547,-0.9456207076412741,-2.3926130973529682,0.020391775035670873,0.01005397150694165,0.5765543910712486,-0.507988186068523,0.0039452392357664815,0.08352234,0.32796792,9.81344331,0.004054,0.000734,0.00605
880268.636192,8.43404299998656,-2.203721666071849,-0.9390608398253937,-2.392606932723631,0.01850529821602448,0.009142667473949454,0.5756251212448095,-0.508287513232001,0.004075420416875729,0.07963758,0.32287653,9.79952292,0.004054,0.000734,0.00605
880268.676164,8.474014999927022,-2.2055628407343084,-0.9325976154681179,-2.392666070048003,0.021278452332120577,0.0105824313079473,0.574308788866399,-0.508467849875177,0.0038991226560741643,0.06526593,0.32841918,9.7724277,0.004746,0.000315,0.001381
880268.69615,8.49400099995546,-2.207317688942151,-0.9261443727502123,-2.3926756726193217,0.01876039337737255,0.009315566697242756,0.5733472206779527,-0.5087582420325328,0.003964390751950705,0.0928026,0.32318064,9.8040159,-0.000365,-7.7e-05,0.004908
880268.716136,8.5139869999839,-2.208989851971926,-0.919707183730126,-2.3926923070068122,0.017789198196650986,0.009047740969301773,0.5724661201355234,-0.5090793135556713,0.0041264937168508774,0.06211692,0.34024023,9.74398851,0.00529,0.003533,0.006483
880268.716136,8.5139869999839,-2.2106503089166667,-0.9133283511008937,-2.3927485623326086,0.012387663163314237,0.00650394394878857,0.5719592893923783,-0.509515204031032,0.0042693881541199345,0.06211692,0.34024023,9.74398851,0.00529,0.003533,0.006483
880268.756108,8.553958999924362,-2.2124164733814626,-0.9069952589580941,-2.392730095465505,0.02022146444266392,0.009791203060105358,0.5708223024471745,-0.5097413228259151,0.004278408904177553,0.07888221,0.31689243,9.81045126,0.001492,0.000986,0.004413
880268.776094,8.5739449999528,-2.2140550797871525,-0.9006752025204687,-2.3927534508721444,0.01821736580911278,0.008989372747053472,0.5699061631285224,-0.5100415910384217,0.004230687970583107,0.06526593,0.33021441,9.76300029,0.004246,0.000308,0.003534
880268.79608,8.59393099998124,-2.215661926701207,-0.8943851009074034,-2.3927742945691874,0.017788671045830224,0.008858862459330463,0.5690372996029428,-0.5103576013001646,0.004292885512723499,0.08248248,0.33574725,9.75880161,0.003189,0.001716,0.005211
880268.816066,8.613917000009678,-2.2172448772889997,-0.8881179269499354,-2.3927861511503865,0.017775806221631576,0.00851264460206869,0.568186188699264,-0.5106675089548512,0.0043288229758363895,0.08412075,0.30476727,9.78455286,0.0038,0.001085,0.004863
880268.836052,8.633903000038117,-2.2188028756814666,-0.8818920110982044,-2.392823176650422,0.017615457441292726,0.008484099554595483,0.567343165579303,-0.5109790504589807,0.004209651635952489,0.07035732,0.32272938,9.76778757,0.001639,-0.000375,0.002441
880268.836052,8.633903000038117,-2.2203817865108726,-0.8757375169004922,-2.392825843130143,0.012342919737022569,0.006117597048321208,0.5668487912733797,-0.5114045732455894,0.0041043041550075255,0.07035732,0.32272938,9.76778757,0.001639,-0.000375,0.002441
880268.876024,8.67387499997858,-2.2220609368584867,-0.8696386045544172,-2.3928542763851595,0.020113015114238103,0.009562631019885583,0.5657306434796009,-0.5116203319683851,0.004119529485570506,0.0754389,0.32033574,9.80236782,0.00244,-0.001241,0.004347
880268.89601,8.693861000007018,-2.223632040655161,-0.8635509990413172,-2.392859489741743,0.01817101820034762,0.008841230803403868,0.5648251751722038,-0.5119117091076851,0.0041681487362678704,0.06825798,0.3324609,9.77587101,0.002948,0.001078,0.004894
880268.915996,8.713847000035457,-2.2251754802386525,-0.8574920438528031,-2.3928898349589933,0.01770860978331028,0.008704502128685272,0.5639673282651289,-0.5122187577269337,0.004202422788967659,0.07903917,0.33500169,9.77422293,0.004703,0.002369,0.004716
880268.935982,8.73383299994748,-2.2266965556035307,-0.851459849516348,-2.392893959537943,0.01761219119769235,0.008516261058090585,0.5631253883034854,-0.5125256144174295,0.0042064878549111385,0.0782838,0.32003163,9.81898596,0.00251,-0.000136,0.00427
880268.955968,8.75381899997592,-2.228197647358829,-0.8454639155118309,-2.3929301490813355,0.0174954070811682,0.008485817921043885,0.5622906723225356,-0.5128326346364913,0.004220708767093266,0.07079877,0.32827203,9.78395445,0.003665,0.002044,0.004436
880268.975954,8.773805000004359,-2.229686192248214,-0.8395060078806851,-2.392982274991951,0.017457889034534452,0.008561973858970806,0.5614572255679391,-0.513140486737962,0.0041696207691053234,0.07454619,0.33695388,9.77377167,0.002562,0.001581,0.003402
880268.99594,8.793791000032797,-2.231163008327108,-0.8335810693283927,-2.393013745748496,0.017419326761559783,0.008498364126126918,0.5606273561171465,-0.5134463829097601,0.004207829100126883,0.07095573,0.32871348,9.82661814,0.002905,0.000655,0.004786
880269.015926,8.813776999944821,-2.2326307055267796,-0.8276929839772416,-2.393055776017576,0.017425287767733298,0.008468317644167977,0.5597993199424613,-0.5137497449055657,0.004106077440163497,0.07394778,0.32931189,9.77797035,0.003321,0.001616,0.00257
880269.035912,8.83376299997326,-2.234087174110327,-0.8218419453901344,-2.393030444497295,0.017364440696471164,0.008461680260259976,0.5589736717150184,-0.5140538287517019,0.004198696335033656,0.06885639,0.33231375,9.76464837,0.003519,0.000233,0.005604
880269.055899,8.853750000009313,-2.2355417475830626,-0.8160256148406213,-2.393014369805386,0.01757537704705399,0.008403626291765482,0.5581458224141382,-0.5143502418828598,0.0042288479607746916,0.09040896,0.32302368,9.7926363,0.004909,0.001529,0.004689
880269.075885,8.873736000037752,-2.2369827336928796,-0.8102424923797408,-2.393021244147469,0.017544992491128373,0.008266687691278092,0.5573230327195013,-0.514641788340712,0.004273210170691732,0.07574301,0.31718673,9.79233219,0.001986,-0.001523,0.004949
880269.095871,8.893721999949776,-2.238411957865381,-0.8045008345018345,-2.3930286878205442,0.017402118707320693,0.008380753934084429,0.5565022196356081,-0.5149375380701077,0.004167769304692344,0.06870924,0.33755229,9.75865446,0.002988,0.001158,0.002568
880269.115857,8.913707999978215,-2.2398369714292232,-0.7987922446854524,-2.393044351793047,0.01744552865070913,0.008387732429129604,0.5556817090914368,-0.5152303352517971,0.004199048274040966,0.07903917,0.33095997,9.78156081,0.00472,0.00106,0.004677
880269.135843,8.933694000006653,-2.241251637937714,-0.7931148719040124,-2.3930379644470774,0.01740114848890285,0.00824969385200381,0.5548661673629144,-0.515519780622942,0.004214161384402775,0.07050447,0.32018859,9.78500412,0.002217,-0.00118,0.004447
880269.155829,8.953680000035092,-2.2426572334618293,-0.7874761945313676,-2.393028442543851,0.017333126897751974,0.008298782522362576,0.5540523742361699,-0.5158100668743597,0.004285055928375139,0.06960195,0.33305931,9.76793472,0.00527,0.000747,0.005368
880269.175815,8.973665999947116,-2.244056093924259,-0.7818687096338157,-2.3930160218794163,0.01733137367463249,0.008218331065711794,0.5532414977119157,-0.5160970312868677,0.004308819398168062,0.07110288,0.32332779,9.7897914,0.00139,-0.001198,0.004674
880269.195801,8.993651999975555,-2.2454459881192217,-0.7762951654617067,-2.393017964539867,0.017291575221009537,0.008159837621776475,0.5524340731477156,-0.516381512291136,0.004309970045479223,0.06780672,0.32347494,9.77751909,0.002841,0.000449,0.00433
880269.215787,9.013638000003994,-2.2468289176849003,-0.7707584805794602,-2.393050506164482,0.017292935981942356,0.008240501368814357,0.5516263709348215,-0.5166654698317086,0.004279250137770751,0.07275096,0.33395202,9.79038981,0.002814,-0.000721,0.003812
880269.235773,9.033624000032432,-2.2482027474724733,-0.7652538836755483,-2.3930454194334647,0.017250235744316025,0.008245058493407035,0.5508204106255224,-0.5169498186129834,0.004211833922750295,0.06856209,0.33200964,9.77737194,0.003257,1.1e-05,0.003185
880269.255759,9.053609999944456,-2.2495736985868953,-0.759782866481918,-2.3930511512363197,0.017395375214178537,0.008270969467588722,0.5500120002410681,-0.5172297181033539,0.004197509774839554,0.08487612,0.33141123,9.77392863,0.004016,0.001442,0.003981
880269.275745,9.073595999972895,-2.2509305910817496,-0.7543419174552587,-2.393080250173075,0.017265210579312528,0.008196115232129167,0.5492094304587225,-0.5175085158671372,0.00415456859971371,0.06466752,0.32841918,9.78500412,0.002789,0.001735,0.0035
880269.315717,9.113568000029773,-2.252469210404095,-0.7489846921569008,-2.393026928087504,0.02078468359796494,0.009582045902254513,0.547995291757361,-0.5176404533515864,0.004149538351716908,0.06825798,0.3179421,9.79323471,0.002997,0.001293,0.004081
880269.335703,9.133553999941796,-2.2539261308958034,-0.7436451291490401,-2.3930329025916968,0.01822601510244663,0.008539512997332677,0.5471016123072514,-0.5178851700960393,0.004128471344589702,0.07439904,0.32871348,9.80311338,0.003337,0.00179,0.003825
880269.355689,9.153539999970235,-2.2553278943644144,-0.7383171537560524,-2.392992301805704,0.017619675762066005,0.008352498658261263,0.546272136810295,-0.5181550622820112,0.004153267976641103,0.0836793,0.33590421,9.77287896,0.003929,0.002708,0.004519
880269.355689,9.153539999970235,-2.2567206219345626,-0.7330365655127253,-2.3929588918797093,0.012287682445741695,0.006000236975073773,0.5457972367986252,-0.5185439056032028,0.004175145923462319,0.0836793,0.33590421,9.77287896,0.003929,0.002708,0.004519
880269.395661,9.193512000027113,-2.2582122289253554,-0.7277951096300179,-2.392931542731397,0.019896280039778294,0.009146680834825298,0.5447254285548556,-0.5187213524980194,0.00426043521868049,0.07753824,0.32198382,9.79533405,0.004589,0.000879,0.00551
880269.415647,9.213497999939136,-2.2595853197560953,-0.7225579717370361,-2.3929510988276372,0.0178693246293074,0.008455799678630438,0.5438630002000141,-0.5189766096746975,0.004344343147534843,0.06196977,0.33934752,9.7667379,0.002544,-0.000549,0.00558
880269.435633,9.233483999967575,-2.2609322686781423,-0.7173376370819424,-2.392953701380444,0.017476896609939563,0.008239086829685667,0.5430464680289885,-0.5192456799907152,0.004285479525113413,0.08172711,0.33110712,9.78230637,0.003368,-0.001189,0.003418
880269.435633,9.233483999967575,-2.262285024374709,-0.7121717144043616,-2.392939799042983,0.01220975220281236,0.00591672000075211,0.542576249549658,-0.5196311967510264,0.004233479983436817,0.08172711,0.33110712,9.78230637,0.003368,-0.001189,0.003418
880269.475605,9.273456000024453,-2.263730218153285,-0.7070514523227315,-2.3930016604874744,0.019656053242001398,0.009221767169427311,0.5415134469772452,-0.519814617537793,0.004194662819935534,0.07005321,0.33320646,9.77182929,0.002401,0.000167,0.003623
880269.495591,9.293441999936476,-2.2650767522417055,-0.7019274550066303,-2.393024396841923,0.017942626824175512,0.008384071543422602,0.5406535186860928,-0.5200644623622143,0.004054815633668814,0.08023599,0.32766381,9.76704201,0.0042,-0.000224,0.001984
880269.515577,9.313427999964915,-2.266388392558857,-0.6968178774488925,-2.3930343105700844,0.01738605192466748,0.007989548936123777,0.5398470201225753,-0.520326879604258,0.004103062400787776,0.06751242,0.31749084,9.79473564,0.003416,-0.000754,0.004823
880269.535564,9.333415000000969,-2.2676793368869803,-0.6917343866265298,-2.393010228267108,0.01723847948003672,0.007901757878141515,0.5390546814516576,-0.5205930115852844,0.004139214946520348,0.07184844,0.32452461,9.77541975,0.002898,0.000571,0.004682
880269.55555,9.353401000029407,-2.2689511995450733,-0.6866777954969392,-2.3930166615707438,0.017060554913582094,0.00791703561377827,0.538269489016469,-0.5208623354627063,0.00397752327281976,0.06122421,0.33260805,9.76718916,0.003906,-0.000223,0.001558
880269.575536,9.373386999941431,-2.2702168139654213,-0.6816451510765434,-2.3929976472449694,0.017142644139840253,0.007826872689227387,0.5374861071763325,-0.5211268079208238,0.0041146603189840154,0.07484049,0.320787,9.77572386,0.003445,0.000443,0.006177
880269.595522,9.39337299996987,-2.27147399938877,-0.6766443415161986,-2.392984916524565,0.017243044193045003,0.00791543169264525,0.5366999606305665,-0.5213898739791752,0.0041350095179887554,0.08308089,0.3327552,9.80162226,0.00372,0.002172,0.004444
880269.615508,9.413358999998309,-2.2727196942431656,-0.6716692580072225,-2.3929667889945425,0.01719621509917678,0.007897870755295303,0.5359163064379113,-0.5216523279611466,0.004080127942339322,0.07304526,0.329616,9.79113537,0.002148,-0.001278,0.003255
880269.635494,9.433345000026748,-2.2739582989038385,-0.6667256972316705,-2.3929655286652203,0.01717099700830259,0.008022881836012397,0.5351319912371567,-0.521916003777586,0.004157425707283682,0.07634142,0.34263387,9.80760636,0.004407,0.001526,0.005328
880269.65548,9.453330999938771,-2.275189883703875,-0.6618051697891363,-2.392958322718125,0.01715273207462432,0.00793349632271216,0.5343509685531646,-0.5221768483936984,0.004156316862827367,0.07320222,0.32916474,9.77587101,0.004555,0.000479,0.004142
880269.675465,9.473315999959596,-2.276417325533311,-0.6569105947446434,-2.392941518145468,0.017235225678282312,0.007800299595820507,0.5335719825646946,-0.5224316548075996,0.004197589161685797,0.08038314,0.32018859,9.80385894,0.000901,-0.001648,0.004826
880269.695451,9.493301999988034,-2.277636584624101,-0.6520487785231817,-2.3929273503641326,0.017237053023416046,0.007896236962980441,0.532792101921857,-0.5226870831334948,0.004226006435041005,0.0805302899999999,0.33695388,9.7755669,0.004426,0.001097,0.00466
880269.715437,9.513288000016473,-2.278850960855359,-0.6472138397082258,-2.392963430587592,0.017291326383885,0.007962745524724188,0.5320112190203943,-0.5229401088117122,0.004317182545585005,0.08622009,0.33799374,9.78335604,0.002199,0.000903,0.005704
880269.735423,9.533273999928497,-2.2800570920246184,-0.6423988530789658,-2.393008307908247,0.017263158721523692,0.007747524314048688,0.5312365070550696,-0.5231874325691988,0.004297123698482755,0.07634142,0.31703958,9.80266212,0.004159,0.000373,0.003993
880269.755409,9.553259999956936,-2.281256091884633,-0.6376157004106335,-2.393009552093994,0.01721691261058323,0.007763105741962787,0.5304632072153376,-0.5234357846219501,0.004231896317807918,0.07679268,0.33021441,9.75236625,0.001935,0.0003,0.003241
880269.775395,9.573245999985375,-2.28245017003804,-0.6328567830043866,-2.3930001575420063,0.017232158503108923,0.00768563522608886,0.5296922515036514,-0.5236807293516147,0.004268583035607381,0.0791863199999999,0.32227812,9.78275763,0.004408,0.001961,0.00483
880269.795381,9.593232000013813,-2.2836372096252133,-0.6281260618251745,-2.3930216939906233,0.017209971291686364,0.007700382097443847,0.5289227886957221,-0.5239244104993751,0.004261739919977971,0.07813665,0.32871348,9.78889869,0.004168,-0.000431,0.004159
880269.815367,9.613217999925837,-2.2848177808937034,-0.6234224825029815,-2.3930387210196815,0.01718154504363595,0.007747757178963417,0.5281540728484044,-0.5241683217062809,0.004331103606015811,0.0779895,0.3333536099999999,9.77646942,0.002927,0.000373,0.005391
880269.835353,9.633203999954276,-2.2859892373206416,-0.6187437081504056,-2.3930027021821907,0.0170550773101439,0.00772860343151937,0.5273890999581103,-0.5244144937464077,0.004299485683409833,0.06751242,0.33215679,9.78305193,0.005153,0.001819,0.00382
880269.855339,9.653189999982715,-2.2871582759658002,-0.6140870070224071,-2.3929974019379707,0.0170924619139573,0.007585111795376234,0.5266275921853666,-0.5246545403406031,0.00428069395946104,0.07484049,0.31854051,9.80610543,0.002567,-0.000124,0.003996
880269.855339,9.653189999982715,-2.2883561819200886,-0.609488657718282,-2.3929863339736754,0.011991591553794556,0.005455210780006912,0.5261847041889428,-0.5250091361488614,0.004264028086164168,0.07484049,0.31854051,9.80610543,0.002567,-0.000124,0.003996
880269.895311,9.693161999923177,-2.289656678750839,-0.6049267406997022,-2.3929895101201155,0.01967623450858306,0.00843028875735975,0.5251688150460152,-0.5251450554869658,0.004272148533356015,0.07978473,0.31584276,9.76749327,0.002883,-0.000773,0.004397
880269.935284,9.73313499998767,-2.291029477410453,-0.6004424691834682,-2.393019273283444,0.020959161146156535,0.009549016061212084,0.5239346826038451,-0.5252252497771014,0.004160292834880132,0.07184844,0.34772526,9.76209777,0.003811,0.000524,0.002564
