timestamp,accel_x,accel_y,accel_z,gyro_x,gyro_y,gyro_z,mag_x,mag_y,mag_z,gps_lat,gps_lon,gps_alt,gps_accuracy,gps_speed,gps_course,pressure,altitude,roll,pitch,yaw
880260.202149,-9.41272443,0.4252635,-3.07535652,0.002747,-0.025133,0.003743,-118.182541,101.019485,-197.879776,60.187674,24.830139,12.674889,11.186872,-1.0,-1.0,100.075363,0.079269,-1.270253,-0.038691,-1.833384
880260.242121,-9.358533990000002,0.30955455000000004,-2.89617687,0.000973,-0.004891,0.002929,-118.113647,100.884369,-198.266541,60.187665,24.830102,12.275963,21.894098,-1.0,-1.0,100.075363,0.079269,-1.270241,-0.038669,-1.83337
880260.262107,-9.41871834,0.36823797,-2.8472249700000005,0.002,-0.004968,0.002434,-118.120819,101.099213,-197.818405,60.187665,24.830102,12.275963,21.894098,-1.0,-1.0,100.075363,0.079269,-1.270252,-0.038661,-1.833356
880260.282092,-9.390122190000001,0.42317397000000007,-2.8548669600000003,0.000555,0.007405,0.006018,-118.090866,100.961319,-197.675339,60.187665,24.830102,12.275963,21.894098,-1.0,-1.0,100.075363,0.079269,-1.270292,-0.038653,-1.833399
880260.282092,-9.390122190000001,0.42317397000000007,-2.8548669600000003,0.000555,0.007405,0.006018,-118.090866,100.961319,-197.675339,60.187665,24.830102,12.275963,21.894098,-1.0,-1.0,100.075363,0.079269,-1.270292,-0.038653,-1.833399
880260.322064,-9.446255010000002,0.36299943,-2.84198643,-0.000543,0.005311,0.004544,-118.157837,101.010269,-197.72525,60.187665,24.830102,12.275963,21.894098,-1.0,-1.0,100.075363,0.079269,-1.270265,-0.038653,-1.833366
880260.362035,-9.370512000000002,0.40445649000000006,-2.8864453500000002,0.001947,-0.002293,0.002443,-118.023239,101.117737,-197.78331,60.187665,24.830102,12.275963,21.894098,-1.0,-1.0,100.075363,0.079269,-1.270236,-0.038673,-1.83336
880260.382021,-9.441320580000001,0.39548034000000004,-2.8620478800000004,0.003913,0.005047,0.00692,-118.023239,101.117737,-197.78331,60.187665,24.830102,12.275963,21.894098,-1.0,-1.0,100.075363,0.079269,-1.27026,-0.038658,-1.833397
880260.402007,-9.369619290000001,0.32557428000000005,-2.88405171,0.006806,-0.004004,0.004733,-117.883667,101.229385,-197.824219,60.187665,24.830102,12.275963,21.894098,-1.0,-1.0,100.075363,0.079269,-1.270231,-0.038666,-1.833357
880260.402007,-9.369619290000001,0.32557428000000005,-2.88405171,0.006806,-0.004004,0.004733,-117.883667,101.229385,-197.824219,60.187665,24.830102,12.275963,21.894098,-1.0,-1.0,100.075363,0.079269,-1.270231,-0.038666,-1.833357
880260.441978,-9.414823770000002,0.40296537000000004,-2.8827077400000003,0.010974,-0.001809,0.005846,-118.169662,100.912048,-197.925217,60.187665,24.830102,12.275963,21.894098,-1.0,-1.0,100.075363,0.079269,-1.270261,-0.038689,-1.833396
880260.461964,-9.36018207,0.33081282000000006,-2.8957256100000004,-0.000742,0.000136,0.00281,-118.031204,101.027786,-198.045181,60.187665,24.830102,12.275963,21.894098,-1.0,-1.0,100.074936,0.113625,-1.270222,-0.038696,-1.833329
880260.48195,-9.41407821,0.38560167000000006,-2.86518708,0.003103,-0.001009,0.004369,-118.021805,100.864502,-198.044525,60.187665,24.830102,12.275963,21.894098,-1.0,-1.0,100.074936,0.113625,-1.270218,-0.038705,-1.833341
880260.48195,-9.41407821,0.38560167000000006,-2.86518708,0.003103,-0.001009,0.004369,-118.021805,100.864502,-198.044525,60.187665,24.830102,12.275963,21.894098,-1.0,-1.0,100.074936,0.113625,-1.270218,-0.038705,-1.833341
880260.521921,-9.35659161,0.36374499000000005,-2.90516283,-0.002382,0.001043,0.0059,-117.937927,100.983414,-198.120087,60.187665,24.830102,12.275963,21.894098,-1.0,-1.0,100.074936,0.113625,-1.270217,-0.038723,-1.833335
880260.541907,-9.42754734,0.36688419000000005,-2.8515708,0.009316,-0.002671,0.005078,-118.063263,100.935806,-198.084808,60.187665,24.830102,12.275963,21.894098,-1.0,-1.0,100.074936,0.113625,-1.270232,-0.038712,-1.833338
880260.561893,-9.3730626,0.36164565000000004,-2.8880934300000005,-0.001936,0.003472,0.004714,-117.965179,101.143753,-198.139511,60.187665,24.830102,12.275963,21.894098,-1.0,-1.0,100.074936,0.113625,-1.270237,-0.038711,-1.83333
880260.581878,-9.37156167,0.39952206,-2.88929025,0.004335,-0.003071,0.005172,-118.158798,100.850861,-197.957886,60.187665,24.830102,12.275963,21.894098,-1.0,-1.0,100.074936,0.113625,-1.270217,-0.038751,-1.833334
880260.601864,-9.4169133,0.38185425,-2.86803198,0.006505,0.00013,0.005059,-118.177216,100.995819,-197.708878,60.187665,24.830102,12.275963,21.894098,-1.0,-1.0,100.074936,0.113625,-1.270252,-0.038737,-1.83336
880260.62185,-9.38368683,0.34353639,-2.88225648,-0.001328,0.001503,0.004819,-118.040512,100.937393,-198.014069,60.187665,24.830102,12.275963,21.894098,-1.0,-1.0,100.074936,0.113625,-1.270228,-0.038752,-1.83334
880260.641836,-9.39970656,0.40026762,-2.87327052,0.009193,-0.006003,0.002547,-117.899826,101.06546,-198.02298,60.187665,24.830102,12.275963,21.894098,-1.0,-1.0,100.074936,0.113625,-1.270224,-0.038773,-1.83334
880260.66182,-9.40074642,0.40296537000000004,-2.86279344,5e-05,0.005334,0.005553,-118.073303,100.735397,-198.36293,60.187665,24.830102,12.275963,21.894098,-1.0,-1.0,100.074936,0.113625,-1.27025,-0.038758,-1.833347
880260.681806,-9.36842247,0.35625996000000004,-2.883159,0.006173,-0.006295,0.004762,-118.256912,100.806564,-198.162354,60.187665,24.830102,12.275963,21.894098,-1.0,-1.0,100.074936,0.113625,-1.270216,-0.038785,-1.833321
880260.701792,-9.41422536,0.38574882000000005,-2.8692288,0.000749,0.001626,0.005119,-118.05455,100.817596,-197.912155,60.187665,24.830102,12.275963,21.894098,-1.0,-1.0,100.074936,0.113625,-1.270246,-0.038775,-1.833307
880260.721778,-9.397312920000001,0.40715424,-2.8886918400000003,0.001799,0.00203,0.004853,-118.003906,101.007217,-197.985291,60.187665,24.830102,12.275963,21.894098,-1.0,-1.0,100.074936,0.113625,-1.270261,-0.038779,-1.833327
880260.741763,-9.37859544,0.36104724000000005,-2.90156256,0.007603,-0.006387,0.002364,-117.997726,100.72583,-197.811508,60.187665,24.830102,12.275963,21.894098,-1.0,-1.0,100.074936,0.113625,-1.270249,-0.038783,-1.833286
880260.761749,-9.41616774,0.38096154000000004,-2.8678848300000004,-0.001515,0.005458,0.005617,-118.17131,101.034576,-197.842987,60.187665,24.830102,12.275963,21.894098,-1.0,-1.0,100.074936,0.113625,-1.270281,-0.03878,-1.833279
880260.781735,-9.38009637,0.36898353,-2.90605554,0.006299,-0.004509,0.003115,-117.988937,100.97171,-197.889816,60.187665,24.830102,12.275963,21.894098,-1.0,-1.0,100.074936,0.113625,-1.270269,-0.038784,-1.833276
880260.801721,-9.38084193,0.37811664000000006,-2.88615105,0.000702,0.000197,0.003649,-118.137634,100.764175,-197.918777,60.187665,24.830102,12.275963,21.894098,-1.0,-1.0,100.074936,0.113625,-1.27028,-0.03878,-1.833255
880260.821706,-9.40987953,0.38020617,-2.8551612600000005,0.003913,0.000588,0.006787,-118.123062,100.749527,-198.450089,60.187665,24.830102,12.275963,21.894098,-1.0,-1.0,100.074936,0.113625,-1.270303,-0.038769,-1.833275
880260.841692,-9.379341,0.35880075000000006,-2.89347912,0.004216,-0.002026,0.002534,-118.477829,100.70343,-198.103333,60.187665,24.830102,12.275963,21.894098,-1.0,-1.0,100.074936,0.113625,-1.270293,-0.038785,-1.83325
880260.861678,-9.39521358,0.38844657000000005,-2.8689345,-0.001811,0.002726,0.003581,-117.967987,100.925232,-197.785248,60.187665,24.830102,12.275963,21.894098,-1.0,-1.0,100.074936,0.113625,-1.270308,-0.038769,-1.833257
880260.881663,-9.390426300000001,0.35730963,-2.8827077400000003,0.004292,0.001038,0.007331,-118.094009,101.010666,-197.910019,60.187665,24.830102,12.275963,21.894098,-1.0,-1.0,100.074936,0.113625,-1.270337,-0.038775,-1.833265
880260.901649,-9.38548206,0.27453285,-2.98688994,-0.005318,0.010569,0.001001,-118.292465,100.713608,-198.100876,60.187665,24.830102,12.275963,21.894098,-1.0,-1.0,100.074936,0.113625,-1.270311,-0.038816,-1.833283
880260.901649,-9.38548206,0.27453285,-2.98688994,-0.005318,0.010569,0.001001,-118.292465,100.713608,-198.100876,60.187665,24.830102,12.275963,21.894098,-1.0,-1.0,100.074936,0.113625,-1.270311,-0.038816,-1.833283
880260.961606,-9.493705980000001,0.74485368,-3.09631068,-0.006574,0.0164,-0.013047,-117.84938,100.767426,-197.633453,60.187665,24.830102,12.275963,21.894098,-1.0,-1.0,100.074936,0.113625,-1.270156,-0.038806,-1.834486
880260.981592,-9.02847654,0.8155053,-3.0942113400000006,0.002303,-0.006622,0.017318,-117.473984,100.571777,-197.863068,60.187665,24.830102,12.275963,21.894098,-1.0,-1.0,100.074936,0.113625,-1.269918,-0.038684,-1.83497
880260.981592,-9.02847654,0.8155053,-3.0942113400000006,0.002303,-0.006622,0.017318,-117.473984,100.571777,-197.863068,60.187665,24.830102,12.275963,21.894098,-1.0,-1.0,100.074936,0.113625,-1.269918,-0.038684,-1.83497
880261.001578,-9.53562411,0.33215679000000004,-3.1448113200000005,0.025558,-0.009367,0.009226,-117.577759,100.520203,-197.788712,60.187665,24.830102,12.275963,21.894098,-1.0,-1.0,100.074936,0.113625,-1.26986,-0.038661,-1.834931
880261.041549,-9.27725814,0.08427771,-2.75277429,-0.021919,-0.026165,0.004335,-117.794052,100.635193,-197.815018,60.187665,24.830102,12.275963,21.894098,-1.0,-1.0,100.074936,0.113625,-1.269987,-0.038884,-1.833861
880261.061535,-9.492813270000001,0.32482872,-2.92880493,-0.013305,0.011973,-0.005363,-117.774643,100.846054,-198.033478,60.187665,24.830102,12.275963,21.894098,-1.0,-1.0,100.074936,0.113625,-1.269981,-0.038868,-1.834002
880261.081521,-9.28923615,0.45520362000000003,-2.87342748,5.4e-05,-0.005536,0.002761,-117.492783,100.857346,-197.730377,60.187665,24.830102,12.275963,21.894098,-1.0,-1.0,100.074936,0.113625,-1.270006,-0.038836,-1.834423
880261.081521,-9.28923615,0.45520362000000003,-2.87342748,5.4e-05,-0.005536,0.002761,-117.492783,100.857346,-197.730377,60.187665,24.830102,12.275963,21.894098,-1.0,-1.0,100.074936,0.113625,-1.270006,-0.038836,-1.834423
880261.121492,-9.32276673,0.41029344,-2.97041895,0.00914,0.002629,0.009955,-117.624466,100.49646,-197.890869,60.187665,24.830102,12.275963,21.894098,-1.0,-1.0,100.074936,0.113625,-1.269966,-0.038907,-1.834361
880261.141478,-9.28744092,0.29084688000000003,-2.8711809900000005,0.00709,-0.022515,0.006644,-117.536316,100.633286,-197.859741,60.187665,24.830102,12.275963,21.894098,-1.0,-1.0,100.074936,0.113625,-1.269917,-0.038902,-1.834066
880261.161464,-9.34895943,0.36389214000000003,-2.8689345,0.00706,-0.014046,-0.003905,-117.441101,100.651016,-197.689575,60.187665,24.830102,12.275963,21.894098,-1.0,-1.0,100.074936,0.113625,-1.270158,-0.038954,-1.833838
880261.18145,-9.68905251,0.41373675,-2.75188158,0.020599,0.01509,0.0135,-117.40535,100.611755,-198.230301,60.187665,24.830102,12.275963,21.894098,-1.0,-1.0,100.074936,0.113625,-1.270477,-0.038747,-1.833941
880261.201435,-9.07427943,0.19938825000000002,-2.9713214700000004,0.003899,-0.001052,0.008115,-117.534973,100.802673,-197.902145,60.187665,24.830102,12.275963,21.894098,-1.0,-1.0,100.074936,0.113625,-1.27022,-0.038774,-1.83363
880261.221421,-9.29956608,0.27572967000000004,-2.9440791,-0.00423,-0.023781,-0.007611,-117.352432,100.864319,-198.007751,60.187665,24.830102,12.275963,21.894098,-1.0,-1.0,100.074936,0.113625,-1.270179,-0.038892,-1.833502
880261.241407,-9.57678687,0.34547877,-2.90770362,0.011398,-0.001399,0.01067,-117.556931,100.964554,-198.19899,60.187665,24.830102,12.275963,21.894098,-1.0,-1.0,100.074936,0.113625,-1.270611,-0.038735,-1.833755
880261.261393,-9.39461517,0.24055101,-2.88419886,0.011398,-0.001399,0.01067,-117.414078,101.021591,-197.438324,60.187665,24.830102,12.275963,21.894098,-1.0,-1.0,100.074936,0.113625,-1.270791,-0.038794,-1.833654
880261.281378,-9.36108459,0.18322137,-2.9624924700000004,0.00818,-0.002565,0.005229,-117.17662,101.030426,-197.790375,60.187665,24.830102,12.275963,21.894098,-1.0,-1.0,100.074936,0.113625,-1.270796,-0.038887,-1.83347
880261.301364,-9.31348647,0.09415638000000001,-3.0108361500000003,0.03367,-0.014755,0.014038,-116.699173,101.297302,-197.612961,60.187665,24.830102,12.275963,21.894098,-1.0,-1.0,100.074936,0.113625,-1.270879,-0.038859,-1.833404
880261.32135,-9.17233038,0.25896438000000005,-3.22878492,0.049067,-0.071067,0.015759,-115.689178,101.638748,-197.101852,60.187665,24.830102,12.275963,21.894098,-1.0,-1.0,100.074936,0.113625,-1.271027,-0.038909,-1.832908
880261.341336,-9.06380235,0.33365772000000005,-3.1841788500000003,0.048617,-0.179162,0.000578,-115.075714,102.204941,-196.532684,60.187665,24.830102,12.275963,21.894098,-1.0,-1.0,100.074936,0.113625,-1.271997,-0.038883,-1.832122
880261.361322,-9.23190651,0.32901759,-3.1542387300000003,-0.000692,-0.250379,0.006192,-114.857483,103.092346,-196.04454,60.187665,24.830102,12.275963,21.894098,-1.0,-1.0,100.074936,0.113625,-1.275099,-0.038562,-1.831305
880261.381307,-9.25076133,0.32407335000000004,-2.9133934200000002,-0.040355,-0.317922,-0.003121,-114.809753,104.214615,-195.746277,60.187665,24.830102,12.275963,21.894098,-1.0,-1.0,100.074936,0.113625,-1.279794,-0.038553,-1.831075
880261.401293,-9.15196482,0.02185668,-2.8744771500000006,-0.076567,-0.401088,-0.00186,-115.362808,105.170578,-195.057343,60.187665,24.830102,12.275963,21.894098,-1.0,-1.0,100.074936,0.113625,-1.285772,-0.038657,-1.831768
880261.421279,-9.14538231,-0.25492266,-2.8868966100000004,-0.131797,-0.489866,-0.046268,-116.686523,106.390961,-194.557205,60.187665,24.830102,12.275963,21.894098,-1.0,-1.0,100.074936,0.113625,-1.293313,-0.038927,-1.833139
880261.441265,-9.639649350000001,0.18710613,-2.5896143700000005,-0.147619,-0.524302,0.007946,-120.234543,106.825241,-194.704208,60.187665,24.830102,12.275963,21.894098,-1.0,-1.0,100.074936,0.113625,-1.302677,-0.038813,-1.835654
880261.46125,-9.62588592,0.18590931,-2.6048787300000003,-0.156172,-0.484008,-0.005956,-122.737747,105.457504,-195.880051,60.187665,24.830102,12.275963,21.894098,-1.0,-1.0,100.074936,0.113625,-1.313095,-0.039305,-1.838704
880261.481236,-9.67558338,0.01511721,-2.83480551,-0.126358,-0.543642,-0.001715,-122.864899,103.883652,-195.937042,60.187665,24.830102,12.275963,21.894098,-1.0,-1.0,100.074936,0.113625,-1.323213,-0.039868,-1.84157
880261.501222,-9.23983299,0.25657074,-3.0726587700000003,-0.087253,-0.61887,0.008041,-118.718277,102.818802,-195.016937,60.187665,24.830102,12.275963,21.894098,-1.0,-1.0,100.074936,0.113625,-1.333715,-0.040258,-1.844279
880261.521208,-9.14103648,0.55713933,-2.99198133,-0.028004,-0.676226,0.03244,-114.377792,104.841217,-193.041107,60.187665,24.830102,12.275963,21.894098,-1.0,-1.0,100.074936,0.113625,-1.345809,-0.040764,-1.846219
880261.561179,-9.37650591,0.25177365,-2.20192317,0.006781,-0.853289,0.045964,-122.740402,108.300919,-192.694855,60.187665,24.830102,12.275963,21.894098,-1.0,-1.0,100.07489,0.118904,-1.374044,-0.04213,-1.846932
880261.581165,-9.34013043,0.27453285,-2.22257322,-0.01273,-0.967694,0.036162,-124.534042,105.277496,-193.67186,60.187665,24.830102,12.275963,21.894098,-1.0,-1.0,100.07489,0.118904,-1.390528,-0.042933,-1.846707
880261.581165,-9.34013043,0.27453285,-2.22257322,-0.01273,-0.967694,0.036162,-124.534042,105.277496,-193.67186,60.187665,24.830102,12.275963,21.894098,-1.0,-1.0,100.07489,0.118904,-1.390528,-0.042933,-1.846707
880261.601151,-9.13684761,0.49083354000000007,-2.10941487,-0.050493,-1.111492,0.041805,-120.529236,103.449844,-191.969604,60.187665,24.830102,12.275963,21.894098,-1.0,-1.0,100.07489,0.118904,-1.409312,-0.043672,-1.846726
880261.641122,-9.08116605,0.91175121,-1.7188787700000001,-0.057728,-1.42889,0.061153,-120.592972,108.529648,-187.395798,60.187665,24.830102,12.275963,21.894098,-1.0,-1.0,100.07489,0.118904,-1.455457,-0.04548,-1.848849
880261.661109,-9.20510559,0.8313680700000001,-1.30917393,-0.038005,-1.528396,0.069823,-123.693054,109.651642,-186.369125,60.187665,24.830102,12.275963,21.894098,-1.0,-1.0,100.07489,0.118904,-1.483192,-0.046681,-1.850026
880261.681095,-9.09702882,0.94393782,-1.14496434,-0.012881,-1.660123,0.079871,-126.222122,109.704422,-185.670822,60.187665,24.830102,12.275963,21.894098,-1.0,-1.0,100.07489,0.118904,-1.513216,-0.048037,-1.850835
880261.701081,-9.083706840000001,1.2328325100000002,-1.1587375800000002,0.020274,-1.796551,0.07935,-127.541718,109.130432,-185.124557,60.187665,24.830102,12.275963,21.894098,-1.0,-1.0,100.07489,0.118904,-1.545667,-0.049534,-1.851171
880261.721066,-15.034737330000002,3.09272022,0.006582510000000001,0.26033,-0.72288,0.045406,-127.687988,109.522125,-185.120163,60.187665,24.830102,12.275963,21.894098,-1.0,-1.0,100.07489,0.118904,-1.580789,-0.051311,-1.851278
880261.741052,-10.30591512,0.97851807,1.2410729100000002,0.345483,-0.749617,-0.021743,-128.319901,108.924637,-184.440186,60.187665,24.830102,12.275963,21.894098,-1.0,-1.0,100.07489,0.118904,-1.605292,-0.05721,-1.848566
880261.761038,-9.489664260000001,1.3750382700000001,1.94056515,0.433828,-0.835481,0.044923,-128.11174,107.245346,-184.252319,60.187665,24.830102,12.275963,21.894098,-1.0,-1.0,100.07489,0.118904,-1.627803,-0.058526,-1.844458
880261.781024,-10.025251019999999,1.3392612000000002,1.7604927900000003,0.485031,-0.686723,0.019894,-124.241241,105.997696,-183.61261,60.187665,24.830102,12.275963,21.894098,-1.0,-1.0,100.07489,0.118904,-1.64578,-0.059977,-1.837451
880261.801009,-10.153232280000001,1.22625,1.12596237,0.516085,-0.67239,-0.025036,-120.864731,108.311264,-181.517532,60.187665,24.830102,12.275963,21.894098,-1.0,-1.0,100.07489,0.118904,-1.660434,-0.060752,-1.828471
880261.820995,-9.85804938,0.8584632900000001,0.7896069000000001,0.506414,-0.627488,-0.031137,-120.864731,108.311264,-181.517532,60.187665,24.830102,12.275963,21.894098,-1.0,-1.0,100.07489,0.118904,-1.673063,-0.061223,-1.818651
880261.840981,-9.72677196,0.7414103700000001,0.86070978,0.488085,-0.634335,-0.030457,-123.646362,111.050537,-180.855911,60.187665,24.830102,12.275963,21.894098,-1.0,-1.0,100.07489,0.118904,-1.684733,-0.061582,-1.808376
880261.860967,-9.73396269,0.36059598,1.0529073,0.462041,-0.689946,-0.030949,-129.898422,109.98114,-182.209702,60.187665,24.830102,12.275963,21.894098,-1.0,-1.0,100.07489,0.118904,-1.696393,-0.06203,-1.798422
880261.880953,-9.731863350000001,0.31045707000000006,1.4974866900000001,0.422808,-0.74486,-0.04181,-130.003708,106.128876,-182.64595,60.187665,24.830102,12.275963,21.894098,-1.0,-1.0,100.07489,0.118904,-1.708786,-0.062609,-1.788938
880261.900938,-9.644142330000001,0.15971661,1.7893832400000003,0.332559,-0.833754,-0.03921,-124.391205,104.374908,-181.20752,60.187665,24.830102,12.275963,21.894098,-1.0,-1.0,100.07489,0.118904,-1.722796,-0.06302,-1.780245
880261.920924,-9.46720917,0.12813822000000002,1.93621932,0.220569,-0.930732,-0.024762,-121.29274,106.009766,-179.354462,60.187665,24.830102,12.275963,21.894098,-1.0,-1.0,100.07489,0.118904,-1.738698,-0.063288,-1.773159
880261.94091,-9.40314987,0.18546786,2.3571468,0.105415,-1.037648,-0.005167,-121.605423,107.781937,-178.274948,60.187665,24.830102,12.275963,21.894098,-1.0,-1.0,100.07489,0.118904,-1.756708,-0.063567,-1.768214
880261.960896,-9.43458111,0.23246757,2.23545375,0.037259,-1.009966,0.015631,-123.08609,108.995972,-177.482529,60.187665,24.830102,12.275963,21.894098,-1.0,-1.0,100.07489,0.118904,-1.77671,-0.06387,-1.765589
880261.980881,-9.17756892,0.07499745000000001,2.7867561300000006,-0.054862,-1.065452,0.045093,-124.537964,109.726486,-176.315811,60.187665,24.830102,12.275963,21.894098,-1.0,-1.0,100.07489,0.118904,-1.797195,-0.06424,-1.764742
880262.000867,-9.11589345,0.01227231,2.79005229,-0.153699,-1.165084,0.076249,-125.085114,110.084671,-175.903595,60.187665,24.830102,12.275963,21.894098,-1.0,-1.0,100.07489,0.118904,-1.818553,-0.064689,-1.765645
880262.020853,-9.71344998,-0.10269108,3.48535566,-0.269642,-1.227416,-0.002377,-125.316467,110.254181,-174.590179,60.187665,24.830102,12.275963,21.894098,-1.0,-1.0,100.07489,0.118904,-1.841672,-0.065205,-1.768536
880262.040839,-8.895855150000001,1.11233628,3.11292882,-0.222738,-1.222509,0.186498,-124.246033,109.785599,-173.246414,60.187665,24.830102,12.275963,21.894098,-1.0,-1.0,100.07489,0.118904,-1.866522,-0.064597,-1.773379
880262.060825,-9.67886973,0.35595585,2.4667245,-0.202898,-1.215028,0.03488,-123.63414,109.707443,-171.72197,60.187665,24.830102,12.275963,21.894098,-1.0,-1.0,100.07489,0.118904,-1.890534,-0.065019,-1.778374
880262.08081,-8.90662653,0.93750246,3.25078875,-0.147993,-1.25888,0.105356,-123.678101,110.140518,-170.862518,60.187665,24.830102,12.275963,21.894098,-1.0,-1.0,100.07489,0.118904,-1.914842,-0.065306,-1.782651
880262.100796,-8.922195,0.62330778,2.16988371,-0.106942,-1.070861,0.049611,-123.076019,110.102829,-169.195282,60.187665,24.830102,12.275963,21.894098,-1.0,-1.0,100.07489,0.118904,-1.939649,-0.06594,-1.786378
880262.120782,-9.5413041,1.06249167,2.97386226,-0.05693,-1.119594,0.046856,-122.921326,109.805847,-168.346054,60.187665,24.830102,12.275963,21.894098,-1.0,-1.0,100.07489,0.118904,-1.964323,-0.065913,-1.789248
880262.140768,-8.4334608,0.56641959,3.95792298,-0.056666,-1.020405,0.049159,-122.491531,109.496765,-167.335907,60.187665,24.830102,12.275963,21.894098,-1.0,-1.0,100.07489,0.118904,-1.988101,-0.066142,-1.791286
880262.180739,-8.144566110000001,0.56552688,4.8975149700000005,0.023111,-1.042319,0.021606,-121.52829,108.085297,-165.564819,60.187665,24.830102,12.275963,21.894098,-1.0,-1.0,100.07489,0.118904,-2.028922,-0.066663,-1.793737
880262.180739,-8.144566110000001,0.56552688,4.8975149700000005,0.023111,-1.042319,0.021606,-121.52829,108.085297,-165.564819,60.187665,24.830102,12.275963,21.894098,-1.0,-1.0,100.07489,0.118904,-2.028922,-0.066663,-1.793737
880262.200725,-8.89121502,0.7024842900000001,4.5870579000000005,0.049181,-1.069066,-0.009859,-121.282181,107.407303,-165.256393,60.187665,24.830102,12.275963,21.894098,-1.0,-1.0,100.07489,0.118904,-2.048918,-0.067196,-1.793671
880262.240697,-8.6389803,0.54950715,4.72177863,0.041485,-1.102659,0.022278,-122.145523,105.797989,-163.667053,60.187665,24.830102,12.275963,21.894098,-1.0,-1.0,100.07489,0.118904,-2.091739,-0.068384,-1.792219
880262.260683,-8.069117400000001,0.27123669,5.132827440000001,-0.000186,-1.135311,0.040177,-122.877869,105.380722,-162.944275,60.187665,24.830102,12.275963,21.894098,-1.0,-1.0,100.07489,0.118904,-2.113768,-0.069124,-1.791733
880262.280668,-8.35008561,0.40835106000000004,5.42801034,-0.016887,-1.149967,0.039513,-124.318207,105.30574,-162.510498,60.187665,24.830102,12.275963,21.894098,-1.0,-1.0,100.07489,0.118904,-2.136572,-0.069715,-1.792023
880262.300654,-7.691452020000001,0.5117877000000001,5.52800367,-0.027203,-1.171853,0.049528,-126.127563,105.035004,-161.922134,60.187665,24.830102,12.275963,21.894098,-1.0,-1.0,100.07489,0.118904,-2.159607,-0.070105,-1.792675
880262.32064,-8.02017531,0.55728648,5.6118301200000005,-0.017322,-1.15194,0.044776,-128.120087,105.489029,-160.734177,60.187665,24.830102,12.275963,21.894098,-1.0,-1.0,100.07489,0.118904,-2.182918,-0.070521,-1.793666
880262.340626,-7.69324725,0.48304440000000004,5.77469574,-0.010832,-1.146714,0.045956,-129.512009,106.628555,-159.705643,60.187665,24.830102,12.275963,21.894098,-1.0,-1.0,100.07489,0.118904,-2.206078,-0.070907,-1.79452
880262.360612,-7.491171060000001,0.32467176000000003,6.10056432,-0.009464,-1.132223,0.061716,-129.244293,108.256638,-158.335449,60.187665,24.830102,12.275963,21.894098,-1.0,-1.0,100.07489,0.118904,-2.229069,-0.071416,-1.795274
880262.380597,-7.591017240000001,-0.00404172,6.44739687,-0.023998,-1.101279,0.053576,-126.626984,109.444153,-155.891464,60.187665,24.830102,12.275963,21.894098,-1.0,-1.0,100.07489,0.118904,-2.251805,-0.07211,-1.796105
880262.400583,-7.148085930000001,-0.19564083,6.56115363,-0.041132,-1.083283,0.05857,-121.629791,109.23436,-153.41391,60.187665,24.830102,12.275963,21.894098,-1.0,-1.0,100.07489,0.118904,-2.273973,-0.072612,-1.797109
880262.420569,-7.28310096,-0.23935419000000002,6.51384981,-0.031462,-1.033865,0.053533,-119.205048,106.131683,-152.643036,60.187665,24.830102,12.275963,21.894098,-1.0,-1.0,100.07489,0.118904,-2.295601,-0.07296,-1.798317
880262.440555,-7.097044500000001,-0.21450546,6.19381818,-0.004992,-1.001778,0.030805,-124.906845,104.026718,-153.723907,60.187665,24.830102,12.275963,21.894098,-1.0,-1.0,100.07489,0.118904,-2.316283,-0.073263,-1.799494
880262.460541,-7.5077892,-0.06780672,6.4553233500000005,-0.003292,-0.867984,-0.024391,-124.804001,107.868607,-150.249268,60.187665,24.830102,12.275963,21.894098,-1.0,-1.0,100.07489,0.118904,-2.336447,-0.073564,-1.800119
880262.480526,-6.47493354,2.23005825,5.720358150000001,0.229437,-0.755046,0.018892,-119.710281,105.758636,-148.329529,60.187665,24.830102,12.275963,21.894098,-1.0,-1.0,100.07489,0.118904,-2.354922,-0.073439,-1.799876
880262.500512,-6.627920490000001,2.42585604,6.82535655,0.313279,-0.929998,-0.043043,-119.497314,101.969025,-149.48909,60.187665,24.830102,12.275963,21.894098,-1.0,-1.0,100.07489,0.118904,-2.37283,-0.074663,-1.798341
880262.520498,-5.948784000000001,2.08157409,7.1934375600000005,0.327595,-1.000576,-0.052304,-121.548859,101.393921,-148.50737,60.187665,24.830102,12.275963,21.894098,-1.0,-1.0,100.07489,0.118904,-2.392233,-0.078036,-1.794949
880262.540484,-6.480172080000001,1.7542045800000001,6.51415392,0.40879,-1.013678,-0.020058,-121.548859,101.393921,-148.50737,60.187665,24.830102,12.275963,21.894098,-1.0,-1.0,100.07489,0.118904,-2.411633,-0.081854,-1.789781
880262.56047,-6.086339820000001,1.40287905,6.38197398,0.490596,-1.031739,-0.004458,-122.977112,102.281143,-148.597427,60.187665,24.830102,12.275963,21.894098,-1.0,-1.0,100.07489,0.118904,-2.430855,-0.08732,-1.783953
880262.580455,-5.62844826,1.52922204,6.953494770000001,0.529102,-1.06155,0.047347,-123.115738,102.893524,-147.979645,60.187665,24.830102,12.275963,21.894098,-1.0,-1.0,100.07489,0.118904,-2.450829,-0.094452,-1.77779
880262.600441,-5.41903419,1.2478025700000002,7.158710160000001,0.519523,-1.182366,0.081564,-122.944687,103.949295,-146.990265,60.187665,24.830102,12.275963,21.894098,-1.0,-1.0,100.07489,0.118904,-2.471444,-0.102714,-1.771921
880262.620427,-5.57575875,1.29795129,7.27696971,0.500973,-1.264703,0.164269,-122.339493,104.486816,-146.400177,60.187665,24.830102,12.275963,21.894098,-1.0,-1.0,100.074638,0.140045,-2.493896,-0.111529,-1.766578
880262.640413,-5.5221667199999995,1.20379491,7.4904255,0.471875,-1.370317,0.140386,-121.436203,105.043243,-145.474304,60.187665,24.830102,12.275963,21.894098,-1.0,-1.0,100.074638,0.140045,-2.518451,-0.12145,-1.762911
880262.660399,-5.178777480000001,1.3681516500000002,8.108337780000001,0.415581,-1.451526,0.137476,-120.418457,105.615509,-144.540512,60.187665,24.830102,12.275963,21.894098,-1.0,-1.0,100.074638,0.140045,-2.545313,-0.130869,-1.759847
880262.680384,-4.17721572,1.1752085700000001,9.82646118,0.128597,-1.648535,0.179923,-119.574097,105.699829,-143.863312,60.187665,24.830102,12.275963,21.894098,-1.0,-1.0,100.074638,0.140045,-2.574344,-0.139523,-1.757298
880262.700369,-4.2081957,1.3793841000000002,9.41346999,0.128597,-1.648535,0.179923,-118.592819,105.675461,-142.168655,60.187665,24.830102,12.275963,21.894098,-1.0,-1.0,100.074638,0.140045,-2.606736,-0.144673,-1.758237
880262.720355,-4.35025431,1.81811673,8.931779370000001,-0.195329,-1.749353,0.26298,-117.422897,105.289246,-140.976944,60.187665,24.830102,12.275963,21.894098,-1.0,-1.0,100.074638,0.140045,-2.641984,-0.145774,-1.761983
880262.760327,-3.30722568,2.5255452600000003,8.47866528,-0.071028,-1.280799,0.468043,-112.149628,104.885086,-136.71788,60.187665,24.830102,12.275963,21.894098,-1.0,-1.0,100.074638,0.140045,-2.710388,-0.144698,-1.775466
880262.780313,-3.94145199,2.30715504,9.15600654,-0.081865,-1.078355,0.578203,-111.213211,108.301453,-134.360397,60.187665,24.830102,12.275963,21.894098,-1.0,-1.0,100.074638,0.140045,-2.738321,-0.146659,-1.783998
880262.800298,-3.90402684,1.97034831,9.107957160000002,-0.17282,-0.838013,0.684762,-114.550613,109.094833,-135.367462,60.187665,24.830102,12.275963,21.894098,-1.0,-1.0,100.074638,0.140045,-2.762648,-0.149266,-1.794711
880262.820284,-4.194128160000001,0.69575463,12.851678790000001,-0.313112,-1.230219,0.261164,-112.942032,107.703278,-134.848389,60.187665,24.830102,12.275963,21.894098,-1.0,-1.0,100.074638,0.140045,-2.782496,-0.151384,-1.807635
880262.84027,-3.24734544,1.09377576,8.386461090000001,-0.357715,-1.271456,0.154074,-110.982742,106.820496,-133.665237,60.187665,24.830102,12.275963,21.894098,-1.0,-1.0,100.074638,0.140045,-2.807338,-0.148969,-1.8164
880262.860256,-1.91676609,2.4379812,9.27575721,-0.147296,-1.456622,0.048832,-109.221436,106.903397,-132.435211,60.187665,24.830102,12.275963,21.894098,-1.0,-1.0,100.074638,0.140045,-2.83426,-0.14034,-1.823306
880262.880242,-2.43558756,2.68841088,6.72401925,0.118268,-1.182945,0.030234,-106.840179,107.987747,-130.547073,60.187665,24.830102,12.275963,21.894098,-1.0,-1.0,100.074638,0.140045,-2.860453,-0.13822,-1.825516
880262.900228,-2.4896210400000003,2.0122664400000003,9.95325543,0.148153,-1.205785,0.012233,-106.505585,109.793015,-129.522049,60.187665,24.830102,12.275963,21.894098,-1.0,-1.0,100.074638,0.140045,-2.885284,-0.138026,-1.826281
880262.920213,-1.43581122,1.7341431300000003,8.988804900000002,0.182334,-1.174063,0.005099,-109.691223,110.270111,-130.728668,60.187665,24.830102,12.275963,21.894098,-1.0,-1.0,100.074638,0.140045,-2.908803,-0.141374,-1.825592
880262.940199,-1.39330449,1.3681516500000002,10.85602068,0.021499,-1.230887,0.020787,-109.700378,108.235931,-130.677338,60.187665,24.830102,12.275963,21.894098,-1.0,-1.0,100.074638,0.140045,-2.932487,-0.144564,-1.824868
880262.960185,-1.5908877000000001,1.4555685600000001,9.11395107,0.019775,-1.161919,0.042163,-104.500565,107.542648,-127.963211,60.187665,24.830102,12.275963,21.894098,-1.0,-1.0,100.074638,0.140045,-2.95689,-0.145956,-1.824832
880262.980171,-3.07580778,0.38080458,12.645099810000001,-0.510315,-1.299475,-0.169118,-102.564102,109.674973,-126.566086,60.187665,24.830102,12.275963,21.894098,-1.0,-1.0,100.074638,0.140045,-2.980959,-0.146098,-1.825476
880263.000157,-1.8037450800000001,2.55114936,17.437834170000002,-1.307119,-1.904293,-0.167348,-102.165024,107.932358,-125.585892,60.187665,24.830102,12.275963,21.894098,-1.0,-1.0,100.074638,0.140045,-3.003413,-0.140932,-1.824788
880263.000157,-1.8037450800000001,2.55114936,17.437834170000002,-1.307119,-1.904293,-0.167348,-102.165024,107.932358,-125.585892,60.187665,24.830102,12.275963,21.894098,-1.0,-1.0,100.074638,0.140045,-3.003413,-0.140932,-1.824788
880263.040128,-1.31441247,0.56072979,17.56028259,-0.913618,-0.718106,0.055742,-105.926178,109.086899,-126.076385,60.187665,24.830102,12.275963,21.894098,-1.0,-1.0,100.074638,0.140045,-3.030604,-0.113726,-1.823636
880263.060114,0.32796792,1.5030293399999999,3.29165721,-0.300338,-0.285341,0.308365,-105.500656,105.989761,-126.526413,60.187665,24.830102,12.275963,21.894098,-1.0,-1.0,100.074638,0.140045,-3.046073,-0.098932,-1.825536
880263.0801,-0.71805276,0.51762465,12.56891535,-0.468275,-0.500828,0.244147,-100.125748,105.260071,-124.444778,60.187665,24.830102,12.275963,21.894098,-1.0,-1.0,100.074638,0.140045,-3.054524,-0.092024,-1.831628
880263.100086,0.17094906,0.23022108,9.45763461,-0.388917,-0.719179,0.047568,-101.350067,107.961777,-123.674911,60.187665,24.830102,12.275963,21.894098,-1.0,-1.0,100.074638,0.140045,-3.065757,-0.083116,-1.838058
880263.120072,-0.9318126600000001,0.00194238,8.28362286,-0.361857,-0.569577,-0.009325,-103.427063,106.972931,-123.877869,60.187665,24.830102,12.275963,21.894098,-1.0,-1.0,100.074638,0.140045,-3.079956,-0.07603,-1.839803
880263.140058,-0.36823797,0.71460945,10.10324052,-0.352108,-0.604964,-0.054543,-104.524872,105.257767,-123.642227,60.187665,24.830102,12.275963,21.894098,-1.0,-1.0,100.074638,0.140045,-3.093033,-0.068132,-1.840756
880263.160043,-0.22034241,0.5063922000000001,10.041270749999999,-0.336325,-0.586841,-0.001937,-102.999573,103.277313,-124.066772,60.187665,24.830102,12.275963,21.894098,-1.0,-1.0,100.074638,0.140045,-3.10591,-0.060732,-1.839764
880263.180029,-0.21420135,0.21046374,9.81299205,-0.307836,-0.476549,0.115321,-98.264664,103.437851,-122.601379,60.187665,24.830102,12.275963,21.894098,-1.0,-1.0,100.074638,0.140045,-3.117681,-0.053589,-1.839584
880263.200015,-0.16165899,0.31898196000000006,9.24552279,-0.235261,-0.405194,0.158284,-94.895691,105.451523,-121.353531,60.187665,24.830102,12.275963,21.894098,-1.0,-1.0,100.074638,0.140045,-3.127661,-0.047586,-1.84136
880263.220001,-0.46238454000000007,-0.14250006,10.023455790000002,-0.267906,-0.403275,0.082421,-96.129288,107.480804,-121.252182,60.187665,24.830102,12.275963,21.894098,-1.0,-1.0,100.074638,0.140045,-3.13629,-0.042491,-1.844417
880263.239987,-0.32557428000000005,0.31988447999999997,9.1854954,-0.229254,-0.382599,-0.007763,-99.687088,107.877808,-121.00322,60.187665,24.830102,12.275963,21.894098,-1.0,-1.0,100.074638,0.140045,3.138667,-0.037332,-1.846516
880263.259973,-1.21218246,1.14871176,11.971957230000001,-0.052424,-0.299357,0.057974,-99.687088,107.877808,-121.00322,60.187665,24.830102,12.275963,21.894098,-1.0,-1.0,100.074638,0.140045,3.13112,-0.032996,-1.847016
880263.279958,0.12558762,-0.68752404,10.38794634,-0.092521,-0.374645,-0.090157,-101.978516,106.498611,-121.593719,60.187665,24.830102,12.275963,21.894098,-1.0,-1.0,100.074638,0.140045,3.130863,-0.03304,-1.848251
880263.299944,1.02297699,-0.00643536,6.05431017,-0.003824,0.013582,0.052859,-101.698853,104.398697,-121.792435,60.187665,24.830102,12.275963,21.894098,-1.0,-1.0,100.074638,0.140045,3.130539,-0.0331,-1.847384
880263.31993,0.64710684,-0.01661814,8.22883401,0.01588,0.047506,0.065253,-99.511795,103.324463,-121.868134,60.187665,24.830102,12.275963,21.894098,-1.0,-1.0,100.074638,0.140045,3.131419,-0.03341,-1.848175
880263.339916,-0.38560167000000006,0.13531914,9.71285157,0.006664,0.029763,0.018804,-97.593246,102.732925,-121.811096,60.187665,24.830102,12.275963,21.894098,-1.0,-1.0,100.074638,0.140045,3.131226,-0.033325,-1.849547
880263.359902,-0.02963601,0.43574058,9.832602240000002,0.012873,-0.003954,0.009026,-96.05864,103.060394,-121.14682,60.187665,24.830102,12.275963,21.894098,-1.0,-1.0,100.074638,0.140045,3.131107,-0.0333,-1.850072
880263.379888,-0.058232160000000005,0.10119015,10.126588320000002,-0.003611,-0.019692,0.015259,-95.299042,103.281815,-120.898285,60.187665,24.830102,12.275963,21.894098,-1.0,-1.0,100.074638,0.140045,3.130863,-0.033382,-1.850216
880263.399873,0.021258270000000003,0.04879494,9.74638215,-0.001188,-0.01537,0.030332,-94.76889,103.568802,-120.849854,60.187665,24.830102,12.275963,21.894098,-1.0,-1.0,100.074638,0.140045,3.130715,-0.033375,-1.850357
880263.419859,0.03367773,0.12214431,9.63172287,0.003447,-0.015588,0.0443,-94.695999,103.800797,-120.519806,60.187665,24.830102,12.275963,21.894098,-1.0,-1.0,100.074638,0.140045,3.130617,-0.03345,-1.850817
880263.459831,0.023504760000000003,0.21135645000000003,9.751326390000001,5.2e-05,-0.008967,0.071627,-94.639374,104.639008,-120.711075,60.187665,24.830102,12.275963,21.894098,-1.0,-1.0,100.074638,0.140045,3.1304,-0.033486,-1.852577
880263.459831,0.023504760000000003,0.21135645000000003,9.751326390000001,5.2e-05,-0.008967,0.071627,-94.639374,104.639008,-120.711075,60.187665,24.830102,12.275963,21.894098,-1.0,-1.0,100.074638,0.140045,3.1304,-0.033486,-1.852577
880263.499803,0.01092834,0.28874754,9.87720831,-0.004096,-0.001317,0.10969,-94.606476,105.296677,-120.287872,60.187665,24.830102,12.275963,21.894098,-1.0,-1.0,100.074638,0.140045,3.130154,-0.033532,-1.855428
880263.499803,0.01092834,0.28874754,9.87720831,-0.004096,-0.001317,0.10969,-94.606476,105.296677,-120.287872,60.187665,24.830102,12.275963,21.894098,-1.0,-1.0,100.074638,0.140045,3.130154,-0.033532,-1.855428
880263.539774,-0.0489519,0.51148359,9.67154166,-0.000129,0.005742,0.212737,-95.270599,106.460037,-120.019974,60.187665,24.830102,12.275963,21.894098,-1.0,-1.0,100.074638,0.140045,3.129918,-0.033502,-1.860262
880263.55976,-0.01586277,0.5089428,9.75011976,-0.001787,-0.002903,0.236307,-96.182175,107.13475,-119.866425,60.187665,24.830102,12.275963,21.894098,-1.0,-1.0,100.074638,0.140045,3.129875,-0.033448,-1.864189
880263.579746,-0.017667810000000003,0.62914473,9.71524521,0.000625,0.001378,0.232502,-97.371048,108.114365,-119.892807,60.187665,24.830102,12.275963,21.894098,-1.0,-1.0,100.074638,0.140045,3.129803,-0.033359,-1.868749
880263.599732,0.14340258,0.72105462,9.79024266,-0.00094,0.008766,0.225538,-99.077866,108.639175,-119.910355,60.187665,24.830102,12.275963,21.894098,-1.0,-1.0,100.074638,0.140045,3.129855,-0.033291,-1.873334
880263.619718,0.08128566000000001,0.6224052600000001,9.84876912,-0.00094,0.008766,0.225538,-100.570358,108.106979,-120.948059,60.187665,24.830102,12.275963,21.894098,-1.0,-1.0,100.074638,0.140045,3.129819,-0.033207,-1.877797
880263.639704,0.03382488,0.49861287,9.63860949,-0.000646,0.009183,0.142479,-100.96077,106.711548,-121.47522,60.187665,24.830102,12.275963,21.894098,-1.0,-1.0,100.074638,0.140045,3.129889,-0.033203,-1.881788
880263.659689,0.14369688,0.35401347000000005,9.63935505,0.010844,-0.004922,0.068311,-99.963638,105.294296,-121.904022,60.187665,24.830102,12.275963,21.894098,-1.0,-1.0,100.074638,0.140045,3.129925,-0.033265,-1.88483
880263.679675,0.35281665,0.19264878,9.74563659,0.005394,-0.010945,-0.016482,-98.35817,104.582916,-122.127045,60.187665,24.830102,12.275963,21.894098,-1.0,-1.0,100.074638,0.140045,3.129864,-0.033462,-1.886522
880263.699661,0.21166056000000003,0.20597076000000003,9.78170796,0.003451,0.009302,-0.068509,-96.548416,104.671799,-121.852737,60.187665,24.830102,12.275963,21.894098,-1.0,-1.0,100.074013,0.192894,3.129663,-0.033549,-1.886551
880263.719647,0.19908414,-0.00913311,9.7582032,-0.001414,-0.004885,-0.112786,-95.886673,104.786926,-121.866867,60.187665,24.830102,12.275963,21.894098,-1.0,-1.0,100.074013,0.192894,3.129672,-0.033596,-1.88533
880263.739633,0.07559586,-0.0022464900000000003,9.63801108,-0.000605,-0.003565,-0.12972,-95.616867,105.24852,-121.813797,60.187665,24.830102,12.275963,21.894098,-1.0,-1.0,100.074013,0.192894,3.129658,-0.033594,-1.883215
880263.759619,0.029488860000000002,-0.07320222,9.6827643,0.001448,-0.00305,-0.125267,-95.562637,105.23877,-121.787201,60.187665,24.830102,12.275963,21.894098,-1.0,-1.0,100.074013,0.192894,3.129787,-0.033603,-1.88057
880263.779605,-0.030832830000000002,-0.11451213,9.744439770000001,0.001823,0.006181,-0.085787,-95.94603,105.216827,-122.257523,60.187665,24.830102,12.275963,21.894098,-1.0,-1.0,100.074013,0.192894,3.12982,-0.033584,-1.87793
880263.79959,-0.01571562,-0.01362609,9.735306660000001,0.001134,-0.003833,-0.013238,-96.130051,105.208359,-122.477783,60.187665,24.830102,12.275963,21.894098,-1.0,-1.0,100.074013,0.192894,3.129918,-0.033589,-1.87588
880263.819576,0.03143124,0.09700128,9.708809850000002,0.003328,0.000264,0.026769,-96.094482,104.944931,-122.303986,60.187665,24.830102,12.275963,21.894098,-1.0,-1.0,100.074013,0.192894,3.129951,-0.033605,-1.875123
880263.839562,0.030391380000000003,0.08487612,9.749227050000002,0.00256,0.001851,0.010538,-96.64743,104.776932,-122.241287,60.187665,24.830102,12.275963,21.894098,-1.0,-1.0,100.074013,0.192894,3.129924,-0.033604,-1.875464
880263.859548,-0.020355750000000002,0.15387966,9.732010500000001,0.005635,-0.000249,-0.003865,-97.442688,104.522278,-122.44075,60.187665,24.830102,12.275963,21.894098,-1.0,-1.0,100.074013,0.192894,3.129933,-0.033597,-1.875693
880263.879534,0.055534410000000006,0.22512969000000002,9.76733631,0.001766,0.003935,-0.00079,-98.311447,104.658752,-122.56543,60.187665,24.830102,12.275963,21.894098,-1.0,-1.0,100.074013,0.192894,3.129951,-0.033636,-1.875611
880263.89952,0.1474443,0.34114275,9.74188917,0.00025,0.000957,-0.00176,-99.135315,104.546783,-122.355438,60.187665,24.830102,12.275963,21.894098,-1.0,-1.0,100.074013,0.192894,3.129982,-0.033639,-1.875503
880263.919506,0.01856052,0.44352972000000007,9.77482134,0.001546,0.002755,0.001033,-99.561691,105.017914,-122.363815,60.187665,24.830102,12.275963,21.894098,-1.0,-1.0,100.074013,0.192894,3.129984,-0.033613,-1.875354
880263.939491,0.04939335000000001,0.53843166,9.77856876,0.000627,-0.003994,0.002592,-100.108398,105.166077,-122.13443,60.187665,24.830102,12.275963,21.894098,-1.0,-1.0,100.074013,0.192894,3.13002,-0.033599,-1.875257
880263.959477,0.173637,0.45670455000000004,9.696537540000001,0.004567,4.5e-05,0.001447,-100.480255,105.261658,-121.814941,60.187665,24.830102,12.275963,21.894098,-1.0,-1.0,100.074013,0.192894,3.130007,-0.033578,-1.875264
880263.979463,0.09415638000000001,0.47855142,9.70282575,0.002471,0.011914,0.005014,-100.480255,105.261658,-121.814941,60.187665,24.830102,12.275963,21.894098,-1.0,-1.0,100.074013,0.192894,3.129988,-0.03358,-1.875254
880263.999449,-0.00045126000000000004,0.49861287,9.67303278,0.004006,0.008142,0.002876,-100.353043,105.460403,-121.7155,60.187665,24.830102,12.275963,21.894098,-1.0,-1.0,100.074013,0.192894,3.130037,-0.033588,-1.875254
880264.039421,0.05029587,0.46029501,9.73126494,0.001513,0.003208,0.005617,-100.418228,105.482071,-121.56369,60.187665,24.830102,12.275963,21.894098,-1.0,-1.0,100.074013,0.192894,3.129988,-0.033592,-1.875197
880264.059407,0.08981055,0.43679025000000005,9.73215765,0.004661,0.000337,0.003093,-100.406738,105.410721,-122.113739,60.187665,24.830102,12.275963,21.894098,-1.0,-1.0,100.074013,0.192894,3.130005,-0.033592,-1.875191
880264.079392,0.06765957,0.38290392,9.7866522,0.000187,-0.001151,0.001669,-100.08551,105.246262,-121.806,60.187665,24.830102,12.275963,21.894098,-1.0,-1.0,100.074013,0.192894,3.12998,-0.033587,-1.875179
880264.099378,0.08726976,0.35671122,9.74698056,0.002045,0.000429,0.005257,-99.714905,104.970581,-121.88797,60.187665,24.830102,12.275963,21.894098,-1.0,-1.0,100.074013,0.192894,3.129988,-0.033571,-1.87516
880264.119364,0.09145863,0.34533162,9.70851555,0.004846,0.00083,0.003559,-99.188248,104.771439,-122.281387,60.187665,24.830102,12.275963,21.894098,-1.0,-1.0,100.074013,0.192894,3.12998,-0.033589,-1.875135
880264.119364,0.09145863,0.34533162,9.70851555,0.004846,0.00083,0.003559,-99.188248,104.771439,-122.281387,60.187665,24.830102,12.275963,21.894098,-1.0,-1.0,100.074013,0.192894,3.12998,-0.033589,-1.875135
880264.119364,0.09145863,0.34533162,9.70851555,0.004846,0.00083,0.003559,-99.188248,104.771439,-122.281387,60.187665,24.830102,12.275963,21.894098,-1.0,-1.0,100.074013,0.192894,3.12998,-0.033589,-1.875135
880264.179322,0.05883057,0.27662238,9.74279169,0.002853,0.004228,0.004119,-97.979233,104.490646,-122.370651,60.187665,24.830102,12.275963,21.894098,-1.0,-1.0,100.074013,0.192894,3.130011,-0.033585,-1.875146
880264.199308,0.0782838,0.23755896,9.74518533,0.001686,0.001549,0.003849,-97.651657,104.478592,-122.313583,60.187665,24.830102,12.275963,21.894098,-1.0,-1.0,100.074013,0.192894,3.130024,-0.033594,-1.875152
880264.219294,0.07948062,0.23665644,9.75176784,0.003861,0.001162,0.004406,-97.368057,104.394226,-122.33493,60.187665,24.830102,12.275963,21.894098,-1.0,-1.0,100.074013,0.192894,3.130026,-0.033591,-1.875141
880264.239279,0.07155414,0.22498254,9.74817738,0.001626,0.002791,0.003164,-97.28389,104.547882,-122.318222,60.187665,24.830102,12.275963,21.894098,-1.0,-1.0,100.074013,0.192894,3.130042,-0.033598,-1.875158
880264.259265,0.07739109000000001,0.21929274,9.74982546,0.004476,0.000518,0.005567,-97.260269,104.700989,-122.12883,60.187665,24.830102,12.275963,21.894098,-1.0,-1.0,100.074013,0.192894,3.130051,-0.033598,-1.875146
880264.279251,0.07768539,0.22348161,9.743841360000001,0.00176,0.002292,0.003274,-97.004852,104.914185,-122.103241,60.187665,24.830102,12.275963,21.894098,-1.0,-1.0,100.074013,0.192894,3.130046,-0.033605,-1.875163
880264.299237,0.052542359999999996,0.21899844000000002,9.775871010000001,0.001816,0.003484,0.004956,-97.01329,104.869415,-122.132996,60.187665,24.830102,12.275963,21.894098,-1.0,-1.0,100.074013,0.192894,3.130049,-0.033606,-1.875167
880264.319223,0.06825798,0.25925868,9.73755315,0.002844,0.000424,0.002462,-97.26268,104.67955,-122.129715,60.187665,24.830102,12.275963,21.894098,-1.0,-1.0,100.074013,0.192894,3.130061,-0.033595,-1.875178
880264.339209,0.06795387,0.27841761000000004,9.739348380000001,0.004087,0.001478,0.004695,-97.600784,104.400391,-122.236328,60.187665,24.830102,12.275963,21.894098,-1.0,-1.0,100.074013,0.192894,3.13005,-0.033599,-1.875171
880264.359195,0.0751446,0.29893032,9.77048532,0.003999,0.001896,0.002778,-97.649323,104.511414,-122.187866,60.187665,24.830102,12.275963,21.894098,-1.0,-1.0,100.074013,0.192894,3.130047,-0.033605,-1.875173
880264.379181,0.07784234999999999,0.3125466,9.756260820000001,0.001207,0.001182,0.002965,-97.965576,104.6035,-122.242798,60.187665,24.830102,12.275963,21.894098,-1.0,-1.0,100.074013,0.192894,3.130044,-0.033609,-1.875158
880264.399166,0.07708698000000001,0.34638129,9.723632760000001,0.005477,0.002342,0.006971,-97.949402,104.693253,-122.409225,60.187665,24.830102,12.275963,21.894098,-1.0,-1.0,100.074013,0.192894,3.130055,-0.033595,-1.875145
880264.419152,0.07155414,0.34159401,9.763451550000001,0.003537,0.000611,0.002131,-98.164505,104.464706,-122.306519,60.187665,24.830102,12.275963,21.894098,-1.0,-1.0,100.074013,0.192894,3.130056,-0.03361,-1.875167
880264.439138,0.07648857,0.34967745000000006,9.75850731,0.001185,0.000674,0.003475,-98.616577,104.591629,-122.452957,60.187665,24.830102,12.275963,21.894098,-1.0,-1.0,100.074013,0.192894,3.130055,-0.033603,-1.875159
880264.459124,0.07813665,0.36883638,9.70971237,0.001185,0.000674,0.003475,-98.576874,104.458038,-122.191849,60.187665,24.830102,12.275963,21.894098,-1.0,-1.0,100.074013,0.192894,3.130055,-0.033598,-1.875159
880264.47911,0.08098155,0.37706697,9.71823726,0.00248,0.002218,0.004231,-98.67543,104.602371,-122.514725,60.187665,24.830102,12.275963,21.894098,-1.0,-1.0,100.074013,0.192894,3.130051,-0.0336,-1.875152
880264.499096,0.07050447,0.37302525000000003,9.76464837,0.003926,0.001907,0.003314,-98.723877,104.603149,-122.533966,60.187665,24.830102,12.275963,21.894098,-1.0,-1.0,100.074013,0.192894,3.130048,-0.033595,-1.875139
880264.519082,0.0691605,0.36389214000000003,9.724074210000001,0.003103,0.001173,0.001868,-98.593613,104.724762,-122.182892,60.187665,24.830102,12.275963,21.894098,-1.0,-1.0,100.074013,0.192894,3.130052,-0.033581,-1.875149
880264.539068,0.07603731000000001,0.35431757999999997,9.75431844,0.003036,0.004684,0.005497,-98.45784,104.437454,-122.020432,60.187665,24.830102,12.275963,21.894098,-1.0,-1.0,100.074013,0.192894,3.130057,-0.033587,-1.875138
880264.559054,0.07184844,0.32018859000000005,9.7784118,0.003306,0.001649,0.004315,-98.468842,104.524918,-122.183578,60.187665,24.830102,12.275963,21.894098,-1.0,-1.0,100.074013,0.192894,3.130069,-0.033587,-1.875158
880264.579039,0.07079877000000001,0.31629402,9.77407578,0.00161,0.002983,0.004368,-98.366592,104.751846,-121.984268,60.187665,24.830102,12.275963,21.894098,-1.0,-1.0,100.074013,0.192894,3.130071,-0.033597,-1.875165
880264.599025,0.07903917,0.31629402,9.755368110000001,0.004728,0.003229,0.003472,-97.952087,104.600067,-122.265076,60.187665,24.830102,12.275963,21.894098,-1.0,-1.0,100.074013,0.192894,3.130082,-0.033604,-1.87517
880264.619011,0.06706116000000001,0.28709946000000003,9.747127710000001,0.002164,-0.001342,0.00405,-97.868546,104.607483,-121.685471,60.187665,24.830102,12.275963,21.894098,-1.0,-1.0,100.074013,0.192894,3.130081,-0.033618,-1.875176
880264.638997,0.07903917,0.2718351,9.76164651,0.002662,0.00306,0.003564,-97.903168,104.585861,-122.031525,60.187665,24.830102,12.275963,21.894098,-1.0,-1.0,100.074013,0.192894,3.130068,-0.033617,-1.875182
880264.678968,0.06137136000000001,0.28874754,9.75072798,0.00291,0.000581,0.004669,-97.748688,104.70488,-122.108032,60.187665,24.830102,12.275963,21.894098,-1.0,-1.0,100.074013,0.192894,3.130065,-0.033622,-1.87519
880264.698955,0.07065162,0.28410741,9.76060665,0.004714,0.001609,0.002884,-97.748688,104.70488,-122.108032,60.187665,24.830102,12.275963,21.894098,-1.0,-1.0,100.074013,0.192894,3.130067,-0.033631,-1.875195
880264.718941,0.07155414,0.29024847,9.73306017,0.001433,0.002342,0.003392,-97.824432,104.631241,-122.105484,60.187665,24.830102,12.275963,21.894098,-1.0,-1.0,100.074013,0.192894,3.130066,-0.033638,-1.875198
880264.738927,0.07768539,0.30147111000000004,9.76913154,0.003102,0.002218,0.003648,-97.774078,104.794937,-121.98027,60.187665,24.830102,12.275963,21.894098,-1.0,-1.0,100.074013,0.192894,3.130066,-0.033636,-1.875174
880264.738927,0.07768539,0.30147111000000004,9.76913154,0.003102,0.002218,0.003648,-97.774078,104.794937,-121.98027,60.187665,24.830102,12.275963,21.894098,-1.0,-1.0,100.074013,0.192894,3.130066,-0.033636,-1.875174
880264.758913,0.06196977,0.30386475,9.76599234,0.001089,-0.000307,0.001702,-97.822037,104.634109,-121.952942,60.187665,24.830102,12.275963,21.894098,-1.0,-1.0,100.074013,0.192894,3.130061,-0.03364,-1.875169
880264.798884,0.08412075,0.3239262,9.76090095,0.00297,0.00097,0.004084,-98.148254,104.635986,-122.237839,60.187665,24.830102,12.275963,21.894098,-1.0,-1.0,100.074013,0.192894,3.130062,-0.033645,-1.875152
880264.81887,0.06601149,0.32976315,9.75326877,-0.000392,0.003125,0.005715,-98.348633,104.457596,-121.937912,60.187665,24.830102,12.275963,21.894098,-1.0,-1.0,100.074013,0.192894,3.130061,-0.033645,-1.875148
880264.838856,0.06511878,0.3441348,9.72647766,0.003758,0.002368,0.003073,-98.290131,104.630142,-122.007263,60.187665,24.830102,12.275963,21.894098,-1.0,-1.0,100.074013,0.192894,3.130073,-0.033643,-1.875147
880264.838856,0.06511878,0.3441348,9.72647766,0.003758,0.002368,0.003073,-98.290131,104.630142,-122.007263,60.187665,24.830102,12.275963,21.894098,-1.0,-1.0,100.074013,0.192894,3.130073,-0.033643,-1.875147
880264.878828,0.0811287,0.33380487000000003,9.755515260000001,0.003592,0.003124,0.002843,-98.230728,104.547302,-121.819153,60.187665,24.830102,12.275963,21.894098,-1.0,-1.0,100.074013,0.192894,3.13008,-0.033651,-1.875156
880264.898814,0.07349652000000001,0.33260805,9.75745764,0.003519,0.001878,0.00317,-98.409058,104.497635,-122.059265,60.187665,24.830102,12.275963,21.894098,-1.0,-1.0,100.074013,0.192894,3.130089,-0.03366,-1.875142
880264.9188,0.07469334000000001,0.33246090000000006,9.73829871,0.002541,0.003358,0.005194,-98.14267,104.648422,-122.115631,60.187665,24.830102,12.275963,21.894098,-1.0,-1.0,100.074013,0.192894,3.130073,-0.033671,-1.875137
880264.938786,0.07619427,0.3034233,9.78829047,0.004173,0.000795,0.004194,-98.170807,104.521622,-122.148285,60.187665,24.830102,12.275963,21.894098,-1.0,-1.0,100.074013,0.192894,3.130078,-0.033669,-1.875139
880264.958772,0.06675705000000001,0.31134978,9.76404996,0.002888,0.002558,0.003432,-98.28923,104.388962,-122.217194,60.187665,24.830102,12.275963,21.894098,-1.0,-1.0,100.074013,0.192894,3.130071,-0.033676,-1.875144
880264.978757,0.06571719000000001,0.31419468,9.76688505,0.004202,0.002587,0.003611,-98.226257,104.582855,-122.366486,60.187665,24.830102,12.275963,21.894098,-1.0,-1.0,100.074013,0.192894,3.130078,-0.033685,-1.875141
880264.998743,0.07394778,0.30027429,9.77601816,0.003027,0.000233,0.00351,-98.077835,104.591293,-122.258057,60.187665,24.830102,12.275963,21.894098,-1.0,-1.0,100.074013,0.192894,3.130075,-0.033699,-1.875132
880264.998743,0.07394778,0.30027429,9.77601816,0.003027,0.000233,0.00351,-98.077835,104.591293,-122.258057,60.187665,24.830102,12.275963,21.894098,-1.0,-1.0,100.074013,0.192894,3.130075,-0.033699,-1.875132
880265.038715,0.07784234999999999,0.30821058,9.76195062,0.004521,0.001945,0.004037,-98.256729,104.513077,-122.593964,60.187665,24.830102,12.275963,21.894098,-1.0,-1.0,100.074013,0.192894,3.130088,-0.0337,-1.875129
880265.058701,0.08502327,0.29952873,9.77287896,0.002014,0.001933,0.002208,-97.901459,104.486954,-122.052887,60.187665,24.830102,12.275963,21.894098,-1.0,-1.0,100.074013,0.192894,3.130089,-0.033708,-1.875129
880265.078687,0.06466752,0.31134978,9.76224492,0.003541,0.003401,0.004217,-98.080872,104.415192,-122.1828,60.187665,24.830102,12.275963,21.894098,-1.0,-1.0,100.074013,0.192894,3.130089,-0.033713,-1.875119
880265.098672,0.07005321,0.32423030999999997,9.752366250000001,0.003734,-6.6e-05,0.004027,-98.355728,104.323639,-122.149979,60.187665,24.830102,12.275963,21.894098,-1.0,-1.0,100.074013,0.192894,3.130095,-0.033714,-1.875123
880265.118659,0.08906499000000001,0.32527017,9.76704201,0.005084,0.001525,0.005089,-98.406113,104.393372,-122.26001,60.187665,24.830102,12.275963,21.894098,-1.0,-1.0,100.074013,0.192894,3.130099,-0.033728,-1.875118
880265.138645,0.06571719000000001,0.32377905,9.7812567,0.003963,0.000915,0.003147,-98.198456,104.714691,-122.359314,60.187665,24.830102,12.275963,21.894098,-1.0,-1.0,100.074013,0.192894,3.130095,-0.033751,-1.875126
880265.158631,0.07679268,0.32946885,9.73380573,0.003963,0.000915,0.003147,-98.410141,104.896973,-122.115143,60.187665,24.830102,12.275963,21.894098,-1.0,-1.0,100.074013,0.192894,3.130094,-0.033757,-1.875118
880265.178617,0.07469334000000001,0.32363190000000003,9.76404996,0.003826,0.001239,0.002817,-98.492249,104.546188,-122.265549,60.187665,24.830102,12.275963,21.894098,-1.0,-1.0,100.074013,0.192894,3.130111,-0.033772,-1.875098
880265.198603,0.07139718,0.3150972,9.752670360000002,0.001614,0.001206,0.003888,-98.179626,104.857285,-122.280731,60.187665,24.830102,12.275963,21.894098,-1.0,-1.0,100.074013,0.192894,3.130096,-0.033772,-1.875091
880265.218588,0.07215255000000001,0.33186249,9.737101890000002,0.003444,0.003899,0.003095,-98.256851,104.673294,-122.22052,60.187665,24.830102,12.275963,21.894098,-1.0,-1.0,100.074013,0.192894,3.130108,-0.03377,-1.875082
880265.238574,0.07918631999999999,0.30716091,9.780962400000002,0.00306,0.001542,0.002681,-98.06105,104.799133,-122.486313,60.187665,24.830102,12.275963,21.894098,-1.0,-1.0,100.074013,0.192894,3.130107,-0.033783,-1.875078
880265.25856,0.0754389,0.31913892,9.746235,0.002056,0.000598,0.003027,-98.193878,104.608719,-122.272934,60.187665,24.830102,12.275963,21.894098,-1.0,-1.0,100.074013,0.192894,3.130115,-0.033783,-1.875069
880265.278546,0.07693983,0.31883481,9.72691911,0.004434,0.002945,0.003325,-98.176804,104.474289,-122.245956,60.187665,24.830102,12.275963,21.894098,-1.0,-1.0,100.074013,0.192894,3.130122,-0.033798,-1.875069
880265.298532,0.06795387,0.3065625,9.763294590000001,0.00213,0.001041,0.00356,-97.73494,104.502991,-121.877701,60.187665,24.830102,12.275963,21.894098,-1.0,-1.0,100.074013,0.192894,3.13012,-0.033804,-1.875069
880265.318518,0.07079877000000001,0.30042144,9.76508982,0.003095,0.003088,0.004352,-98.156342,104.727676,-122.047745,60.187665,24.830102,12.275963,21.894098,-1.0,-1.0,100.074013,0.192894,3.130124,-0.033808,-1.875064
880265.338504,0.07125003,0.31060422000000004,9.75640797,0.002381,0.002296,0.004129,-98.061859,104.511627,-122.260696,60.187665,24.830102,12.275963,21.894098,-1.0,-1.0,100.074013,0.192894,3.130122,-0.033807,-1.875071
880265.35849,0.07768539,0.31270356000000005,9.743841360000001,0.003208,0.003088,0.003482,-98.183823,104.650543,-121.925629,60.187665,24.830102,12.275963,21.894098,-1.0,-1.0,100.074013,0.192894,3.130129,-0.033815,-1.87507
880265.35849,0.07768539,0.31270356000000005,9.743841360000001,0.003208,0.003088,0.003482,-98.183823,104.650543,-121.925629,60.187665,24.830102,12.275963,21.894098,-1.0,-1.0,100.074013,0.192894,3.130129,-0.033815,-1.87507
880265.398462,0.08023599000000001,0.32258223,9.75716334,0.004124,0.001247,0.003584,-97.902756,104.59082,-121.956146,60.187665,24.830102,12.275963,21.894098,-1.0,-1.0,100.074013,0.192894,3.130142,-0.033818,-1.875075
880265.418448,0.06122421,0.31689243,9.774968490000001,0.002919,0.003425,0.003874,-97.902756,104.59082,-121.956146,60.187665,24.830102,12.275963,21.894098,-1.0,-1.0,100.074013,0.192894,3.130153,-0.033847,-1.87507
880265.438434,0.07139718,0.32213097,9.76060665,0.002214,0.001687,0.003796,-97.641068,104.868317,-121.942596,60.187665,24.830102,12.275963,21.894098,-1.0,-1.0,100.074013,0.192894,3.13016,-0.033838,-1.875069
880265.478406,0.08786817,0.31404753,9.78230637,0.003715,0.003815,0.0043,-98.079254,104.731476,-122.26622,60.187665,24.830102,12.275963,21.894098,-1.0,-1.0,100.074013,0.192894,3.130165,-0.033866,-1.875096
880265.498392,0.06571719000000001,0.31808925000000005,9.765246780000002,0.002039,-0.00014,0.002956,-98.055954,104.839951,-122.276703,60.187665,24.830102,12.275963,21.894098,-1.0,-1.0,100.074013,0.192894,3.130157,-0.033873,-1.875114
880265.498392,0.06571719000000001,0.31808925000000005,9.765246780000002,0.002039,-0.00014,0.002956,-98.055954,104.839951,-122.276703,60.187665,24.830102,12.275963,21.894098,-1.0,-1.0,100.074013,0.192894,3.130157,-0.033873,-1.875114
880265.518376,0.07409493,0.3210813,9.749227050000002,0.003139,0.004128,0.003728,-98.101822,104.695496,-122.41333,60.187665,24.830102,12.275963,21.894098,-1.0,-1.0,100.074013,0.192894,3.13017,-0.03388,-1.875112
880265.558349,0.07125003,0.30506157,9.76300029,0.00217,0.002509,0.005702,-98.011185,104.575302,-121.812363,60.187665,24.830102,12.275963,21.894098,-1.0,-1.0,100.074013,0.192894,3.130192,-0.0339,-1.87513
880265.578335,0.06511878,0.30806343,9.78021684,0.003328,0.004333,0.004428,-97.982391,104.565872,-122.176071,60.187665,24.830102,12.275963,21.894098,-1.0,-1.0,100.074013,0.192894,3.130202,-0.033914,-1.87513
880265.598321,0.06960195,0.32407335000000004,9.75805605,0.004148,0.002643,0.004065,-98.185944,104.691803,-121.830109,60.187665,24.830102,12.275963,21.894098,-1.0,-1.0,100.074013,0.192894,3.130217,-0.033923,-1.875128
880265.618307,0.07244685000000001,0.31090833,9.771378030000001,0.002902,0.002396,0.005633,-98.000412,104.72467,-121.941574,60.187665,24.830102,12.275963,21.894098,-1.0,-1.0,100.074013,0.192894,3.130249,-0.033944,-1.87512
880265.638293,0.08143281,0.32631984,9.79368597,0.002223,0.00157,0.003698,-98.044785,104.836288,-121.953979,60.187665,24.830102,12.275963,21.894098,-1.0,-1.0,100.074013,0.192894,3.130254,-0.033942,-1.87513
880265.658279,0.07753824,0.3239262,9.77751909,0.003892,0.002819,0.003374,-98.10965,104.654694,-122.062515,60.187665,24.830102,12.275963,21.894098,-1.0,-1.0,100.074013,0.192894,3.130261,-0.03394,-1.875135
880265.678265,0.08248248000000001,0.33351057,9.771829290000001,0.004273,0.000751,0.002295,-98.150803,104.697083,-122.005585,60.187665,24.830102,12.275963,21.894098,-1.0,-1.0,100.074013,0.192894,3.130263,-0.033956,-1.875129
880265.698251,0.06990606,0.31689243,9.7781175,0.002545,0.001592,0.004186,-98.164322,104.684082,-121.964508,60.187665,24.830102,12.275963,21.894098,-1.0,-1.0,100.074013,0.192894,3.130255,-0.033963,-1.875127
880265.698251,0.06990606,0.31689243,9.7781175,0.002545,0.001592,0.004186,-98.164322,104.684082,-121.964508,60.187665,24.830102,12.275963,21.894098,-1.0,-1.0,100.074013,0.192894,3.130255,-0.033963,-1.875127
880265.698251,0.06990606,0.31689243,9.7781175,0.002545,0.001592,0.004186,-98.164322,104.684082,-121.964508,60.187665,24.830102,12.275963,21.894098,-1.0,-1.0,100.074013,0.192894,3.130255,-0.033963,-1.875127
880265.758209,0.07469334000000001,0.33170553,9.779167170000001,0.003251,0.000861,0.005235,-98.20311,104.540985,-122.540787,60.187665,24.830102,12.275963,21.894098,-1.0,-1.0,100.074013,0.192894,3.1303,-0.033964,-1.875124
880265.778195,0.07110288000000001,0.33110712,9.77766624,0.001638,-0.000218,0.003861,-98.266174,104.527344,-122.205643,60.187665,24.830102,12.275963,21.894098,-1.0,-1.0,100.074013,0.192894,3.130308,-0.033969,-1.875124
880265.798181,0.07679268,0.31479309,9.77871591,0.002653,0.00203,0.003812,-97.990402,104.553787,-122.37355,60.187665,24.830102,12.275963,21.894098,-1.0,-1.0,100.074013,0.192894,3.130334,-0.033963,-1.875116
880265.818167,0.06556023,0.32213097,9.768238830000001,0.002374,0.000146,0.004159,-98.164505,104.679932,-122.32663,60.187665,24.830102,12.275963,21.894098,-1.0,-1.0,100.074013,0.192894,3.130357,-0.033973,-1.875109
880265.838153,0.07289811,0.32093415000000003,9.7493742,0.00079,0.001691,0.005698,-98.194672,104.580673,-122.159912,60.187665,24.830102,12.275963,21.894098,-1.0,-1.0,100.07402,0.192894,3.130376,-0.033968,-1.875111
880265.858139,0.07125003,0.320787,9.76374585,0.004396,0.000555,0.003452,-98.141876,104.498718,-122.257629,60.187665,24.830102,12.275963,21.894098,-1.0,-1.0,100.07402,0.192894,3.130412,-0.03398,-1.875114
880265.878124,0.06706116000000001,0.31598991,9.77092677,0.000487,-0.000475,0.004017,-98.162155,104.739029,-122.424438,60.187665,24.830102,12.275963,21.894098,-1.0,-1.0,100.07402,0.192894,3.130405,-0.03399,-1.875107
880265.89811,0.07184844,0.30955455000000004,9.75850731,0.002879,0.000755,0.004837,-98.180206,104.451859,-122.747787,60.187665,24.830102,12.275963,21.894098,-1.0,-1.0,100.07402,0.192894,3.130412,-0.033984,-1.875104
880265.918096,0.07289811,0.31464594,9.760008240000001,0.003759,0.0013,0.003427,-98.327225,104.617188,-122.454697,60.187665,24.830102,12.275963,21.894098,-1.0,-1.0,100.07402,0.192894,3.130425,-0.033987,-1.875103
880265.938082,0.0811287,0.33095997000000005,9.752817510000002,0.003056,0.002004,0.003283,-98.541183,104.672684,-122.528778,60.187665,24.830102,12.275963,21.894098,-1.0,-1.0,100.07402,0.192894,3.130438,-0.033994,-1.875096
880265.958068,0.06541308000000001,0.31270356000000005,9.76300029,0.003519,0.001611,0.003433,-98.265732,104.560989,-122.218109,60.187665,24.830102,12.275963,21.894098,-1.0,-1.0,100.07402,0.192894,3.130438,-0.034002,-1.875085
880265.978054,0.07289811,0.32946885,9.749227050000002,0.003002,0.001423,0.002718,-98.134949,104.716782,-122.689377,60.187665,24.830102,12.275963,21.894098,-1.0,-1.0,100.07402,0.192894,3.130438,-0.034006,-1.875083
880265.99804,0.060772950000000006,0.32423030999999997,9.767787570000001,0.005146,0.003798,0.004363,-98.235336,104.560425,-122.41095,60.187665,24.830102,12.275963,21.894098,-1.0,-1.0,100.07402,0.192894,3.130436,-0.034027,-1.875075
880266.018026,0.07484049000000001,0.31015296,9.775871010000001,0.003037,-5e-05,0.005637,-97.822662,104.823349,-122.276718,60.187665,24.830102,12.275963,21.894098,-1.0,-1.0,100.07402,0.192894,3.130446,-0.03404,-1.875076
880266.038012,0.08337519,0.31913892,9.75386718,0.003643,0.003292,0.003726,-98.230957,104.711288,-122.41214,60.187665,24.830102,12.275963,21.894098,-1.0,-1.0,100.07402,0.192894,3.130432,-0.034045,-1.875098
880266.057998,0.06975891000000001,0.32423030999999997,9.75671208,0.003434,0.002264,0.004335,-98.115845,104.639526,-122.776382,60.187665,24.830102,12.275963,21.894098,-1.0,-1.0,100.07402,0.192894,3.13045,-0.034067,-1.875097
880266.09797,0.09445068,0.320787,9.75731049,0.003791,0.002655,0.005789,-98.037781,104.580704,-122.638382,60.187665,24.830102,12.275963,21.894098,-1.0,-1.0,100.07402,0.192894,3.130463,-0.034074,-1.875074
880266.117956,0.06945480000000001,0.32048288999999996,9.76554108,0.001462,0.002007,0.005225,-97.952896,104.685715,-122.644928,60.187665,24.830102,12.275963,21.894098,-1.0,-1.0,100.07402,0.192894,3.130469,-0.034088,-1.875102
880266.117956,0.06945480000000001,0.32048288999999996,9.76554108,0.001462,0.002007,0.005225,-97.952896,104.685715,-122.644928,60.187665,24.830102,12.275963,21.894098,-1.0,-1.0,100.07402,0.192894,3.130469,-0.034088,-1.875102
880266.157928,0.08696565,0.32347494000000004,9.74099646,0.005947,0.004141,0.002465,-98.056046,104.849121,-122.376022,60.187665,24.830102,12.275963,21.894098,-1.0,-1.0,100.07402,0.192894,3.130492,-0.034085,-1.875118
880266.157928,0.08696565,0.32347494000000004,9.74099646,0.005947,0.004141,0.002465,-98.056046,104.849121,-122.376022,60.187665,24.830102,12.275963,21.894098,-1.0,-1.0,100.07402,0.192894,3.130492,-0.034085,-1.875118
880266.1979,0.08547453,0.31808925000000005,9.77960862,0.002319,0.000484,0.004186,-98.093857,104.600189,-122.774429,60.187665,24.830102,12.275963,21.894098,-1.0,-1.0,100.07402,0.192894,3.130489,-0.034095,-1.875094
880266.217886,0.06331374,0.32138541,9.77737194,0.003574,0.001252,0.003319,-97.926331,104.786377,-122.576126,60.187665,24.830102,12.275963,21.894098,-1.0,-1.0,100.07402,0.192894,3.130493,-0.034086,-1.875094
880266.237872,0.06975891000000001,0.31763799,9.77661657,0.004779,0.002011,0.007282,-98.053604,104.886322,-122.500443,60.187665,24.830102,12.275963,21.894098,-1.0,-1.0,100.07402,0.192894,3.1305,-0.034088,-1.875078
880266.237872,0.06975891000000001,0.31763799,9.77661657,0.004779,0.002011,0.007282,-98.053604,104.886322,-122.500443,60.187665,24.830102,12.275963,21.894098,-1.0,-1.0,100.07402,0.192894,3.1305,-0.034088,-1.875078
880266.277844,0.06840513000000001,0.32602554,9.751473540000001,0.003065,0.001135,0.003662,-98.085922,104.809631,-122.585098,60.187665,24.830102,12.275963,21.894098,-1.0,-1.0,100.07402,0.192894,3.1305,-0.034127,-1.875093
880266.29783,0.08172711,0.32766381,9.76374585,0.005321,0.002585,0.004189,-98.086319,104.941498,-122.382568,60.187665,24.830102,12.275963,21.894098,-1.0,-1.0,100.07402,0.192894,3.130509,-0.03415,-1.875089
880266.317816,0.06720831000000001,0.30806343,9.799670070000001,0.001267,-0.001611,0.004267,-98.154114,104.677689,-122.502258,60.187665,24.830102,12.275963,21.894098,-1.0,-1.0,100.07402,0.192894,3.130489,-0.034155,-1.875086
880266.337802,0.06990606,0.32347494000000004,9.76913154,0.00261,0.002573,0.005361,-98.096039,104.807709,-122.555573,60.187665,24.830102,12.275963,21.894098,-1.0,-1.0,100.07402,0.192894,3.130483,-0.03415,-1.87508
880266.357788,0.07409493,0.33095997000000005,9.76972995,0.003776,0.000353,0.005678,-97.997131,104.985565,-122.258377,60.187665,24.830102,12.275963,21.894098,-1.0,-1.0,100.07402,0.192894,3.130485,-0.034159,-1.875091
880266.357788,0.07409493,0.33095997000000005,9.76972995,0.003776,0.000353,0.005678,-97.997131,104.985565,-122.258377,60.187665,24.830102,12.275963,21.894098,-1.0,-1.0,100.07402,0.192894,3.130485,-0.034159,-1.875091
880266.397759,0.06856209,0.32527017,9.76508982,0.004638,0.00207,0.004716,-98.100052,104.709976,-122.441345,60.187665,24.830102,12.275963,21.894098,-1.0,-1.0,100.07402,0.192894,3.130511,-0.034176,-1.875114
880266.417745,0.08248248000000001,0.32437746,9.77392863,0.002623,0.001248,0.003576,-98.157715,104.759232,-122.457031,60.187665,24.830102,12.275963,21.894098,-1.0,-1.0,100.07402,0.192894,3.130517,-0.034186,-1.875138
880266.437731,0.08098155,0.31494024000000004,9.79413723,0.004725,0.000643,0.005156,-97.986053,104.828674,-122.209152,60.187665,24.830102,12.275963,21.894098,-1.0,-1.0,100.07402,0.192894,3.130526,-0.034196,-1.87513
880266.457717,0.07768539,0.30536568000000003,9.80071974,0.001606,-0.000528,0.003335,-98.142029,104.854675,-122.299438,60.187665,24.830102,12.275963,21.894098,-1.0,-1.0,100.07402,0.192894,3.130524,-0.034203,-1.87513
880266.477703,0.07244685000000001,0.32931189000000005,9.759409830000001,0.003267,0.002842,0.005108,-98.188049,104.704346,-122.262878,60.187665,24.830102,12.275963,21.894098,-1.0,-1.0,100.07402,0.192894,3.130515,-0.034205,-1.875129
880266.497689,0.07275096,0.32153256,9.765246780000002,0.003096,0.000795,0.001584,-98.195328,104.802536,-122.279388,60.187665,24.830102,12.275963,21.894098,-1.0,-1.0,100.07402,0.192894,3.130529,-0.034216,-1.87514
880266.517675,0.07260381,0.30506157,9.79892451,0.002126,0.000162,0.005289,-97.929138,104.960114,-122.443344,60.187665,24.830102,12.275963,21.894098,-1.0,-1.0,100.07402,0.192894,3.130525,-0.034221,-1.87513
880266.537661,0.08831943,0.33110712,9.768385980000001,0.003749,0.003936,0.004332,-97.957535,104.910645,-122.300461,60.187665,24.830102,12.275963,21.894098,-1.0,-1.0,100.07402,0.192894,3.13052,-0.034221,-1.875152
880266.557647,0.07903917,0.32856633,9.78170796,0.00322,0.000237,0.00422,-98.015625,104.775635,-122.501526,60.187665,24.830102,12.275963,21.894098,-1.0,-1.0,100.07402,0.192894,3.130547,-0.034221,-1.875161
880266.577633,0.07320222,0.30880899,9.7812567,0.004305,0.00173,0.004303,-98.000763,105.00499,-122.13504,60.187665,24.830102,12.275963,21.894098,-1.0,-1.0,100.07402,0.192894,3.130548,-0.034226,-1.875163
880266.597619,0.06735546,0.31165389,9.751473540000001,0.001972,-0.00094,0.00521,-98.115524,104.945312,-122.492813,60.187665,24.830102,12.275963,21.894098,-1.0,-1.0,100.07402,0.192894,3.130558,-0.034229,-1.875159
880266.617605,0.07559586,0.32646699000000007,9.76224492,0.00316,0.001583,0.005076,-98.315918,104.700211,-122.309052,60.187665,24.830102,12.275963,21.894098,-1.0,-1.0,100.07402,0.192894,3.130567,-0.034224,-1.875171
880266.637591,0.07753824,0.32931189000000005,9.767189160000001,0.004606,0.002692,0.003365,-98.142838,104.914276,-122.420074,60.187665,24.830102,12.275963,21.894098,-1.0,-1.0,100.07402,0.192894,3.130586,-0.034225,-1.875177
880266.657577,0.07663572,0.31194819,9.78859458,0.001396,0.001416,0.003446,-97.976883,104.96489,-122.465988,60.187665,24.830102,12.275963,21.894098,-1.0,-1.0,100.07402,0.192894,3.130576,-0.034227,-1.875179
880266.677564,0.08172711,0.33545295,9.74159487,0.004247,0.003049,0.00416,-97.995438,105.012726,-122.567001,60.187665,24.830102,12.275963,21.894098,-1.0,-1.0,100.07402,0.192894,3.130583,-0.03423,-1.875173
880266.69755,0.0836793,0.33141123,9.79218504,0.00331,0.001891,0.005579,-98.310318,104.863022,-122.428757,60.187665,24.830102,12.275963,21.894098,-1.0,-1.0,100.07402,0.192894,3.130599,-0.034237,-1.875172
880266.717536,0.06436341000000001,0.30910329000000003,9.77632227,0.002022,0.000292,0.003597,-98.055649,104.761536,-122.570099,60.187665,24.830102,12.275963,21.894098,-1.0,-1.0,100.07402,0.192894,3.130596,-0.034237,-1.875166
880266.737522,0.07215255000000001,0.33634566,9.751326390000001,0.004299,0.00186,0.004487,-98.222473,104.71283,-122.644196,60.187665,24.830102,12.275963,21.894098,-1.0,-1.0,100.07402,0.192894,3.130586,-0.034252,-1.875186
880266.757508,0.08098155,0.32542713,9.77766624,0.001705,0.000689,0.00512,-98.150986,104.835434,-122.590912,60.187665,24.830102,12.275963,21.894098,-1.0,-1.0,100.07402,0.192894,3.130591,-0.034263,-1.875185
880266.777494,0.07634142000000001,0.31703958,9.800121330000001,0.004252,0.001512,0.006694,-98.113327,104.772049,-122.217804,60.187665,24.830102,12.275963,21.894098,-1.0,-1.0,100.07402,0.192894,3.130582,-0.034261,-1.8752
880266.817466,0.09100737,0.32363190000000003,9.759704130000001,0.004824,0.001341,0.004694,-98.203323,104.860031,-122.665741,60.187665,24.830102,12.275963,21.894098,-1.0,-1.0,100.07402,0.192894,3.13058,-0.034265,-1.875237
880266.837452,0.07139718,0.32602554,9.77108373,0.004203,0.001745,0.004005,-98.235977,104.844345,-122.470474,60.187665,24.830102,12.275963,21.894098,-1.0,-1.0,100.07402,0.192894,3.130567,-0.034275,-1.875241
880266.837452,0.07139718,0.32602554,9.77108373,0.004203,0.001745,0.004005,-98.235977,104.844345,-122.470474,60.187665,24.830102,12.275963,21.894098,-1.0,-1.0,100.07402,0.192894,3.130567,-0.034275,-1.875241
880266.857438,0.06975891000000001,0.31134978,9.80416305,0.002803,0.003158,0.005578,-98.235977,104.844345,-122.470474,60.187665,24.830102,12.275963,21.894098,-1.0,-1.0,100.07402,0.192894,3.130573,-0.034265,-1.875239
880266.89741,0.07589016,0.32452461,9.7929306,0.001368,0.002044,0.00403,-98.140198,104.718643,-122.67868,60.187665,24.830102,12.275963,21.894098,-1.0,-1.0,100.07402,0.192894,3.130601,-0.034264,-1.875262
880266.917396,0.06481467,0.31569561,9.787692060000001,0.004145,0.001706,0.004687,-98.107956,104.70018,-122.23851,60.187665,24.830102,12.275963,21.894098,-1.0,-1.0,100.074249,0.171753,3.130628,-0.034261,-1.875263
880266.917396,0.06481467,0.31569561,9.787692060000001,0.004145,0.001706,0.004687,-98.107956,104.70018,-122.23851,60.187665,24.830102,12.275963,21.894098,-1.0,-1.0,100.074249,0.171753,3.130628,-0.034261,-1.875263
880266.957368,0.07873506000000001,0.31734369000000007,9.77601816,0.002558,0.003429,0.00402,-98.205505,104.494949,-122.494141,60.187665,24.830102,12.275963,21.894098,-1.0,-1.0,100.074249,0.171753,3.130649,-0.034274,-1.875257
880266.957368,0.07873506000000001,0.31734369000000007,9.77601816,0.002558,0.003429,0.00402,-98.205505,104.494949,-122.494141,60.187665,24.830102,12.275963,21.894098,-1.0,-1.0,100.074249,0.171753,3.130649,-0.034274,-1.875257
880266.99734,0.08128566000000001,0.32976315,9.77287896,0.002462,0.001913,0.003612,-98.155411,104.700684,-122.553757,60.187665,24.830102,12.275963,21.894098,-1.0,-1.0,100.074249,0.171753,3.130684,-0.034256,-1.875276
880267.017326,0.07139718,0.31703958,9.77871591,0.004188,0.00181,0.004389,-98.384415,104.592575,-122.270401,60.187665,24.830102,12.275963,21.894098,-1.0,-1.0,100.074249,0.171753,3.130709,-0.034248,-1.875276
880267.037312,0.07424208,0.31598991,9.78529842,0.00163,-0.002209,0.003672,-98.12355,104.710129,-122.600845,60.187665,24.830102,12.275963,21.894098,-1.0,-1.0,100.074249,0.171753,3.130717,-0.034246,-1.875273
880267.037312,0.07424208,0.31598991,9.78529842,0.00163,-0.002209,0.003672,-98.12355,104.710129,-122.600845,60.187665,24.830102,12.275963,21.894098,-1.0,-1.0,100.074249,0.171753,3.130717,-0.034246,-1.875273
880267.077284,0.07708698000000001,0.32423030999999997,9.771829290000001,0.001509,0.0015,0.003173,-98.482559,104.642044,-122.646927,60.187665,24.830102,12.275963,21.894098,-1.0,-1.0,100.074249,0.171753,3.130742,-0.034241,-1.875287
880267.09727,0.07499745000000001,0.32093415000000003,9.77032836,0.001368,6.3e-05,0.004123,-98.215958,104.666962,-122.357574,60.187665,24.830102,12.275963,21.894098,-1.0,-1.0,100.074249,0.171753,3.130746,-0.034226,-1.875291
880267.117256,0.07903917,0.32527017,9.764942670000002,0.004932,0.003225,0.004315,-98.218857,104.670258,-122.314911,60.187665,24.830102,12.275963,21.894098,-1.0,-1.0,100.074249,0.171753,3.130747,-0.034229,-1.875283
880267.137242,0.07005321,0.3179421,9.756260820000001,0.004084,0.000119,0.00386,-98.395309,104.634247,-122.265732,60.187665,24.830102,12.275963,21.894098,-1.0,-1.0,100.074249,0.171753,3.130755,-0.034237,-1.87529
880267.157228,0.06017454,0.31479309,9.78215922,0.002871,0.002512,0.005507,-98.44899,104.622787,-122.389099,60.187665,24.830102,12.275963,21.894098,-1.0,-1.0,100.074249,0.171753,3.130757,-0.034241,-1.875271
880267.177214,0.07364367000000001,0.320787,9.743841360000001,0.002951,0.00321,0.003638,-98.355423,104.58638,-122.404083,60.187665,24.830102,12.275963,21.894098,-1.0,-1.0,100.074249,0.171753,3.130763,-0.034237,-1.875269
880267.1972,0.08292393,0.33110712,9.74832453,0.003694,0.004465,0.003622,-98.412064,104.699722,-122.56926,60.187665,24.830102,12.275963,21.894098,-1.0,-1.0,100.074249,0.171753,3.130772,-0.034247,-1.875271
880267.217185,0.07693983,0.320787,9.77601816,0.004427,0.003517,0.003675,-98.329453,105.017136,-122.656845,60.187665,24.830102,12.275963,21.894098,-1.0,-1.0,100.074249,0.171753,3.130778,-0.034246,-1.875277
880267.237172,0.0782838,0.31644117000000005,9.784101600000001,0.003159,0.001646,0.002955,-98.247757,104.846542,-122.772659,60.187665,24.830102,12.275963,21.894098,-1.0,-1.0,100.074249,0.171753,3.130777,-0.034255,-1.87527
880267.257157,0.07858791000000001,0.31330197000000004,9.780815250000002,0.003345,0.003518,0.003649,-98.213394,104.734955,-122.681808,60.187665,24.830102,12.275963,21.894098,-1.0,-1.0,100.074249,0.171753,3.130775,-0.034246,-1.875279
880267.277143,0.07813665,0.32318064,9.76883724,0.003053,-1.6e-05,0.00275,-98.231171,104.610413,-122.801285,60.187665,24.830102,12.275963,21.894098,-1.0,-1.0,100.074249,0.171753,3.130773,-0.034247,-1.875284
880267.297129,0.06930765,0.32856633,9.76584519,0.003785,0.002992,0.00222,-98.370178,104.844971,-122.5979,60.187665,24.830102,12.275963,21.894098,-1.0,-1.0,100.074249,0.171753,3.130754,-0.034253,-1.875279
880267.297129,0.06930765,0.32856633,9.76584519,0.003785,0.002992,0.00222,-98.370178,104.844971,-122.5979,60.187665,24.830102,12.275963,21.894098,-1.0,-1.0,100.074249,0.171753,3.130754,-0.034253,-1.875279
880267.337101,0.0663156,0.33829785,9.795775500000001,0.002087,0.001195,0.004382,-98.220718,104.809097,-122.552567,60.187665,24.830102,12.275963,21.894098,-1.0,-1.0,100.074249,0.171753,3.130769,-0.034279,-1.87525
880267.357087,0.07424208,0.32557428000000005,9.77632227,0.003288,0.00212,0.002743,-98.416061,104.772308,-122.656387,60.187665,24.830102,12.275963,21.894098,-1.0,-1.0,100.074249,0.171753,3.130752,-0.03429,-1.875255
880267.377073,0.07559586,0.32332779000000006,9.78859458,0.001546,0.001972,0.004695,-98.242706,104.813599,-122.626221,60.187665,24.830102,12.275963,21.894098,-1.0,-1.0,100.074249,0.171753,3.130768,-0.034279,-1.87525
880267.397059,0.07663572,0.32796792,9.77781339,0.003368,0.003252,0.003489,-98.237732,104.683243,-122.564774,60.187665,24.830102,12.275963,21.894098,-1.0,-1.0,100.074249,0.171753,3.130779,-0.034277,-1.875269
880267.417045,0.07918631999999999,0.32871348000000006,9.79368597,0.003388,0.002572,0.003901,-98.394287,104.6754,-122.701172,60.187665,24.830102,12.275963,21.894098,-1.0,-1.0,100.074249,0.171753,3.130808,-0.034288,-1.875262
880267.437031,0.07903917,0.32227812,9.76764042,0.003007,9e-06,0.004531,-98.197906,104.869873,-122.678772,60.187665,24.830102,12.275963,21.894098,-1.0,-1.0,100.074249,0.171753,3.130828,-0.034283,-1.875271
880267.477003,0.07603731000000001,0.31988447999999997,9.76764042,0.002591,0.000316,0.00456,-98.287338,104.811874,-122.718842,60.187665,24.830102,12.275963,21.894098,-1.0,-1.0,100.074249,0.171753,3.130854,-0.034283,-1.875272
880267.477003,0.07603731000000001,0.31988447999999997,9.76764042,0.002591,0.000316,0.00456,-98.287338,104.811874,-122.718842,60.187665,24.830102,12.275963,21.894098,-1.0,-1.0,100.074249,0.171753,3.130854,-0.034283,-1.875272
880267.516975,0.07589016,0.32437746,9.779010210000001,0.00277,0.001483,0.003414,-98.352325,104.623001,-122.597458,60.187665,24.830102,12.275963,21.894098,-1.0,-1.0,100.074249,0.171753,3.130879,-0.034264,-1.875277
880267.536961,0.06885639,0.32437746,9.7894971,0.003335,0.000563,0.004565,-98.198608,104.896042,-122.54628,60.187665,24.830102,12.275963,21.894098,-1.0,-1.0,100.074249,0.171753,3.130888,-0.034255,-1.875272
880267.556947,0.08248248000000001,0.31494024000000004,9.78589683,0.00431,0.000638,0.003141,-98.19162,104.817352,-122.616318,60.187665,24.830102,12.275963,21.894098,-1.0,-1.0,100.074249,0.171753,3.130904,-0.034258,-1.875279
880267.556947,0.08248248000000001,0.31494024000000004,9.78589683,0.00431,0.000638,0.003141,-98.19162,104.817352,-122.616318,60.187665,24.830102,12.275963,21.894098,-1.0,-1.0,100.074249,0.171753,3.130904,-0.034258,-1.875279
880267.596919,0.05703534,0.32512302,9.771976440000001,0.004931,0.002519,0.00138,-98.281509,104.731934,-122.394943,60.187665,24.830102,12.275963,21.894098,-1.0,-1.0,100.074249,0.171753,3.130929,-0.034251,-1.87527
880267.616905,0.08053028999999999,0.33514884,9.78021684,0.00371,0.000594,0.003909,-98.167618,104.665802,-122.402679,60.187665,24.830102,12.275963,21.894098,-1.0,-1.0,100.074249,0.171753,3.130946,-0.034254,-1.875251
880267.636891,0.06047865000000001,0.32497587,9.763893,0.003537,0.00242,0.002713,-98.381332,104.490295,-122.476456,60.187665,24.830102,12.275963,21.894098,-1.0,-1.0,100.074249,0.171753,3.130956,-0.034248,-1.87526
880267.656877,0.07679268,0.32677110000000004,9.77946147,0.004936,0.002088,0.004528,-98.151627,104.568283,-122.211792,60.187665,24.830101,12.275963,37.744039,-1.0,-1.0,100.074249,0.171753,3.130976,-0.03426,-1.875254
880267.676863,0.07364367000000001,0.32617269000000004,9.79173378,0.002293,0.000714,0.00365,-98.0289,104.634995,-122.164902,60.187665,24.830101,12.275963,37.744039,-1.0,-1.0,100.074249,0.171753,3.13098,-0.034258,-1.875253
880267.696849,0.07199559,0.33126408,9.78170796,0.003647,0.004407,0.00369,-98.119705,104.727158,-122.415466,60.187665,24.830101,12.275963,37.744039,-1.0,-1.0,100.074249,0.171753,3.130996,-0.034249,-1.875251
880267.716835,0.07529175,0.31374342,9.77677353,0.001913,0.002202,0.002237,-98.30748,104.916687,-122.447342,60.187665,24.830101,12.275963,37.744039,-1.0,-1.0,100.074249,0.171753,3.131,-0.034252,-1.875237
880267.736821,0.063765,0.33200964,9.779010210000001,0.002981,-0.000122,0.003596,-98.134796,104.829575,-122.583084,60.187665,24.830101,12.275963,37.744039,-1.0,-1.0,100.074249,0.171753,3.131018,-0.03423,-1.875225
880267.756807,0.06316659000000001,0.32452461,9.78889869,0.002626,0.000581,0.004988,-98.374207,104.763184,-122.275772,60.187665,24.830101,12.275963,37.744039,-1.0,-1.0,100.074249,0.171753,3.131026,-0.034223,-1.875224
880267.776793,0.08457201,0.32497587,9.780658290000002,0.002538,-0.001612,0.003359,-98.398544,104.675476,-122.60791,60.187665,24.830101,12.275963,37.744039,-1.0,-1.0,100.074249,0.171753,3.131028,-0.034212,-1.875231
880267.796779,0.06856209,0.32766381,9.75685923,0.00182,0.003521,0.002571,-98.324188,104.65126,-122.655533,60.187665,24.830101,12.275963,37.744039,-1.0,-1.0,100.074249,0.171753,3.131032,-0.034214,-1.875224
880267.816765,0.07349652000000001,0.33081282000000006,9.75776175,0.003797,0.000365,0.002659,-98.255905,104.753815,-122.526154,60.187665,24.830101,12.275963,37.744039,-1.0,-1.0,100.074249,0.171753,3.131059,-0.034202,-1.875202
880267.836751,0.07619427,0.32452461,9.79787484,0.004761,0.002336,0.005118,-98.358566,104.642776,-122.592621,60.187665,24.830101,12.275963,37.744039,-1.0,-1.0,100.074249,0.171753,3.131061,-0.034196,-1.875191
880267.856737,0.07020036,0.32258223,9.77617512,0.003686,0.001235,0.003773,-98.482376,104.545135,-122.295898,60.187665,24.830101,12.275963,37.744039,-1.0,-1.0,100.074249,0.171753,3.131066,-0.034197,-1.875197
880267.876723,0.07708698000000001,0.34518447,9.780962400000002,0.003844,0.000797,0.004848,-98.290222,104.599625,-122.185486,60.187665,24.830101,12.275963,37.744039,-1.0,-1.0,100.074249,0.171753,3.131073,-0.034199,-1.875193
880267.896709,0.07184844,0.31330197000000004,9.787250610000001,0.0026,0.001442,0.003879,-98.184525,104.869232,-122.390533,60.187665,24.830101,12.275963,37.744039,-1.0,-1.0,100.074249,0.171753,3.131064,-0.034202,-1.875194
880267.916695,0.07933347,0.32976315,9.75731049,0.001398,0.001378,0.004503,-98.440842,104.753616,-122.164444,60.187665,24.830101,12.275963,37.744039,-1.0,-1.0,100.074249,0.171753,3.131067,-0.034194,-1.875188
880267.936681,0.08067744,0.34862778,9.751473540000001,0.003856,0.003449,0.004818,-98.3461,104.902328,-122.284958,60.187665,24.830101,12.275963,37.744039,-1.0,-1.0,100.074249,0.171753,3.131086,-0.034193,-1.875208
880267.956667,0.07888221,0.32856633,9.78560253,0.004365,0.001878,0.002351,-98.255615,104.988434,-122.214676,60.187665,24.830101,12.275963,37.744039,-1.0,-1.0,100.074249,0.171753,3.131097,-0.034185,-1.875217
880267.976653,0.06586434000000001,0.33395202000000007,9.77512545,0.004149,0.002635,0.003975,-98.297424,104.821991,-122.654831,60.187665,24.830101,12.275963,37.744039,-1.0,-1.0,100.074249,0.171753,3.131095,-0.034184,-1.875195
880267.996639,0.07948062,0.34308513,9.76913154,0.005137,0.004551,0.003454,-98.260834,104.960571,-122.303009,60.187665,24.830101,12.275963,37.744039,-1.0,-1.0,100.074783,0.126831,3.131106,-0.034194,-1.875191
880268.036611,0.06945480000000001,0.32318064,9.80895033,0.003152,0.001596,0.002193,-98.253357,104.875122,-122.69902,60.187665,24.830101,12.275963,37.744039,-1.0,-1.0,100.074783,0.126831,3.131093,-0.034187,-1.875165
880268.036611,0.06945480000000001,0.32318064,9.80895033,0.003152,0.001596,0.002193,-98.253357,104.875122,-122.69902,60.187665,24.830101,12.275963,37.744039,-1.0,-1.0,100.074783,0.126831,3.131093,-0.034187,-1.875165
880268.076583,0.07978473,0.34368354000000007,9.77677353,0.004566,0.001984,0.004926,-98.236084,104.791336,-122.333466,60.187665,24.830101,12.275963,37.744039,-1.0,-1.0,100.074783,0.126831,3.131081,-0.034192,-1.875159
880268.096569,0.07484049000000001,0.31778514,9.80670384,0.001831,-0.00019,0.003129,-98.409042,104.701309,-122.298477,60.187665,24.830101,12.275963,37.744039,-1.0,-1.0,100.074783,0.126831,3.131079,-0.034196,-1.875158
880268.116555,0.08143281,0.32946885,9.77632227,0.002627,0.000807,0.003755,-98.373871,104.748383,-122.498184,60.187665,24.830101,12.275963,37.744039,-1.0,-1.0,100.074783,0.126831,3.131069,-0.034182,-1.875166
880268.136541,0.08203122,0.33664977,9.78919299,0.002507,0.001993,0.003243,-98.276093,104.806641,-122.525192,60.187665,24.830101,12.275963,37.744039,-1.0,-1.0,100.074783,0.126831,3.131077,-0.034188,-1.875168
880268.156527,0.07903917,0.3376994400000001,9.79457868,0.002408,-0.000565,0.003527,-98.353607,104.722382,-122.300552,60.187665,24.830101,12.275963,37.744039,-1.0,-1.0,100.074783,0.126831,3.131074,-0.034173,-1.87516
880268.156527,0.07903917,0.3376994400000001,9.79457868,0.002408,-0.000565,0.003527,-98.353607,104.722382,-122.300552,60.187665,24.830101,12.275963,37.744039,-1.0,-1.0,100.074783,0.126831,3.131074,-0.034173,-1.87516
880268.196499,0.07289811,0.32048288999999996,9.78993855,0.002697,-0.000308,0.00401,-98.164749,105.017242,-122.587433,60.187665,24.830101,12.275963,37.744039,-1.0,-1.0,100.074783,0.126831,3.13107,-0.034161,-1.875153
880268.216485,0.06706116000000001,0.33155838000000004,9.780658290000002,0.00136,-0.000149,0.005363,-98.102478,104.954178,-122.521362,60.187681,24.830092,12.293162,19.262776,-1.0,-1.0,100.074783,0.126831,3.131058,-0.034161,-1.875147
880268.216485,0.06706116000000001,0.33155838000000004,9.780658290000002,0.00136,-0.000149,0.005363,-98.102478,104.954178,-122.521362,60.187681,24.830092,12.293162,19.262776,-1.0,-1.0,100.074783,0.126831,3.131058,-0.034161,-1.875147
880268.256457,0.07349652000000001,0.34607718,9.76584519,0.001606,-0.001017,0.004111,-98.399078,104.632339,-122.61853,60.187681,24.830092,12.293162,19.262776,-1.0,-1.0,100.074783,0.126831,3.131081,-0.034169,-1.875169
880268.276443,0.07663572,0.32662395,9.771976440000001,0.003352,0.001689,0.005414,-98.37146,104.753876,-122.977188,60.187681,24.830092,12.293162,19.262776,-1.0,-1.0,100.074783,0.126831,3.131073,-0.034166,-1.875173
880268.29643,0.07229970000000001,0.32272938,9.78485697,0.003133,-6.8e-05,0.003853,-98.37146,104.753876,-122.977188,60.187681,24.830092,12.293162,19.262776,-1.0,-1.0,100.074783,0.126831,3.131078,-0.034147,-1.875178
880268.316416,0.07708698000000001,0.32332779000000006,9.759704130000001,0.002319,0.001793,0.005047,-98.334625,104.841797,-122.376495,60.187681,24.830092,12.293162,19.262776,-1.0,-1.0,100.074783,0.126831,3.131085,-0.034138,-1.875169
880268.336402,0.06990606,0.32467176000000003,9.76809168,0.00254,0.001984,0.003786,-98.294312,104.606644,-122.37796,60.187681,24.830092,12.293162,19.262776,-1.0,-1.0,100.074783,0.126831,3.131084,-0.034136,-1.87517
880268.356388,0.07334937000000001,0.33724818,9.759556980000001,0.002689,-0.000438,0.003428,-98.335999,104.993103,-122.404953,60.187681,24.830092,12.293162,19.262776,-1.0,-1.0,100.074783,0.126831,3.131083,-0.034119,-1.875176
880268.376374,0.07409493,0.32782077000000004,9.783650340000001,0.003854,0.002963,0.002896,-98.431595,104.824875,-122.323746,60.187681,24.830092,12.293162,19.262776,-1.0,-1.0,100.074783,0.126831,3.131071,-0.034115,-1.875178
880268.39636,0.07380063,0.33021441000000007,9.75716334,0.00268,0.002779,0.004573,-98.255737,104.828369,-122.220474,60.187681,24.830092,12.293162,19.262776,-1.0,-1.0,100.074783,0.126831,3.131093,-0.034105,-1.875156
880268.416346,0.07079877000000001,0.33634566,9.76508982,0.004862,0.001391,0.004852,-98.167526,104.681122,-122.41629,60.187681,24.830092,12.293162,19.262776,-1.0,-1.0,100.074783,0.126831,3.131109,-0.034092,-1.875158
880268.436332,0.07739109000000001,0.33365772000000005,9.780815250000002,0.003988,0.001135,0.001899,-98.025055,104.811172,-122.090866,60.187681,24.830092,12.293162,19.262776,-1.0,-1.0,100.074783,0.126831,3.131105,-0.034092,-1.875151
880268.456318,0.07184844,0.32976315,9.77287896,0.000786,0.000304,0.002654,-98.149292,104.868301,-122.427887,60.187681,24.830092,12.293162,19.262776,-1.0,-1.0,100.074783,0.126831,3.131109,-0.034074,-1.875131
880268.476304,0.07334937000000001,0.33395202000000007,9.747578970000001,0.003645,0.001605,0.005103,-98.409088,104.785492,-122.518829,60.187681,24.830092,12.293162,19.262776,-1.0,-1.0,100.074783,0.126831,3.131108,-0.03407,-1.875125
880268.49629,0.08906499000000001,0.32003163,9.80820477,0.002308,-0.000112,0.004025,-98.192734,104.94957,-122.237457,60.187681,24.830092,12.293162,19.262776,-1.0,-1.0,100.074783,0.126831,3.131096,-0.034071,-1.87513
880268.516276,0.05883057,0.32811507,9.77392863,0.002385,0.002048,0.004399,-98.303665,104.650055,-122.123459,60.187681,24.830092,12.293162,19.262776,-1.0,-1.0,100.074783,0.126831,3.131098,-0.034058,-1.875128
880268.536262,0.07619427,0.33545295,9.74159487,0.005356,0.001353,0.003768,-98.249527,104.8423,-122.320404,60.187681,24.830092,12.293162,19.262776,-1.0,-1.0,100.074783,0.126831,3.131088,-0.034068,-1.875129
880268.556248,0.08322804,0.31838355,9.80461431,0.002286,0.000962,0.004241,-98.29335,104.80249,-122.169937,60.187681,24.830092,12.293162,19.262776,-1.0,-1.0,100.074783,0.126831,3.131081,-0.034078,-1.87513
880268.576234,0.08157996,0.32318064,9.7781175,0.004385,0.001871,0.002954,-98.312607,104.533218,-122.652664,60.187681,24.830092,12.293162,19.262776,-1.0,-1.0,100.074783,0.126831,3.131066,-0.034064,-1.875122
880268.576234,0.08157996,0.32318064,9.7781175,0.004385,0.001871,0.002954,-98.312607,104.533218,-122.652664,60.187681,24.830092,12.293162,19.262776,-1.0,-1.0,100.074783,0.126831,3.131066,-0.034064,-1.875122
880268.616206,0.08352234000000001,0.32796792,9.81344331,0.004054,0.000734,0.00605,-98.376572,104.593353,-122.426437,60.187681,24.830092,12.293162,19.262776,-1.0,-1.0,100.074783,0.126831,3.131035,-0.034065,-1.875127
880268.636192,0.07963758,0.32287653,9.799522920000001,0.004054,0.000734,0.00605,-98.357605,104.721039,-122.31604,60.187681,24.830092,12.293162,19.262776,-1.0,-1.0,100.074783,0.126831,3.131017,-0.034068,-1.875126
880268.676164,0.06526593,0.32841918000000003,9.7724277,0.004746,0.000315,0.001381,-98.472961,104.717834,-122.306351,60.187681,24.830092,12.293162,19.262776,-1.0,-1.0,100.074783,0.126831,3.131008,-0.034063,-1.875139
880268.69615,0.0928026,0.32318064,9.804015900000001,-0.000365,-7.7e-05,0.004908,-98.404785,104.839966,-122.286987,60.187681,24.830092,12.293162,19.262776,-1.0,-1.0,100.074783,0.126831,3.130995,-0.034052,-1.875123
880268.716136,0.062116920000000006,0.34024023,9.743988510000001,0.00529,0.003533,0.006483,-98.339645,104.916443,-122.275604,60.187681,24.830092,12.293162,19.262776,-1.0,-1.0,100.074783,0.126831,3.130992,-0.034041,-1.875104
880268.716136,0.062116920000000006,0.34024023,9.743988510000001,0.00529,0.003533,0.006483,-98.339645,104.916443,-122.275604,60.187681,24.830092,12.293162,19.262776,-1.0,-1.0,100.074783,0.126831,3.130992,-0.034041,-1.875104
880268.756108,0.07888221,0.31689243,9.81045126,0.001492,0.000986,0.004413,-98.509781,104.679031,-122.034088,60.187681,24.830092,12.293162,19.262776,-1.0,-1.0,100.074783,0.126831,3.130986,-0.034033,-1.875111
880268.776094,0.06526593,0.33021441000000007,9.76300029,0.004246,0.000308,0.003534,-98.335312,104.831421,-122.284225,60.187681,24.830092,12.293162,19.262776,-1.0,-1.0,100.074783,0.126831,3.130978,-0.034024,-1.875108
880268.79608,0.08248248000000001,0.33574725,9.75880161,0.003189,0.001716,0.005211,-98.232742,104.794983,-122.344101,60.187681,24.830092,12.293162,19.262776,-1.0,-1.0,100.074783,0.126831,3.130965,-0.034032,-1.875115
880268.816066,0.08412075,0.30476727000000003,9.78455286,0.0038,0.001085,0.004863,-98.451218,104.934067,-122.263275,60.187681,24.830092,12.293162,19.262776,-1.0,-1.0,100.074783,0.126831,3.130967,-0.034031,-1.875121
880268.836052,0.07035732,0.32272938,9.767787570000001,0.001639,-0.000375,0.002441,-98.195129,104.795364,-122.342102,60.187681,24.830092,12.293162,19.262776,-1.0,-1.0,100.074783,0.126831,3.130958,-0.034012,-1.875118
880268.836052,0.07035732,0.32272938,9.767787570000001,0.001639,-0.000375,0.002441,-98.195129,104.795364,-122.342102,60.187681,24.830092,12.293162,19.262776,-1.0,-1.0,100.074783,0.126831,3.130958,-0.034012,-1.875118
880268.876024,0.0754389,0.32033574000000004,9.80236782,0.00244,-0.001241,0.004347,-98.244125,104.91188,-122.272858,60.187681,24.830092,12.293162,19.262776,-1.0,-1.0,100.074783,0.126831,3.13094,-0.034012,-1.875113
880268.89601,0.06825798,0.33246090000000006,9.775871010000001,0.002948,0.001078,0.004894,-98.460648,104.928696,-122.080978,60.187681,24.830092,12.293162,19.262776,-1.0,-1.0,100.074783,0.126831,3.130918,-0.033993,-1.875127
880268.915996,0.07903917,0.33500169,9.77422293,0.004703,0.002369,0.004716,-98.322083,105.016312,-122.213135,60.187681,24.830092,12.293162,19.262776,-1.0,-1.0,100.074783,0.126831,3.130916,-0.033988,-1.875128
880268.935982,0.0782838,0.32003163,9.81898596,0.00251,-0.000136,0.00427,-98.401672,104.843842,-122.585846,60.187681,24.830092,12.293162,19.262776,-1.0,-1.0,100.074783,0.126831,3.130904,-0.033985,-1.875122
880268.955968,0.07079877000000001,0.32827203,9.783954450000001,0.003665,0.002044,0.004436,-98.269867,105.027252,-122.159134,60.187681,24.830092,12.293162,19.262776,-1.0,-1.0,100.074783,0.126831,3.130878,-0.033973,-1.875126
880268.975954,0.07454619,0.33695388,9.77377167,0.002562,0.001581,0.003402,-98.177841,105.046722,-122.423462,60.187681,24.830092,12.293162,19.262776,-1.0,-1.0,100.074783,0.126831,3.130878,-0.033985,-1.875126
880268.99594,0.07095573000000001,0.32871348000000006,9.82661814,0.002905,0.000655,0.004786,-98.232773,105.006699,-122.327011,60.187681,24.830092,12.293162,19.262776,-1.0,-1.0,100.074783,0.126831,3.130877,-0.033988,-1.875124
880269.015926,0.07394778,0.32931189000000005,9.77797035,0.003321,0.001616,0.00257,-98.232773,105.006699,-122.327011,60.187681,24.830092,12.293162,19.262776,-1.0,-1.0,100.074783,0.126831,3.130861,-0.033977,-1.875124
880269.035912,0.06885639,0.33231375,9.76464837,0.003519,0.000233,0.005604,-98.443558,104.779449,-122.366455,60.187681,24.830092,12.293162,19.262776,-1.0,-1.0,100.074783,0.126831,3.130862,-0.033978,-1.875123
880269.055899,0.09040896000000001,0.32302368,9.7926363,0.004909,0.001529,0.004689,-98.480972,104.85524,-122.471924,60.187681,24.830092,12.293162,19.262776,-1.0,-1.0,100.074783,0.126831,3.130866,-0.033983,-1.875127
880269.075885,0.07574301000000001,0.31718673000000003,9.79233219,0.001986,-0.001523,0.004949,-98.249481,104.843796,-122.53981,60.187681,24.830092,12.293162,19.262776,-1.0,-1.0,100.075668,0.052849,3.130859,-0.033994,-1.875128
880269.095871,0.06870924,0.33755229000000003,9.75865446,0.002988,0.001158,0.002568,-98.358932,104.852432,-122.250763,60.187681,24.830092,12.293162,19.262776,-1.0,-1.0,100.075668,0.052849,3.130861,-0.033986,-1.875134
880269.115857,0.07903917,0.33095997000000005,9.78156081,0.00472,0.00106,0.004677,-98.283936,104.979248,-122.189743,60.187681,24.830092,12.293162,19.262776,-1.0,-1.0,100.075668,0.052849,3.130864,-0.033983,-1.875115
880269.135843,0.07050447,0.32018859000000005,9.78500412,0.002217,-0.00118,0.004447,-98.30394,104.789047,-122.616455,60.187681,24.830092,12.293162,19.262776,-1.0,-1.0,100.075668,0.052849,3.130858,-0.033981,-1.875123
880269.155829,0.06960195,0.33305931000000005,9.767934720000001,0.00527,0.000747,0.005368,-98.393066,104.913208,-122.416748,60.187681,24.830092,12.293162,19.262776,-1.0,-1.0,100.075668,0.052849,3.130854,-0.03397,-1.875127
880269.175815,0.07110288000000001,0.32332779000000006,9.7897914,0.00139,-0.001198,0.004674,-98.439514,104.899887,-122.08255,60.187681,24.830092,12.293162,19.262776,-1.0,-1.0,100.075668,0.052849,3.130844,-0.033974,-1.875126
880269.195801,0.06780672,0.32347494000000004,9.77751909,0.002841,0.000449,0.00433,-98.35527,104.932922,-122.403488,60.187681,24.830092,12.293162,19.262776,-1.0,-1.0,100.075668,0.052849,3.130847,-0.033954,-1.875112
880269.215787,0.07275096,0.33395202000000007,9.79038981,0.002814,-0.000721,0.003812,-98.121506,104.956543,-122.488251,60.187681,24.830092,12.293162,19.262776,-1.0,-1.0,100.075668,0.052849,3.130862,-0.033943,-1.875115
880269.235773,0.06856209,0.33200964,9.77737194,0.003257,1.1e-05,0.003185,-98.341354,104.816727,-122.308701,60.187681,24.830092,12.293162,19.262776,-1.0,-1.0,100.075668,0.052849,3.130867,-0.033926,-1.875102
880269.255759,0.08487612,0.33141123,9.77392863,0.004016,0.001442,0.003981,-98.368484,105.001282,-122.302094,60.187681,24.830092,12.293162,19.262776,-1.0,-1.0,100.075668,0.052849,3.130882,-0.033928,-1.875089
880269.275745,0.06466752,0.32841918000000003,9.78500412,0.002789,0.001735,0.0035,-98.196747,105.025146,-122.048553,60.187681,24.830092,12.293162,19.262776,-1.0,-1.0,100.075668,0.052849,3.130891,-0.033924,-1.875088
880269.315717,0.06825798,0.3179421,9.79323471,0.002997,0.001293,0.004081,-98.527679,104.614014,-122.333267,60.187681,24.830092,12.293162,19.262776,-1.0,-1.0,100.075668,0.052849,3.1309,-0.033919,-1.875094
880269.335703,0.07439904,0.32871348000000006,9.803113380000001,0.003337,0.00179,0.003825,-98.180603,104.786957,-122.353088,60.187681,24.830092,12.293162,19.262776,-1.0,-1.0,100.075668,0.052849,3.130895,-0.033904,-1.875091
880269.355689,0.0836793,0.33590421000000004,9.77287896,0.003929,0.002708,0.004519,-98.333847,104.550964,-122.338928,60.187681,24.830092,12.293162,19.262776,-1.0,-1.0,100.075668,0.052849,3.130902,-0.033904,-1.875095
880269.355689,0.0836793,0.33590421000000004,9.77287896,0.003929,0.002708,0.004519,-98.333847,104.550964,-122.338928,60.187681,24.830092,12.293162,19.262776,-1.0,-1.0,100.075668,0.052849,3.130902,-0.033904,-1.875095
880269.395661,0.07753824,0.32198382,9.795334050000001,0.004589,0.000879,0.00551,-98.2565,104.840225,-121.961105,60.187681,24.830092,12.293162,19.262776,-1.0,-1.0,100.075668,0.052849,3.13092,-0.033888,-1.875106
880269.415647,0.06196977,0.33934752,9.7667379,0.002544,-0.000549,0.00558,-98.202591,104.988586,-121.98085,60.187681,24.830092,12.293162,19.262776,-1.0,-1.0,100.075668,0.052849,3.130926,-0.033889,-1.875106
880269.435633,0.08172711,0.33110712,9.78230637,0.003368,-0.001189,0.003418,-98.279144,104.813354,-121.880676,60.187681,24.830092,12.293162,19.262776,-1.0,-1.0,100.075668,0.052849,3.130931,-0.033886,-1.875123
880269.435633,0.08172711,0.33110712,9.78230637,0.003368,-0.001189,0.003418,-98.279144,104.813354,-121.880676,60.187681,24.830092,12.293162,19.262776,-1.0,-1.0,100.075668,0.052849,3.130931,-0.033886,-1.875123
880269.475605,0.07005321,0.33320646000000004,9.771829290000001,0.002401,0.000167,0.003623,-98.086349,105.049194,-122.02092,60.187681,24.830092,12.293162,19.262776,-1.0,-1.0,100.075668,0.052849,3.130924,-0.033866,-1.875099
880269.495591,0.08023599000000001,0.32766381,9.76704201,0.0042,-0.000224,0.001984,-98.375519,105.044769,-122.034119,60.187681,24.830092,12.293162,19.262776,-1.0,-1.0,100.075668,0.052849,3.130925,-0.033875,-1.875108
880269.515577,0.06751242,0.31749084,9.79473564,0.003416,-0.000754,0.004823,-98.195404,104.888351,-122.263092,60.187681,24.830092,12.293162,19.262776,-1.0,-1.0,100.075668,0.052849,3.130929,-0.033871,-1.875095
880269.535564,0.07184844,0.32452461,9.775419750000001,0.002898,0.000571,0.004682,-98.435318,104.826126,-122.32074,60.187681,24.830092,12.293162,19.262776,-1.0,-1.0,100.075668,0.052849,3.130931,-0.033872,-1.875104
880269.55555,0.06122421,0.33260805,9.767189160000001,0.003906,-0.000223,0.001558,-98.379562,104.90123,-121.9431,60.187681,24.830092,12.293162,19.262776,-1.0,-1.0,100.075668,0.052849,3.130942,-0.033876,-1.875104
880269.575536,0.07484049000000001,0.320787,9.775723860000001,0.003445,0.000443,0.006177,-98.401505,104.935379,-122.235886,60.187681,24.830092,12.293162,19.262776,-1.0,-1.0,100.075668,0.052849,3.130938,-0.033867,-1.875076
880269.595522,0.08308089000000002,0.33275520000000003,9.80162226,0.00372,0.002172,0.004444,-98.374252,104.875763,-122.239731,60.187681,24.830092,12.293162,19.262776,-1.0,-1.0,100.075668,0.052849,3.130932,-0.033865,-1.875084
880269.615508,0.07304526,0.329616,9.791135370000001,0.002148,-0.001278,0.003255,-98.480423,104.882019,-122.486847,60.187681,24.830092,12.293162,19.262776,-1.0,-1.0,100.075668,0.052849,3.130925,-0.033877,-1.875075
880269.635494,0.07634142000000001,0.34263387,9.80760636,0.004407,0.001526,0.005328,-98.173874,104.831497,-122.282745,60.187681,24.830092,12.293162,19.262776,-1.0,-1.0,100.075668,0.052849,3.130928,-0.033869,-1.875071
880269.65548,0.07320222,0.32916474,9.775871010000001,0.004555,0.000479,0.004142,-98.358948,104.913742,-122.460052,60.187681,24.830092,12.293162,19.262776,-1.0,-1.0,100.075668,0.052849,3.130947,-0.033876,-1.875076
880269.675465,0.08038314,0.32018859000000005,9.80385894,0.000901,-0.001648,0.004826,-98.324661,104.826111,-122.489944,60.187681,24.830092,12.293162,19.262776,-1.0,-1.0,100.075668,0.052849,3.130942,-0.033883,-1.875083
880269.695451,0.08053028999999999,0.33695388,9.775566900000001,0.004426,0.001097,0.00466,-98.404953,104.931839,-122.518036,60.187681,24.830092,12.293162,19.262776,-1.0,-1.0,100.075668,0.052849,3.130949,-0.033878,-1.875074
880269.715437,0.08622009,0.33799374,9.78335604,0.002199,0.000903,0.005704,-98.052048,105.090286,-122.309433,60.187681,24.830092,12.293162,19.262776,-1.0,-1.0,100.075668,0.052849,3.130959,-0.033884,-1.875079
880269.735423,0.07634142000000001,0.31703958,9.80266212,0.004159,0.000373,0.003993,-98.052048,105.090286,-122.309433,60.187681,24.830092,12.293162,19.262776,-1.0,-1.0,100.075668,0.052849,3.130974,-0.033884,-1.875085
880269.755409,0.07679268,0.33021441000000007,9.752366250000001,0.001935,0.0003,0.003241,-98.40419,105.031113,-122.384811,60.187681,24.830092,12.293162,19.262776,-1.0,-1.0,100.075668,0.052849,3.13098,-0.033886,-1.87508
880269.775395,0.07918631999999999,0.32227812,9.78275763,0.004408,0.001961,0.00483,-98.286453,104.899765,-122.255661,60.187681,24.830092,12.293162,19.262776,-1.0,-1.0,100.075668,0.052849,3.130995,-0.033875,-1.875059
880269.795381,0.07813665,0.32871348000000006,9.78889869,0.004168,-0.000431,0.004159,-98.113632,104.976562,-121.984741,60.187681,24.830092,12.293162,19.262776,-1.0,-1.0,100.075668,0.052849,3.130999,-0.033883,-1.875055
880269.815367,0.0779895,0.33335360999999997,9.77646942,0.002927,0.000373,0.005391,-98.216965,105.124329,-122.017197,60.187681,24.830092,12.293162,19.262776,-1.0,-1.0,100.075668,0.052849,3.130995,-0.033889,-1.875052
880269.835353,0.06751242,0.33215679000000004,9.78305193,0.005153,0.001819,0.00382,-98.478989,104.821671,-122.239655,60.187681,24.830092,12.293162,19.262776,-1.0,-1.0,100.075668,0.052849,3.130986,-0.033894,-1.875053
880269.855339,0.07484049000000001,0.31854051,9.80610543,0.002567,-0.000124,0.003996,-98.265533,104.893677,-122.282776,60.187681,24.830092,12.293162,19.262776,-1.0,-1.0,100.075668,0.052849,3.130969,-0.033903,-1.875047
880269.855339,0.07484049000000001,0.31854051,9.80610543,0.002567,-0.000124,0.003996,-98.265533,104.893677,-122.282776,60.187681,24.830092,12.293162,19.262776,-1.0,-1.0,100.075668,0.052849,3.130969,-0.033903,-1.875047
880269.895311,0.07978473,0.31584276000000006,9.767493270000001,0.002883,-0.000773,0.004397,-98.250519,104.983292,-122.556061,60.187681,24.830092,12.293162,19.262776,-1.0,-1.0,100.075668,0.052849,3.130954,-0.033892,-1.875039
880269.935284,0.07184844,0.34772526,9.76209777,0.003811,0.000524,0.002564,-98.374557,104.944962,-122.381165,60.187681,24.830092,12.293162,19.262776,-1.0,-1.0,100.075668,0.052849,3.130943,-0.033879,-1.87503
880269.95527,0.08277678,0.32662395,9.77692068,0.002737,-0.003259,0.00358,-98.054184,104.962738,-121.822067,60.187681,24.830092,12.293162,19.262776,-1.0,-1.0,100.075668,0.052849,3.13094,-0.033883,-1.875019
880269.95527,0.08277678,0.32662395,9.77692068,0.002737,-0.003259,0.00358,-98.054184,104.962738,-121.822067,60.187681,24.830092,12.293162,19.262776,-1.0,-1.0,100.075668,0.052849,3.13094,-0.033883,-1.875019
880269.995242,0.0751446,0.34083863999999997,9.771682140000001,0.00304,-0.000956,0.003828,-98.363647,104.998428,-122.311234,60.187681,24.830092,12.293162,19.262776,-1.0,-1.0,100.075668,0.052849,3.130938,-0.033882,-1.875029
880270.015228,0.07574301000000001,0.32976315,9.7926363,0.001293,-0.002077,0.004888,-98.201859,105.028015,-122.147781,60.187681,24.830092,12.293162,19.262776,-1.0,-1.0,100.075668,0.052849,3.130954,-0.033884,-1.875015
880270.035214,0.06945480000000001,0.32766381,9.775566900000001,0.004212,0.001928,0.005094,-98.161377,105.129745,-122.411224,60.187681,24.830092,12.293162,19.262776,-1.0,-1.0,100.075668,0.052849,3.130958,-0.033882,-1.875015
880270.035214,0.06945480000000001,0.32766381,9.775566900000001,0.004212,0.001928,0.005094,-98.161377,105.129745,-122.411224,60.187681,24.830092,12.293162,19.262776,-1.0,-1.0,100.075668,0.052849,3.130958,-0.033882,-1.875015
880270.075186,0.06316659000000001,0.32182686000000005,9.78964425,0.003047,0.000509,0.004945,-98.195389,105.038086,-122.519135,60.187681,24.830092,12.293162,19.262776,-1.0,-1.0,100.075668,0.052849,3.130967,-0.033891,-1.875011
880270.095172,0.06615864,0.34488036,9.77287896,0.002459,0.00043,0.002417,-98.126022,105.00528,-122.131805,60.187681,24.830092,12.293162,19.262776,-1.0,-1.0,100.075668,0.052849,3.130962,-0.033893,-1.875021
880270.115158,0.07784234999999999,0.32542713,9.79084107,0.003452,0.00097,0.004099,-98.276077,104.965866,-122.256516,60.187681,24.830092,12.293162,19.262776,-1.0,-1.0,100.075668,0.052849,3.130971,-0.033885,-1.875
880270.135144,0.08098155,0.33755229000000003,9.79069392,0.002974,0.000601,0.003462,-98.189606,105.094238,-122.21283,60.187681,24.830092,12.293162,19.262776,-1.0,-1.0,100.075668,0.052849,3.130986,-0.033878,-1.874989
880270.15513,0.07424208,0.33215679000000004,9.76913154,0.003361,1.7e-05,0.004471,-97.970337,105.163696,-122.018753,60.187681,24.830092,12.293162,19.262776,-1.0,-1.0,100.076141,0.013214,3.130991,-0.033878,-1.874964
880270.175116,0.06960195,0.33231375,9.775272600000001,0.005506,0.001974,0.003304,-98.213593,105.070236,-122.137894,60.187681,24.830092,12.293162,19.262776,-1.0,-1.0,100.076141,0.013214,3.130997,-0.033889,-1.874954
880270.195102,0.07933347,0.33545295,9.7784118,0.002636,-0.000475,0.00393,-98.273239,105.084518,-122.359116,60.187681,24.830092,12.293162,19.262776,-1.0,-1.0,100.076141,0.013214,3.131009,-0.033903,-1.874951
880270.215088,0.08382645000000001,0.32287653,9.775272600000001,0.002391,0.000264,0.00541,-98.09819,105.093338,-122.151474,60.187681,24.830092,12.293162,19.262776,-1.0,-1.0,100.076141,0.013214,3.131011,-0.033894,-1.874945
880270.235074,0.08562168,0.33514884,9.76284333,0.003948,0.001794,0.003302,-98.207382,105.255005,-122.209534,60.187681,24.830092,12.293162,19.262776,-1.0,-1.0,100.076141,0.013214,3.131012,-0.033892,-1.87497
880270.25506,0.07693983,0.31554846000000003,9.78215922,0.000759,-0.003034,0.004055,-98.204956,105.21582,-122.243652,60.187681,24.830092,12.293162,19.262776,-1.0,-1.0,100.076141,0.013214,3.131021,-0.033895,-1.874957
880270.275046,0.06900354,0.3356001,9.76164651,0.005375,-0.000455,0.004343,-98.113419,105.11882,-122.260651,60.187681,24.830092,12.293162,19.262776,-1.0,-1.0,100.076141,0.013214,3.131033,-0.033879,-1.874958
880270.295033,0.07648857,0.33186249,9.7582032,0.002069,0.000615,0.003625,-98.143753,104.943909,-122.246979,60.187681,24.830092,12.293162,19.262776,-1.0,-1.0,100.076141,0.013214,3.131037,-0.033888,-1.874952
880270.315019,0.08038314,0.3179421,9.80461431,0.003421,0.000754,0.004432,-98.093109,105.079102,-122.271881,60.187681,24.830092,12.293162,19.262776,-1.0,-1.0,100.076141,0.013214,3.131019,-0.033888,-1.874952
880270.335005,0.07784234999999999,0.31584276000000006,9.7954812,0.002668,0.000146,0.00476,-98.381897,105.087463,-122.50296,60.187681,24.830092,12.293162,19.262776,-1.0,-1.0,100.076141,0.013214,3.131006,-0.033891,-1.874958
880270.354991,0.08308089000000002,0.33724818,9.76254903,0.001737,0.001775,0.004979,-98.261429,105.133865,-122.335358,60.187681,24.830092,12.293162,19.262776,-1.0,-1.0,100.076141,0.013214,3.131004,-0.033877,-1.874962
880270.374977,0.0751446,0.32931189000000005,9.79758054,0.007217,0.000904,0.004695,-98.331772,104.998566,-122.258133,60.187681,24.830092,12.293162,19.262776,-1.0,-1.0,100.076141,0.013214,3.130994,-0.033861,-1.874977
880270.394963,0.07110288000000001,0.32242527000000004,9.80251497,0.00318,-0.000612,0.005057,-98.256775,104.854111,-122.689407,60.187681,24.830092,12.293162,19.262776,-1.0,-1.0,100.076141,0.013214,3.130978,-0.033877,-1.874978
880270.414949,0.07963758,0.32258223,9.77946147,0.003112,0.001366,0.004716,-98.223541,105.244827,-122.232056,60.187681,24.830092,12.293162,19.262776,-1.0,-1.0,100.076141,0.013214,3.130958,-0.033864,-1.874982
880270.434935,0.06960195,0.33050871,9.78245352,0.004404,-0.001949,0.003787,-98.191986,104.928711,-122.222794,60.187681,24.830092,12.293162,19.262776,-1.0,-1.0,100.076141,0.013214,3.130954,-0.033853,-1.874967
880270.454921,0.08322804,0.32122845000000005,9.799974180000001,0.002842,0.000166,0.006407,-98.191986,104.928711,-122.222794,60.187681,24.830092,12.293162,19.262776,-1.0,-1.0,100.076141,0.013214,3.130949,-0.033862,-1.874952
880270.474907,0.06960195,0.33889626,9.77018121,0.004011,0.002439,0.002723,-98.432983,104.89151,-122.111282,60.187681,24.830092,12.293162,19.262776,-1.0,-1.0,100.076141,0.013214,3.130962,-0.033865,-1.874977
880270.494893,0.07679268,0.34623414,9.75416148,0.003853,-1.7e-05,0.00454,-98.673538,104.952164,-122.225113,60.187681,24.830092,12.293162,19.262776,-1.0,-1.0,100.076141,0.013214,3.130981,-0.033877,-1.874961
880270.514879,0.07844076,0.33081282000000006,9.80191656,0.004599,0.002747,0.004581,-98.189651,104.820435,-122.141922,60.187681,24.830092,12.293162,19.262776,-1.0,-1.0,100.076141,0.013214,3.130985,-0.033893,-1.874969
880270.534865,0.07139718,0.33095997000000005,9.81014715,0.001293,-0.000228,0.004294,-98.362778,104.820709,-122.175308,60.187681,24.830092,12.293162,19.262776,-1.0,-1.0,100.076141,0.013214,3.131001,-0.033908,-1.874964
880270.554851,0.06271533,0.33380487000000003,9.76988691,0.003192,-0.001497,0.005052,-98.371216,104.929932,-122.325195,60.187681,24.830092,12.293162,19.262776,-1.0,-1.0,100.076141,0.013214,3.131004,-0.033909,-1.874955
880270.594823,0.07858791000000001,0.33514884,9.78529842,0.002867,-0.003359,0.004572,-98.327698,105.107346,-122.080414,60.187681,24.830092,12.293162,19.262776,-1.0,-1.0,100.076141,0.013214,3.130987,-0.033927,-1.874949
880270.614809,0.06151851,0.33021441000000007,9.7695828,0.005009,0.003161,0.004837,-98.202881,105.098709,-122.344833,60.187681,24.830092,12.293162,19.262776,-1.0,-1.0,100.076141,0.013214,3.130978,-0.033935,-1.874956
880270.634796,0.07603731000000001,0.32213097,9.77512545,0.002422,-0.0019,0.00558,-98.142746,104.761734,-122.141983,60.187681,24.830092,12.293162,19.262776,-1.0,-1.0,100.076141,0.013214,3.130984,-0.033952,-1.87495
880270.654782,0.07050447,0.32662395,9.77302611,0.002734,0.002506,0.005562,-98.385193,104.781174,-122.057693,60.187681,24.830092,12.293162,19.262776,-1.0,-1.0,100.076141,0.013214,3.130966,-0.033952,-1.874972
880270.674768,0.07215255000000001,0.32467176000000003,9.799218810000001,0.002734,0.002506,0.005562,-98.109161,105.05777,-122.261734,60.187681,24.830092,12.293162,19.262776,-1.0,-1.0,100.076141,0.013214,3.130973,-0.033956,-1.874982
880270.694754,0.0691605,0.31943322,9.75910572,0.00076,-7.2e-05,0.002669,-98.388687,104.837402,-122.020462,60.187681,24.830092,12.293162,19.262776,-1.0,-1.0,100.076141,0.013214,3.130961,-0.033966,-1.874982
880270.71474,0.06452037000000001,0.32063004,9.78649524,0.004127,0.001452,0.004741,-98.261627,104.891632,-121.968185,60.187681,24.830092,12.293162,19.262776,-1.0,-1.0,100.076141,0.013214,3.130978,-0.033958,-1.874971
880270.734726,0.08457201,0.33066567,9.79428438,0.004127,0.001452,0.004741,-97.995193,104.974838,-122.187149,60.187681,24.830092,12.293162,19.262776,-1.0,-1.0,100.076141,0.013214,3.130984,-0.033952,-1.87497
880270.754712,0.07978473,0.32782077000000004,9.759704130000001,0.004563,0.001209,0.005141,-97.971451,104.985382,-121.956512,60.187681,24.830092,12.293162,19.262776,-1.0,-1.0,100.076141,0.013214,3.130992,-0.033947,-1.874969
880270.774698,0.07139718,0.33006726000000003,9.79203789,0.002581,-0.00021,0.003658,-98.188797,105.005936,-122.207428,60.187681,24.830092,12.293162,19.262776,-1.0,-1.0,100.076141,0.013214,3.131005,-0.033962,-1.874967
880270.794684,0.06556023,0.31314501,9.77646942,0.002012,0.00196,0.004201,-98.288132,105.067276,-121.879761,60.187681,24.830092,12.293162,19.262776,-1.0,-1.0,100.076141,0.013214,3.131006,-0.033943,-1.874962
880270.81467,0.06301944000000001,0.32213097,9.76764042,0.003862,0.000955,0.004279,-98.333038,104.893433,-122.033127,60.187681,24.830092,12.293162,19.262776,-1.0,-1.0,100.076141,0.013214,3.131018,-0.033939,-1.874962
880270.834656,0.08562168,0.33425613,9.783208890000001,0.002447,-0.001101,0.001795,-98.069397,104.820633,-122.08902,60.187681,24.830092,12.293162,19.262776,-1.0,-1.0,100.076141,0.013214,3.131018,-0.033944,-1.874958
880270.854642,0.08053028999999999,0.31674527999999996,9.77632227,0.003722,-0.000714,0.004499,-98.253815,104.846298,-121.980255,60.187681,24.830092,12.293162,19.262776,-1.0,-1.0,100.076141,0.013214,3.131017,-0.033949,-1.874942
880270.874628,0.07439904,0.32976315,9.768690090000002,0.003404,3.4e-05,0.004798,-98.259964,104.823792,-121.639893,60.187681,24.830092,12.293162,19.262776,-1.0,-1.0,100.076141,0.013214,3.131021,-0.033961,-1.874937
880270.894614,0.07784234999999999,0.31778514,9.77781339,0.003404,3.4e-05,0.004798,-97.975082,105.132233,-122.018829,60.187681,24.830092,12.293162,19.262776,-1.0,-1.0,100.076141,0.013214,3.131031,-0.03396,-1.874936
880270.9146,0.07394778,0.32272938,9.772133400000001,0.004031,0.000291,0.003339,-97.941254,104.855896,-121.886322,60.187681,24.830092,12.293162,19.262776,-1.0,-1.0,100.076141,0.013214,3.131025,-0.033948,-1.87494
880270.934586,0.06870924,0.32198382,9.77482134,0.002173,-0.000556,0.003807,-98.099304,105.190903,-122.142426,60.187681,24.830092,12.293162,19.262776,-1.0,-1.0,100.076141,0.013214,3.131021,-0.03394,-1.874944
880270.954573,0.06436341000000001,0.31734369000000007,9.779010210000001,0.00437,0.000451,0.003254,-98.086151,104.965897,-121.936172,60.187681,24.830092,12.293162,19.262776,-1.0,-1.0,100.076141,0.013214,3.131022,-0.033934,-1.874949
880270.974559,0.07334937000000001,0.32827203,9.78485697,0.00272,-0.001711,0.003208,-98.03479,105.251328,-122.111206,60.187681,24.830092,12.293162,19.262776,-1.0,-1.0,100.076141,0.013214,3.131026,-0.033937,-1.874943
880271.014531,0.07963758,0.32227812,9.807007950000001,0.004235,-0.000705,0.001921,-98.131882,104.996521,-121.869934,60.187681,24.830092,12.293162,19.262776,-1.0,-1.0,100.076141,0.013214,3.131042,-0.033921,-1.874961
880271.034517,0.08322804,0.32407335000000004,9.779010210000001,0.002975,-0.002097,0.003982,-98.00972,105.018448,-121.846786,60.187681,24.830092,12.293162,19.262776,-1.0,-1.0,100.076141,0.013214,3.131054,-0.033929,-1.874949
880271.054503,0.06646275,0.32063004,9.78230637,0.004556,-0.001186,0.003809,-98.150955,104.952438,-122.303986,60.187681,24.830092,12.293162,19.262776,-1.0,-1.0,100.076141,0.013214,3.131053,-0.033924,-1.874953
880271.074489,0.07289811,0.32213097,9.765246780000002,0.002043,-0.002378,0.003309,-98.205566,105.094635,-122.225006,60.187681,24.830092,12.293162,19.262776,-1.0,-1.0,100.076141,0.013214,3.131053,-0.033915,-1.874954
880271.094475,0.06751242,0.33200964,9.763451550000001,0.00375,0.0015,0.003408,-98.125839,105.167892,-121.968216,60.187681,24.830092,12.293162,19.262776,-1.0,-1.0,100.076141,0.013214,3.131059,-0.033914,-1.874951
880271.114461,0.08322804,0.32602554,9.78261048,0.00395,0.000937,0.002966,-98.048645,105.158401,-122.024124,60.187681,24.830092,12.293162,19.262776,-1.0,-1.0,100.076141,0.013214,3.131071,-0.033914,-1.874953
880271.134447,0.08322804,0.31194819,9.802966230000001,0.003626,-0.001262,0.005098,-98.078125,105.162415,-122.085953,60.187681,24.830092,12.293162,19.262776,-1.0,-1.0,100.076141,0.013214,3.131079,-0.033909,-1.874941
880271.154433,0.08308089000000002,0.33095997000000005,9.74607804,0.004307,0.002374,0.005009,-98.064178,105.301132,-122.138,60.187681,24.830092,12.293162,19.262776,-1.0,-1.0,100.076141,0.013214,3.131086,-0.033931,-1.874936
880271.174419,0.07948062,0.32347494000000004,9.775419750000001,0.00339,-0.000127,0.003172,-98.064178,105.301132,-122.138,60.187681,24.830092,12.293162,19.262776,-1.0,-1.0,100.076141,0.013214,3.13109,-0.033935,-1.874954
880271.194405,0.06601149,0.32407335000000004,9.78574968,0.003555,0.000254,0.003013,-98.302658,105.108124,-122.013474,60.187681,24.830092,12.293162,19.262776,-1.0,-1.0,100.076141,0.013214,3.131088,-0.033935,-1.874948
880271.214391,0.07963758,0.34279083000000005,9.77287896,0.003153,0.000522,0.002747,-98.098907,105.232529,-122.228592,60.187681,24.830092,12.293162,19.262776,-1.0,-1.0,100.076141,0.013214,3.131081,-0.033928,-1.874932
880271.234378,0.08308089000000002,0.32302368,9.77677353,0.002094,0.002256,0.004277,-98.215988,105.106232,-121.884811,60.187681,24.830092,12.293162,19.262776,-1.0,-1.0,100.07682,-0.044914,3.131076,-0.033937,-1.874918
880271.254364,0.062273880000000004,0.32482872,9.787849020000001,0.005067,-0.000448,0.004372,-98.11055,105.154755,-121.871918,60.187681,24.830092,12.293162,19.262776,-1.0,-1.0,100.07682,-0.044914,3.13108,-0.033921,-1.874926
880271.27435,0.07139718,0.31569561,9.77108373,0.002832,-0.000807,0.003877,-97.9133,105.27272,-122.176117,60.187681,24.830092,12.293162,19.262776,-1.0,-1.0,100.07682,-0.044914,3.131085,-0.033917,-1.874931
880271.314322,0.06361785,0.32512302,9.77048532,0.002617,-0.000812,0.001799,-98.042984,104.962265,-122.273315,60.187681,24.830092,12.293162,19.262776,-1.0,-1.0,100.07682,-0.044914,3.131106,-0.033943,-1.874914
880271.314322,0.06361785,0.32512302,9.77048532,0.002617,-0.000812,0.001799,-98.042984,104.962265,-122.273315,60.187681,24.830092,12.293162,19.262776,-1.0,-1.0,100.07682,-0.044914,3.131106,-0.033943,-1.874914
880271.354294,0.07065162,0.33978897,9.763147440000001,0.00235,-0.000401,0.004605,-98.172729,105.134888,-122.100937,60.187681,24.830092,12.293162,19.262776,-1.0,-1.0,100.07682,-0.044914,3.131115,-0.033955,-1.874919
880271.354294,0.07065162,0.33978897,9.763147440000001,0.00235,-0.000401,0.004605,-98.172729,105.134888,-122.100937,60.187681,24.830092,12.293162,19.262776,-1.0,-1.0,100.07682,-0.044914,3.131115,-0.033955,-1.874919
880271.394266,0.07844076,0.32377905,9.78230637,0.004066,0.001494,0.005435,-98.037552,105.297211,-122.188431,60.187681,24.830092,12.293162,19.262776,-1.0,-1.0,100.07682,-0.044914,3.131135,-0.033939,-1.874947
880271.414252,0.07244685000000001,0.32153256,9.801171,0.00147,-0.001301,0.005912,-97.855942,105.326065,-122.358444,60.187681,24.830092,12.293162,19.262776,-1.0,-1.0,100.07682,-0.044914,3.131138,-0.03395,-1.874952
880271.434238,0.07589016,0.33141123,9.76688505,0.003049,-0.000823,0.003407,-98.105957,105.069443,-122.443695,60.187681,24.830092,12.293162,19.262776,-1.0,-1.0,100.07682,-0.044914,3.131152,-0.03395,-1.874966
880271.454224,0.06795387,0.33739533,9.765246780000002,0.004656,0.000254,0.002674,-98.244064,105.062775,-122.373856,60.187681,24.830092,12.293162,19.262776,-1.0,-1.0,100.07682,-0.044914,3.131154,-0.033958,-1.874953
880271.47421,0.08098155,0.31165389,9.80595828,0.000918,-0.00139,0.00347,-98.06958,105.065735,-122.157837,60.187681,24.830092,12.293162,19.262776,-1.0,-1.0,100.07682,-0.044914,3.131159,-0.033966,-1.874939
880271.494196,0.08007903000000001,0.3270654,9.783208890000001,0.005318,0.000586,0.004051,-98.163315,105.222153,-122.375015,60.187681,24.830092,12.293162,19.262776,-1.0,-1.0,100.07682,-0.044914,3.131161,-0.033952,-1.874935
880271.514183,0.060920100000000005,0.33904341000000005,9.76060665,0.005318,0.000586,0.004051,-98.007095,105.153046,-122.319122,60.187681,24.830092,12.293162,19.262776,-1.0,-1.0,100.07682,-0.044914,3.131177,-0.033959,-1.874949
880271.534169,0.06571719000000001,0.33275520000000003,9.78290478,0.003504,0.000973,0.004777,-98.06044,105.192322,-122.255508,60.187681,24.830092,12.293162,19.262776,-1.0,-1.0,100.07682,-0.044914,3.131188,-0.033952,-1.874943
880271.554155,0.07095573000000001,0.33110712,9.77362452,0.003385,-0.001166,0.004332,-98.084656,105.137146,-122.345261,60.187681,24.830092,12.293162,19.262776,-1.0,-1.0,100.07682,-0.044914,3.131195,-0.033942,-1.874932
880271.574141,0.07079877000000001,0.32437746,9.76704201,0.003536,0.00091,0.00554,-98.201065,105.088913,-122.636322,60.187681,24.830092,12.293162,19.262776,-1.0,-1.0,100.07682,-0.044914,3.131196,-0.033937,-1.874953
880271.594127,0.06556023,0.31959018000000006,9.78261048,0.003295,-0.000154,0.00381,-98.356735,104.92865,-122.340698,60.187681,24.830092,12.293162,19.262776,-1.0,-1.0,100.07682,-0.044914,3.131197,-0.033947,-1.874962
880271.614113,0.07334937000000001,0.31629402,9.7866522,0.003295,-0.000154,0.00381,-98.13414,104.995438,-122.407196,60.187681,24.830092,12.293162,19.262776,-1.0,-1.0,100.07682,-0.044914,3.131203,-0.033947,-1.874939
880271.634099,0.07244685000000001,0.32827203,9.759556980000001,0.003723,0.001435,0.003806,-98.24025,105.104019,-122.469238,60.187681,24.830092,12.293162,19.262776,-1.0,-1.0,100.07682,-0.044914,3.131211,-0.033949,-1.874941
880271.654085,0.07139718,0.33724818,9.768385980000001,0.004458,-0.001448,0.003306,-98.132996,104.946228,-122.282516,60.187681,24.830092,12.293162,19.262776,-1.0,-1.0,100.07682,-0.044914,3.131231,-0.033941,-1.874944
880271.674071,0.08487612,0.30835773000000005,9.815689800000001,0.001586,-0.000979,0.004058,-98.239288,105.100906,-122.25145,60.187681,24.830092,12.293162,19.262776,-1.0,-1.0,100.07682,-0.044914,3.131246,-0.033947,-1.87495
880271.694057,0.05732964000000001,0.33664977,9.77482134,0.004247,-0.001021,0.004458,-98.150818,105.172607,-121.987167,60.187681,24.830092,12.293162,19.262776,-1.0,-1.0,100.07682,-0.044914,3.131252,-0.033927,-1.87495
