timestamp,x,y,theta,vx,vy,bias_accel_x,bias_accel_y,bias_angular_velocity,accel_x,accel_y,accel_z,gyro_x,gyro_y,gyro_z,cov_trace
1757070164.7708507,0.0,0.0,0.0,0.0,0.0,0.977732546952191,0.2633582438247012,0.009672296812749006,-0.21555513,0.06556023,9.79248915,0.003385,-0.000663,0.004094,3.13
1757070164.791256,0.0,0.0,0.0,0.0,0.0,0.977732546952191,0.2633582438247012,0.0004605406892708025,-0.23172201,0.03951468,9.775871010000001,0.003479,-4.7e-05,0.003877,0.7968563611580485
1757070164.811515,0.0,0.0,0.0,0.0,0.0,0.977732546952191,0.2633582438247012,0.0002354068800027088,-0.22543380000000002,0.05343507,9.787692060000001,0.001878,0.000863,0.003352,0.5260838204429192
1757070164.832093,0.0,0.0,0.0,0.0,0.0,0.977732546952191,0.2633582438247012,0.0001576441731287258,-0.23321313,0.04460607,9.77257485,0.001878,0.000863,0.003352,0.4111116217039167
1757070164.8527806,0.0,0.0,0.0,0.0,0.0,0.977732546952191,0.2633582438247012,0.00011817136254371397,-0.23007393000000004,0.04355640000000001,9.78500412,0.00213,-0.000116,0.004516,0.347294701099213
1757070164.8732812,0.0,0.0,0.0,0.0,0.0,0.977732546952191,0.2633582438247012,9.420961133371587e-05,-0.22663062000000003,0.05583852,9.787093650000001,0.004675,0.000376,0.00505,0.30693264180255414
1757070164.8944464,0.0,0.0,0.0,0.0,0.0,0.977732546952191,0.2633582438247012,9.420961133371587e-05,-0.22228479,0.04415481,9.77991273,0.002298,-0.000247,0.00452,0.3136239164667566
1757070164.9148705,0.0,0.0,0.0,0.0,0.0,0.977732546952191,0.2633582438247012,6.630322037737571e-05,-0.22423698,0.047902230000000004,9.7866522,0.003082,-0.00068,0.005225,0.25819283520235053
1757070164.9353287,0.0,0.0,0.0,0.0,0.0,0.977732546952191,0.2633582438247012,5.7546379693924055e-05,-0.2225889,0.04415481,9.775566900000001,0.003857,-0.001547,0.005062,0.24266173100436722
1757070164.956688,0.0,0.0,0.0,0.0,0.0,0.977732546952191,0.2633582438247012,5.063484138421816e-05,-0.23860863000000002,0.04475322,9.78844743,0.002709,-0.001074,0.003988,0.23076694782189902
1757070164.9778147,0.0,0.0,0.0,0.0,0.0,0.977732546952191,0.2633582438247012,4.506080476632174e-05,-0.21225897000000002,0.04999176,9.78245352,0.002625,0.000579,0.00405,0.22069909608989763
1757070164.9981322,0.0,0.0,0.0,0.0,0.0,0.977732546952191,0.2633582438247012,4.044944615063302e-05,-0.22752333,0.052395210000000005,9.775723860000001,0.002102,-0.002307,0.002741,0.2125702911357124
1757070165.019525,0.0,0.0,0.0,0.0,0.0,0.977732546952191,0.2633582438247012,3.656157141157305e-05,-0.21824307,0.055083150000000004,9.78814332,0.001668,-0.000704,0.004867,0.2097785015557021
1757070165.0437033,0.0,0.0,0.0,0.0,0.0,0.977732546952191,0.2633582438247012,3.0355796452152886e-05,-0.23096664,0.05852646,9.78574968,0.003221,-0.000729,0.002541,0.19491152754863628
1757070165.0639353,0.0,0.0,0.0,0.0,0.0,0.977732546952191,0.2633582438247012,2.7830636447761415e-05,-0.21989115,0.04146687,9.78305193,0.001533,0.000311,0.004828,0.19059154062658523
1757070165.0874856,0.0,0.0,0.0,0.0,0.0,0.977732546952191,0.2633582438247012,2.558281427910487e-05,-0.21899844000000002,0.03637548,9.78634809,0.001993,-0.001766,0.003744,0.1869781964136519
1757070165.1076465,0.0,0.0,0.0,0.0,0.0,0.977732546952191,0.2633582438247012,2.3591542500064794e-05,-0.22692492,0.05718249,9.784248750000001,0.003873,0.001039,0.004373,0.18336754730288005
1757070165.127902,0.0,0.0,0.0,0.0,0.0,0.977732546952191,0.2633582438247012,2.1810924835952002e-05,-0.22962267000000003,0.04355640000000001,9.78230637,0.004188,-0.000547,0.002834,0.18035260290128965
1757070165.1488264,0.0,0.0,0.0,0.0,0.0,0.977732546952191,0.2633582438247012,2.0204786406634933e-05,-0.22617936000000002,0.03876912,9.78844743,0.004953,0.000647,0.005709,0.17773725357393885
1757070165.1692226,0.0,0.0,0.0,0.0,0.0,0.977732546952191,0.2633582438247012,2.0204786406634933e-05,-0.22617936000000002,0.03876912,9.78844743,0.004953,0.000647,0.005709,0.17773725357393885
1757070165.1896257,0.0,0.0,0.0,0.0,0.0,0.977732546952191,0.2633582438247012,2.0204786406634933e-05,-0.22617936000000002,0.03876912,9.78844743,0.004953,0.000647,0.005709,0.17773725357393885
1757070165.211313,0.0,0.0,0.0,0.0,0.0,0.977732546952191,0.2633582438247012,1.723645309340154e-05,-0.21675195,0.059576130000000005,9.78230637,0.003882,-0.001697,0.002645,0.17311555673672438
1757070165.2319958,0.0,0.0,0.0,0.0,0.0,0.977732546952191,0.2633582438247012,1.4935621467670215e-05,-0.21135645000000003,0.04041720000000001,9.77452704,0.00288,-0.001294,0.003926,0.1684214938509904
1757070165.252815,0.0,0.0,0.0,0.0,0.0,0.977732546952191,0.2633582438247012,1.39503744262657e-05,-0.22094082,0.06571719000000001,9.79682517,0.00194,-0.001012,0.005372,0.16716630389030912
1757070165.273239,0.0,0.0,0.0,0.0,0.0,0.977732546952191,0.2633582438247012,1.3039152527018935e-05,-0.22737618,0.038621970000000005,9.78859458,0.001749,-0.001201,0.004778,0.1660806011868861
1757070165.2935205,0.0,0.0,0.0,0.0,0.0,0.977732546952191,0.2633582438247012,1.3039152527018935e-05,-0.22737618,0.038621970000000005,9.78859458,0.001749,-0.001201,0.004778,0.1660806011868861
1757070165.3178785,0.0,0.0,0.0,0.0,0.0,0.977732546952191,0.2633582438247012,1.1332675307787832e-05,-0.21959685,0.045802890000000006,9.796530870000002,0.004262,0.00042,0.005999,0.16334715103008302
1757070165.3399987,0.0,0.0,0.0,0.0,0.0,0.977732546952191,0.2633582438247012,1.0610997254373361e-05,-0.22123512,0.0577809,9.791586630000001,0.002921,-0.000116,0.004729,0.16527816181623126
1757070165.3638778,0.0,0.0,0.0,0.0,0.0,0.977732546952191,0.2633582438247012,9.318635942537687e-06,-0.23127075,0.058232160000000005,9.77317326,0.00424,-0.000107,0.003107,0.16023856621569998
1757070165.3849316,0.0,0.0,0.0,0.0,0.0,0.977732546952191,0.2633582438247012,8.736095883072851e-06,-0.23201631,0.039367530000000005,9.77737194,0.001701,0.00075,0.003487,0.1593718603187688
1757070165.4055953,0.0,0.0,0.0,0.0,0.0,0.977732546952191,0.2633582438247012,8.736095883072851e-06,-0.23201631,0.039367530000000005,9.77737194,0.001701,0.00075,0.003487,0.1593718603187688
1757070165.425792,0.0,0.0,0.0,0.0,0.0,0.977732546952191,0.2633582438247012,7.668397634736786e-06,-0.22976981999999999,0.05478885,9.780658290000002,0.003529,-0.000594,0.002815,0.1573931290990902
1757070165.4461327,0.0,0.0,0.0,0.0,0.0,0.977732546952191,0.2633582438247012,7.668397634736786e-06,-0.22976981999999999,0.05478885,9.780658290000002,0.003529,-0.000594,0.002815,0.1573931290990902
1757070165.4671862,0.0,0.0,0.0,0.0,0.0,0.977732546952191,0.2633582438247012,7.177560548069264e-06,-0.21824307,0.044007660000000004,9.772280550000001,0.00252,-0.000955,0.005119,0.15750365004695938
1757070165.4875336,0.0,0.0,0.0,0.0,0.0,0.977732546952191,0.2633582438247012,7.177560548069264e-06,-0.21824307,0.044007660000000004,9.772280550000001,0.00252,-0.000955,0.005119,0.15750365004695938
1757070165.5084329,0.0,0.0,0.0,0.0,0.0,0.977732546952191,0.2633582438247012,6.257356472760967e-06,-0.22512969000000002,0.04759812000000001,9.783208890000001,0.003827,6e-05,0.004386,0.15535744619640587
1757070165.5291016,0.0,0.0,0.0,0.0,0.0,0.977732546952191,0.2633582438247012,5.51156528309474e-06,-0.22947552000000002,0.03771945,9.79024266,0.00312,7e-06,0.002901,0.1533305762384371
1757070165.54969,0.0,0.0,0.0,0.0,0.0,0.977732546952191,0.2633582438247012,5.179563512502561e-06,-0.2282787,0.047902230000000004,9.79069392,0.003117,-0.000735,0.003919,0.1533906597596459
1757070165.5699477,0.0,0.0,0.0,0.0,0.0,0.977732546952191,0.2633582438247012,4.865745536305e-06,-0.21151341,0.051796800000000004,9.78230637,0.003058,0.000864,0.002989,0.1532478251262309
1757070165.5907495,0.0,0.0,0.0,0.0,0.0,0.977732546952191,0.2633582438247012,4.571561949642445e-06,-0.23022108,0.03307932,9.78874173,0.003629,0.001845,0.004118,0.15271280963970543
1757070165.6123111,0.0,0.0,0.0,0.0,0.0,0.977732546952191,0.2633582438247012,4.571561949642445e-06,-0.21899844000000002,0.055083150000000004,9.7869465,0.003059,0.000506,0.004188,0.15952187728968206
1757070165.6330352,0.0,0.0,0.0,0.0,0.0,0.977732546952191,0.2633582438247012,4.023893312348372e-06,-0.22199049,0.04850064,9.78814332,0.002041,-0.000344,0.006028,0.151421225281081
1757070165.653499,0.0,0.0,0.0,0.0,0.0,0.977732546952191,0.2633582438247012,3.7797050427832254e-06,-0.23276187000000004,0.043860510000000005,9.77407578,0.003604,0.001769,0.002717,0.15129871820202231
1757070165.6736732,0.0,0.0,0.0,0.0,0.0,0.977732546952191,0.2633582438247012,3.5505931137555994e-06,-0.2314179,0.04879494,9.77991273,0.003207,-0.000179,0.004107,0.15098799603907576
1757070165.6938791,0.0,0.0,0.0,0.0,0.0,0.977732546952191,0.2633582438247012,3.3356190565461782e-06,-0.23127075,0.050590170000000004,9.79742358,0.003079,0.000425,0.005922,0.15063423027654937
1757070165.7146852,0.0,0.0,0.0,0.0,0.0,0.977732546952191,0.2633582438247012,3.1278669698560908e-06,-0.22887711000000002,0.05029587,9.787996170000001,0.002993,0.000711,0.002637,0.15087546940355842
1757070165.7358322,0.0,0.0,0.0,0.0,0.0,0.977732546952191,0.2633582438247012,2.9358716006242553e-06,-0.23381154,0.04984461,9.780815250000002,0.003218,0.001673,0.002644,0.14993203609515246
1757070165.756076,0.0,0.0,0.0,0.0,0.0,0.977732546952191,0.2633582438247012,2.757721486524231e-06,-0.22692492,0.040711500000000005,9.78844743,0.00287,5.1e-05,0.005893,0.14944866792917802
1757070165.7762127,0.0,0.0,0.0,0.0,0.0,0.977732546952191,0.2633582438247012,2.5900275641511655e-06,-0.22872015,0.049246200000000004,9.80026848,0.001944,-0.001784,0.003722,0.1493632917634876
1757070165.7997053,0.0,0.0,0.0,0.0,0.0,0.977732546952191,0.2633582438247012,2.4257220352958944e-06,-0.22872015,0.04775508,9.78215922,0.001806,-0.000685,0.004145,0.14992273513045648
1757070165.8239043,0.0,0.0,0.0,0.0,0.0,0.977732546952191,0.2633582438247012,2.1395210875378117e-06,-0.23052519,0.05598567000000001,9.779010210000001,0.003164,-0.001038,0.003587,0.14820278895979314
1757070165.8440151,0.0,0.0,0.0,0.0,0.0,0.977732546952191,0.2633582438247012,2.00989959726481e-06,-0.23081949000000002,0.0489519,9.78874173,0.003058,0.00019,0.004828,0.1482613127387318
1757070165.864893,0.0,0.0,0.0,0.0,0.0,0.977732546952191,0.2633582438247012,1.8881602732035047e-06,-0.22034241,0.04984461,9.77692068,0.003307,0.000997,0.005051,0.14807690154618125
1757070165.885146,0.0,0.0,0.0,0.0,0.0,0.977732546952191,0.2633582438247012,1.7737726705000563e-06,-0.23576373,0.05223825,9.78574968,0.00336,-0.000377,0.003277,0.14787924325499285
1757070165.9053485,0.0,0.0,0.0,0.0,0.0,0.977732546952191,0.2633582438247012,1.7737726705000563e-06,-0.23576373,0.05223825,9.78574968,0.00336,-0.000377,0.003277,0.14787924325499285
1757070165.9258683,0.0,0.0,0.0,0.0,0.0,0.977732546952191,0.2633582438247012,1.562473916777165e-06,-0.22153923,0.03652263,9.77737194,0.002858,0.000503,0.003829,0.14716786329326148
1757070165.946823,0.0,0.0,0.0,0.0,0.0,0.977732546952191,0.2633582438247012,1.467598218883367e-06,-0.22244175000000002,0.04086846000000001,9.774968490000001,0.003444,-0.001437,0.00336,0.14722402518995678
1757070165.967299,0.0,0.0,0.0,0.0,0.0,0.977732546952191,0.2633582438247012,1.3785015254031537e-06,-0.22543380000000002,0.05627997,9.77467419,0.003239,-0.00056,0.002713,0.14710043760609248
1757070165.9875188,0.0,0.0,0.0,0.0,0.0,0.977732546952191,0.2633582438247012,1.2944654555627297e-06,-0.24100227,0.053140770000000004,9.78874173,0.002958,-0.001458,0.004232,0.14703972936789053
1757070166.0079036,0.0,0.0,0.0,0.0,0.0,0.977732546952191,0.2633582438247012,1.2944654555627297e-06,-0.24100227,0.053140770000000004,9.78874173,0.002958,-0.001458,0.004232,0.14703972936789053
1757070166.0296068,0.0,0.0,0.0,0.0,0.0,0.977732546952191,0.2633582438247012,1.1369954976359082e-06,-0.22708187999999999,0.045802890000000006,9.79218504,0.003285,0.000533,0.005758,0.14626800721998626
1757070166.0514283,0.0,0.0,0.0,0.0,0.0,0.977732546952191,0.2633582438247012,1.0666335823265142e-06,-0.22887711000000002,0.04550859,9.78305193,0.002088,0.002033,0.003936,0.14655150889579446
1757070166.0718024,0.0,0.0,0.0,0.0,0.0,0.977732546952191,0.2633582438247012,1.0666335823265142e-06,-0.22887711000000002,0.04550859,9.78305193,0.002088,0.002033,0.003936,0.14655150889579446
1757070166.0929756,0.0,0.0,0.0,0.0,0.0,0.977732546952191,0.2633582438247012,1.0666335823265142e-06,-0.22708187999999999,0.05538726,9.78814332,0.003597,-0.000732,0.003991,0.15595703381260664
1757070166.1150873,0.0,0.0,0.0,0.0,0.0,0.977732546952191,0.2633582438247012,8.750689160425405e-07,-0.22184334,0.058232160000000005,9.780962400000002,0.003423,-0.001283,0.004957,0.14536188720780757
1757070166.1355207,0.0,0.0,0.0,0.0,0.0,0.977732546952191,0.2633582438247012,8.229580749696327e-07,-0.22603221,0.05988024,9.780815250000002,0.001747,-0.000827,0.003665,0.14502620422854884
1757070166.1571367,0.0,0.0,0.0,0.0,0.0,0.977732546952191,0.2633582438247012,7.73883828034803e-07,-0.22094082,0.04999176,9.78829047,0.002456,0.000162,0.005994,0.14558426489024445
1757070166.1775665,0.0,0.0,0.0,0.0,0.0,0.977732546952191,0.2633582438247012,7.275850271291158e-07,-0.22094082,0.04999176,9.78829047,0.002456,0.000162,0.005994,0.14573186467452692
1757070166.1987593,0.0,0.0,0.0,0.0,0.0,0.977732546952191,0.2633582438247012,6.838311654131282e-07,-0.23232042000000003,0.05912487,9.768690090000002,0.005193,4e-06,0.004327,0.14966057849310185
1757070166.2190201,0.0,0.0,0.0,0.0,0.0,0.977732546952191,0.2633582438247012,6.427374211747332e-07,-0.23232042000000003,0.05912487,9.768690090000002,0.005193,4e-06,0.004327,0.14559080362279678
1757070166.2429602,0.0,0.0,0.0,0.0,0.0,0.977732546952191,0.2633582438247012,5.669362088085934e-07,-0.21539817000000003,0.0489519,9.780658290000002,0.003316,-0.000437,0.003095,0.1451599007293838
1757070166.2648053,0.0,0.0,0.0,0.0,0.0,0.977732546952191,0.2633582438247012,5.325609044818624e-07,-0.21135645000000003,0.045802890000000006,9.78529842,0.002502,0.000724,0.00425,0.14542163042948048
1757070166.2848017,0.0,0.0,0.0,0.0,0.0,0.977732546952191,0.2633582438247012,5.004019727756448e-07,-0.22752333,0.05747679,9.787397760000001,0.002746,2.7e-05,0.004437,0.1452255482728181
1757070166.3052597,0.0,0.0,0.0,0.0,0.0,0.977732546952191,0.2633582438247012,5.004019727756448e-07,-0.22752333,0.05747679,9.787397760000001,0.002746,2.7e-05,0.004437,0.1452255482728181
1757070166.3269043,0.0,0.0,0.0,0.0,0.0,0.977732546952191,0.2633582438247012,5.004019727756448e-07,-0.22708187999999999,0.0489519,9.79758054,0.003363,-0.000839,0.004865,0.15515967879448456
1757070166.348698,0.0,0.0,0.0,0.0,0.0,0.977732546952191,0.2633582438247012,4.11560848365023e-07,-0.23605803000000003,0.056878380000000006,9.79038981,0.002421,-0.000121,0.005915,0.14432399161247628
1757070166.3688633,0.0,0.0,0.0,0.0,0.0,0.977732546952191,0.2633582438247012,3.8696749770972764e-07,-0.22902426,0.04475322,9.78589683,0.004602,0.000299,0.003209,0.14442029771888307
1757070166.389207,0.0,0.0,0.0,0.0,0.0,0.977732546952191,0.2633582438247012,3.8696749770972764e-07,-0.22902426,0.04475322,9.78589683,0.004602,0.000299,0.003209,0.14442029771888307
1757070166.4102678,0.0,0.0,0.0,0.0,0.0,0.977732546952191,0.2633582438247012,3.406333995864614e-07,-0.23321313,0.05837931,9.779167170000001,0.00375,-0.001072,0.003396,0.14456743967784796
1757070166.4307065,0.0,0.0,0.0,0.0,0.0,0.977732546952191,0.2633582438247012,3.2020063908713747e-07,-0.2225889,0.06271533,9.78993855,0.002023,-8.2e-05,0.005034,0.14452033953917456
1757070166.4515035,0.0,0.0,0.0,0.0,0.0,0.977732546952191,0.2633582438247012,3.005527987231776e-07,-0.23605803000000003,0.046705409999999996,9.78529842,0.002654,0.000272,0.005506,0.14520545709355265
1757070166.4718316,0.0,0.0,0.0,0.0,0.0,0.977732546952191,0.2633582438247012,2.8243621239030114e-07,-0.22902426,0.047902230000000004,9.7781175,0.001606,0.00011,0.004246,0.14459020239290493
1757070166.4924042,0.0,0.0,0.0,0.0,0.0,0.977732546952191,0.2633582438247012,2.653449964980232e-07,-0.22572810000000001,0.048353490000000006,9.77991273,0.002032,-0.000886,0.003292,0.14480335075697245
1757070166.5129383,0.0,0.0,0.0,0.0,0.0,0.977732546952191,0.2633582438247012,2.4933391431402077e-07,-0.21720321,0.049246200000000004,9.78964425,0.002431,-0.000945,0.004954,0.14470975229656657
1757070166.533823,0.0,0.0,0.0,0.0,0.0,0.977732546952191,0.2633582438247012,2.342709425311627e-07,-0.22572810000000001,0.057633750000000004,9.799817220000001,0.003278,-0.000205,0.003985,0.14473927363417183
1757070166.5546422,0.0,0.0,0.0,0.0,0.0,0.977732546952191,0.2633582438247012,2.2010679792521513e-07,-0.21390705000000002,0.04999176,9.779167170000001,0.002486,0.00067,0.005592,0.14472451589214155
1757070166.5758264,0.0,0.0,0.0,0.0,0.0,0.977732546952191,0.2633582438247012,2.0674859159844613e-07,-0.22976981999999999,0.05074713,9.78529842,0.003519,-0.000912,0.005716,0.14477016771151874
1757070166.5958629,0.0,0.0,0.0,0.0,0.0,0.977732546952191,0.2633582438247012,1.9417429267846206e-07,-0.22857300000000003,0.0606258,9.79338186,0.003193,-0.000358,0.00334,0.14474767813123018
1757070166.6167977,0.0,0.0,0.0,0.0,0.0,0.977732546952191,0.2633582438247012,1.8233693119787078e-07,-0.22872015,0.04146687,9.78470001,0.003068,0.000883,0.002277,0.14474170748293455
1757070166.6393557,0.0,0.0,0.0,0.0,0.0,0.977732546952191,0.2633582438247012,1.7124953188483552e-07,-0.21899844000000002,0.04371336,9.787849020000001,0.002457,-0.000315,0.003609,0.1446331456158158
1757070166.6578622,0.0,0.0,0.0,0.0,0.0,0.977732546952191,0.2633582438247012,1.6081721895955227e-07,-0.21899844000000002,0.04371336,9.787849020000001,0.002457,-0.000315,0.003609,0.14467869917671056
1757070166.678232,0.0,0.0,0.0,0.0,0.0,0.977732546952191,0.2633582438247012,1.6081721895955227e-07,-0.21899844000000002,0.04371336,9.787849020000001,0.002457,-0.000315,0.003609,0.14467869917671056
1757070166.7005136,0.0,0.0,0.0,0.0,0.0,0.977732546952191,0.2633582438247012,1.499857869404066e-07,-0.22677777,0.06017454,9.78844743,0.002404,-5.4e-05,0.003136,0.14635209922284206
1757070166.720551,0.0,0.0,0.0,0.0,0.0,0.977732546952191,0.2633582438247012,1.3153690962066962e-07,-0.22663062000000003,0.05328792,9.7866522,0.002931,-0.001117,0.00532,0.1439285746176309
1757070166.742102,0.0,0.0,0.0,0.0,0.0,0.977732546952191,0.2633582438247012,1.162571180378084e-07,-0.23291883000000002,0.06541308000000001,9.77976558,0.003601,0.000292,0.004945,0.14400960948437846
1757070166.7630975,0.0,0.0,0.0,0.0,0.0,0.977732546952191,0.2633582438247012,1.0929490517299013e-07,-0.21959685,0.053886329999999996,9.78500412,0.003084,-0.000239,0.004904,0.14452672709780212
1757070166.7831094,0.0,0.0,0.0,0.0,0.0,0.977732546952191,0.2633582438247012,1.0273602814201795e-07,-0.21106215,0.05014872000000001,9.7866522,0.003855,-0.000863,0.004737,0.14460740724625937
1757070166.8042064,0.0,0.0,0.0,0.0,0.0,0.977732546952191,0.2633582438247012,9.653498138375646e-08,-0.22378572,0.045802890000000006,9.80222067,0.003625,-0.000612,0.004757,0.1447177708158739
1757070166.824936,0.0,0.0,0.0,0.0,0.0,0.977732546952191,0.2633582438247012,9.071924157191162e-08,-0.23261472000000002,0.06301944000000001,9.77871591,0.001843,-0.000995,0.004435,0.14461069586090333
1757070166.845356,0.0,0.0,0.0,0.0,0.0,0.977732546952191,0.2633582438247012,8.525273018092256e-08,-0.21943989,0.04955031,9.783954450000001,0.003455,-0.001437,0.003935,0.14462253275412534
1757070166.8654723,0.0,0.0,0.0,0.0,0.0,0.977732546952191,0.2633582438247012,8.010410687820994e-08,-0.22199049,0.04715667,9.787692060000001,0.003562,-0.000778,0.003467,0.14467595311070167
1757070166.888871,0.0,0.0,0.0,0.0,0.0,0.977732546952191,0.2633582438247012,7.516465261888476e-08,-0.23007393000000004,0.05089428,9.78574968,0.004629,-0.001935,0.005741,0.1450823543690066
1757070166.9096653,0.0,0.0,0.0,0.0,0.0,0.977732546952191,0.2633582438247012,7.062265697122698e-08,-0.22363857000000004,0.05403348,9.775723860000001,0.004182,-0.000146,0.003506,0.14441177135414612
1757070166.9307024,0.0,0.0,0.0,0.0,0.0,0.977732546952191,0.2633582438247012,6.634640501349684e-08,-0.23306598000000003,0.04475322,9.78201207,0.00596,-0.000838,0.002887,0.1446499595929807
1757070166.95099,0.0,0.0,0.0,0.0,0.0,0.977732546952191,0.2633582438247012,6.23089432269239e-08,-0.22304016000000002,0.052395210000000005,9.780815250000002,0.002721,0.001372,0.004662,0.14480037605805435
1757070166.9719942,0.0,0.0,0.0,0.0,0.0,0.977732546952191,0.2633582438247012,5.852938173452188e-08,-0.22304016000000002,0.0464013,9.77287896,0.003569,0.000297,0.006095,0.14469810178442652
1757070166.9924085,0.0,0.0,0.0,0.0,0.0,0.977732546952191,0.2633582438247012,5.852938173452188e-08,-0.22304016000000002,0.0464013,9.77287896,0.003569,0.000297,0.006095,0.14469810178442652
1757070167.0143614,0.0,0.0,0.0,0.0,0.0,0.977732546952191,0.2633582438247012,5.1348684109614796e-08,-0.22558095000000003,0.051796800000000004,9.78634809,0.004139,0.000495,0.004469,0.14462302446923564
1757070167.0353265,0.0,0.0,0.0,0.0,0.0,0.977732546952191,0.2633582438247012,4.824697570929052e-08,-0.21390705000000002,0.03831786,9.7869465,0.002378,-0.000695,0.00406,0.14407236425314585
1757070167.0561726,0.0,0.0,0.0,0.0,0.0,0.977732546952191,0.2633582438247012,4.5332627498704726e-08,-0.22438413000000001,0.06452037000000001,9.78335604,0.003219,-0.000857,0.005282,0.1445957560466707
1757070167.0819812,0.0,0.0,0.0,0.0,0.0,0.977732546952191,0.2633582438247012,4.001569143489281e-08,-0.23081949000000002,0.05912487,9.77452704,0.003447,-0.000415,0.004093,0.1448598649810814
1757070167.103445,0.0,0.0,0.0,0.0,0.0,0.977732546952191,0.2633582438247012,3.758121805772877e-08,-0.22348161,0.048049379999999996,9.78620094,0.004213,0.000826,0.003139,0.14501288949120333
1757070167.1238563,0.0,0.0,0.0,0.0,0.0,0.977732546952191,0.2633582438247012,3.530400117492173e-08,-0.21824307,0.0634707,9.77108373,0.002874,0.000244,0.003336,0.14488859517989724
1757070167.143879,0.0,0.0,0.0,0.0,0.0,0.977732546952191,0.2633582438247012,3.316108575009139e-08,-0.21615354000000003,0.05478885,9.79323471,0.002713,-0.000342,0.003623,0.14498291533912921
1757070167.1646492,0.0,0.0,0.0,0.0,0.0,0.977732546952191,0.2633582438247012,3.113600954882103e-08,-0.23545962,0.04550859,9.77092677,0.003191,-0.000332,0.003456,0.1451296489443934
1757070167.1850398,0.0,0.0,0.0,0.0,0.0,0.977732546952191,0.2633582438247012,2.9242770629050972e-08,-0.22976981999999999,0.036071370000000005,9.79413723,0.000644,0.000172,0.00456,0.14499568615447608
1757070167.2053318,0.0,0.0,0.0,0.0,0.0,0.977732546952191,0.2633582438247012,2.746143125069066e-08,-0.2228832,0.05299362,9.77751909,0.002584,0.000183,0.005014,0.145097598862402
1757070167.2258563,0.0,0.0,0.0,0.0,0.0,0.977732546952191,0.2633582438247012,2.578934682849878e-08,-0.21899844000000002,0.05134554,9.787996170000001,0.003515,-0.001696,0.005486,0.14510961834247782
1757070167.245983,0.0,0.0,0.0,0.0,0.0,0.977732546952191,0.2633582438247012,2.4217888736160754e-08,-0.22917141000000002,0.05478885,9.77737194,0.002351,-0.001393,0.004962,0.14516272609670003
1757070167.2659974,0.0,0.0,0.0,0.0,0.0,0.977732546952191,0.2633582438247012,2.274062028622168e-08,-0.21495672000000002,0.0489519,9.78589683,0.003067,0.0005,0.002314,0.1452135971679309
1757070167.2863514,0.0,0.0,0.0,0.0,0.0,0.977732546952191,0.2633582438247012,2.274062028622168e-08,-0.21495672000000002,0.0489519,9.78589683,0.003067,0.0005,0.002314,0.1452135971679309
1757070167.307918,0.0,0.0,0.0,0.0,0.0,0.977732546952191,0.2633582438247012,1.9967274168043764e-08,-0.21929274,0.04415481,9.78245352,0.002826,-0.000235,0.004657,0.14486826993141172
1757070167.3287385,0.0,0.0,0.0,0.0,0.0,0.977732546952191,0.2633582438247012,1.8755228666141966e-08,-0.22632651000000004,0.05883057,9.77781339,0.002429,-0.000377,0.00289,0.1448332658261395
1757070167.3497806,0.0,0.0,0.0,0.0,0.0,0.977732546952191,0.2633582438247012,1.7615664443352975e-08,-0.23411565,0.06706116000000001,9.77512545,0.003072,-9.6e-05,0.002557,0.14522294478853326
1757070167.3708413,0.0,0.0,0.0,0.0,0.0,0.977732546952191,0.2633582438247012,1.6544001156615577e-08,-0.22512969000000002,0.06421626,9.78335604,0.003571,-0.001115,0.003705,0.14537647624114544
1757070167.3913527,0.0,0.0,0.0,0.0,0.0,0.977732546952191,0.2633582438247012,1.5538729703246574e-08,-0.20821725000000002,0.034727400000000005,9.783503190000001,0.001843,-0.000891,0.004702,0.14540233622020798
1757070167.4122596,0.0,0.0,0.0,0.0,0.0,0.977732546952191,0.2633582438247012,1.4590694138387455e-08,-0.23007393000000004,0.027242370000000002,9.77751909,0.002894,-0.000921,0.003936,0.14554876157988417
1757070167.4329627,0.0,0.0,0.0,0.0,0.0,0.977732546952191,0.2633582438247012,1.3700898490475026e-08,-0.22543380000000002,0.05792805,9.77766624,0.003284,0.000845,0.004703,0.14554076106666775
1757070167.453771,0.0,0.0,0.0,0.0,0.0,0.977732546952191,0.2633582438247012,1.2850904044839386e-08,-0.22617936000000002,0.05627997,9.77077962,0.003915,7.1e-05,0.003717,0.14593229777682476
1757070167.4738278,0.0,0.0,0.0,0.0,0.0,0.977732546952191,0.2633582438247012,1.206863365846937e-08,-0.21824307,0.030391380000000003,9.77467419,0.003341,-0.000584,0.004471,0.14536548649151393
1757070167.4947772,0.0,0.0,0.0,0.0,0.0,0.977732546952191,0.2633582438247012,1.1331288287643273e-08,-0.23665644,0.04146687,9.77661657,0.001756,0.000168,0.004184,0.14567007062301465
1757070167.5157187,0.0,0.0,0.0,0.0,0.0,0.977732546952191,0.2633582438247012,1.0624388458129384e-08,-0.20911977,0.0606258,9.784405710000001,0.003554,0.000908,0.003832,0.14615241387169442
1757070167.5373428,0.0,0.0,0.0,0.0,0.0,0.977732546952191,0.2633582438247012,9.975563169227408e-09,-0.23471406,0.038621970000000005,9.79443153,0.001737,-0.001011,0.004283,0.1455009242671692
1757070167.5579524,0.0,0.0,0.0,0.0,0.0,0.977732546952191,0.2633582438247012,9.364661884703911e-09,-0.22812174000000002,0.06301944000000001,9.78455286,0.00308,0.000268,0.003529,0.14946142619014946
1757070167.5783415,0.0,0.0,0.0,0.0,0.0,0.977732546952191,0.2633582438247012,8.794816978186164e-09,-0.22812174000000002,0.06301944000000001,9.78455286,0.00308,0.000268,0.003529,0.14574371948087594
1757070167.601942,0.0,0.0,0.0,0.0,0.0,0.977732546952191,0.2633582438247012,8.228649727602997e-09,-0.23022108,0.05044302,9.79758054,0.00203,0.000901,0.005661,0.1469401623303262
1757070167.6230354,0.0,0.0,0.0,0.0,0.0,0.977732546952191,0.2633582438247012,7.2508987491465364e-09,-0.23381154,-0.01092834,9.79248915,0.00558,-0.002466,0.003725,0.14541275535960305
1757070167.6432633,0.0,0.0,0.0,0.0,0.0,0.977732546952191,0.2633582438247012,6.812028554581512e-09,-0.22737618,0.04041720000000001,9.796079610000001,0.003953,0.000875,0.005377,0.14587068345658188
1757070167.664054,0.0,0.0,0.0,0.0,0.0,0.977732546952191,0.2633582438247012,6.399583514612441e-09,-0.22782744000000002,0.07559586,9.82152675,0.003876,-0.000368,0.004854,0.1460597801685123
1757070167.6850832,0.0,0.0,0.0,0.0,0.0,0.977732546952191,0.2633582438247012,6.011608643438202e-09,-0.22333446,0.06137136000000001,9.796079610000001,0.0033,9.2e-05,0.004287,0.14617392150561112
1757070167.7056417,0.0,0.0,0.0,0.0,0.0,0.977732546952191,0.2633582438247012,5.646953677088598e-09,-0.22094082,0.01856052,9.78574968,0.001302,-0.00041,0.003146,0.14623343096383634
1757070167.729886,0.0,0.0,0.0,0.0,0.0,0.977732546952191,0.2633582438247012,5.295701100890302e-09,-0.23306598000000003,0.021552570000000004,9.79189074,0.001797,-0.001026,0.005646,0.14678591912564298
1757070167.75055,0.0,0.0,0.0,0.0,0.0,0.977732546952191,0.2633582438247012,4.97409868742477e-09,-0.23306598000000003,0.02769363,9.78919299,0.005028,-0.000772,0.005066,0.14603380304524352
1757070167.7709186,0.0,0.0,0.0,0.0,0.0,0.977732546952191,0.2633582438247012,4.672324165265722e-09,-0.21285737999999998,0.06795387,9.79398027,0.004094,0.000349,0.003797,0.14628532983455014
1757070167.7911217,0.0,0.0,0.0,0.0,0.0,0.977732546952191,0.2633582438247012,4.3884616911215935e-09,-0.23306598000000003,0.07184844,9.783650340000001,0.004445,-9.5e-05,0.004532,0.14644738070482186
1757070167.8114054,0.0,0.0,0.0,0.0,0.0,0.977732546952191,0.2633582438247012,4.1212956812089174e-09,-0.22976981999999999,0.0691605,9.77032836,0.001831,-0.001845,0.002746,0.1465535983219487
1757070167.8320196,0.0,0.0,0.0,0.0,0.0,0.977732546952191,0.2633582438247012,3.870490007765668e-09,-0.22812174000000002,0.04984461,9.7869465,0.004783,-1.3e-05,0.002298,0.14658038081627162
1757070167.8530803,0.0,0.0,0.0,0.0,0.0,0.977732546952191,0.2633582438247012,3.6347145915551803e-09,-0.22947552000000002,0.03622833,9.775566900000001,0.005194,-0.001623,0.002969,0.14665768770372087
1757070167.8731587,0.0,0.0,0.0,0.0,0.0,0.977732546952191,0.2633582438247012,3.4124762037743823e-09,-0.22467843,0.033530580000000004,9.78545538,0.004055,-0.000679,0.001576,0.14678377306819454
1757070167.8934753,0.0,0.0,0.0,0.0,0.0,0.977732546952191,0.2633582438247012,3.4124762037743823e-09,-0.22467843,0.033530580000000004,9.78545538,0.004055,-0.000679,0.001576,0.14678377306819454
1757070167.9139583,0.0,0.0,0.0,0.0,0.0,0.977732546952191,0.2633582438247012,2.9900958348038403e-09,-0.23500836000000003,0.060321690000000004,9.78500412,0.001294,-0.00024,0.003551,0.1465277409742503
1757070167.9349103,0.0,0.0,0.0,0.0,0.0,0.977732546952191,0.2633582438247012,2.80877911143959e-09,-0.22543380000000002,0.06316659000000001,9.787996170000001,0.001698,-0.001367,0.004204,0.1460894770320329
1757070167.9554665,0.0,0.0,0.0,0.0,0.0,0.977732546952191,0.2633582438247012,2.632320234621532e-09,-0.21180771,0.045204480000000005,9.779167170000001,0.001549,-0.00122,0.005384,0.14745262377182045
1757070167.9770803,0.0,0.0,0.0,0.0,0.0,0.977732546952191,0.2633582438247012,2.472622693007077e-09,-0.21615354000000003,0.03726819,9.78305193,0.004297,0.000344,0.003186,0.15002355682563354
1757070168.0015392,0.0,0.0,0.0,0.0,0.0,0.977732546952191,0.2633582438247012,2.1832961535452677e-09,-0.23156505000000002,0.04161402,9.767787570000001,0.004621,0.00168,0.004681,0.1470593269497297
1757070168.0215867,0.0,0.0,0.0,0.0,0.0,0.977732546952191,0.2633582438247012,2.0512474297511e-09,-0.22048956,0.03248091,9.77706783,0.002823,0.000613,0.003879,0.1471883316122244
1757070168.0426433,0.0,0.0,0.0,0.0,0.0,0.977732546952191,0.2633582438247012,1.9269967494131185e-09,-0.22123512,0.06930765,9.799375770000001,0.002309,-0.002239,0.003066,0.14727417086154468
1757070168.0631485,0.0,0.0,0.0,0.0,0.0,0.977732546952191,0.2633582438247012,1.9269967494131185e-09,-0.22123512,0.06930765,9.799375770000001,0.002309,-0.002239,0.003066,0.14727417086154468
1757070168.0837424,0.0,0.0,0.0,0.0,0.0,0.977732546952191,0.2633582438247012,1.6973523788379274e-09,-0.22917141000000002,0.045802890000000006,9.787996170000001,0.003043,0.000506,0.003931,0.14698045979393598
1757070168.1041532,0.0,0.0,0.0,0.0,0.0,0.977732546952191,0.2633582438247012,1.5939277029583873e-09,-0.21869433000000002,0.04475322,9.77886306,0.003007,9e-06,0.003429,0.1474577200065046
1757070168.1246948,0.0,0.0,0.0,0.0,0.0,0.977732546952191,0.2633582438247012,1.497218239131763e-09,-0.23381154,0.06780672,9.787544910000001,0.003007,9e-06,0.003429,0.1474391590495498
1757070168.1449103,0.0,0.0,0.0,0.0,0.0,0.977732546952191,0.2633582438247012,1.4062068187664964e-09,-0.2140542,0.048353490000000006,9.76704201,0.005398,-0.001437,0.005203,0.14759778327216982
1757070168.1655684,0.0,0.0,0.0,0.0,0.0,0.977732546952191,0.2633582438247012,1.3207509181727975e-09,-0.23096664,0.04595004,9.77422293,0.001816,-0.000484,0.004556,0.14765070799864993
1757070168.1858423,0.0,0.0,0.0,0.0,0.0,0.977732546952191,0.2633582438247012,1.3207509181727975e-09,-0.23096664,0.04595004,9.77422293,0.001816,-0.000484,0.004556,0.14765070799864993
1757070168.2068467,0.0,0.0,0.0,0.0,0.0,0.977732546952191,0.2633582438247012,1.234696408431262e-09,-0.2080701,0.047902230000000004,9.7869465,0.003891,0.001718,0.001547,0.14898027898132352
1757070168.2272155,0.0,0.0,0.0,0.0,0.0,0.977732546952191,0.2633582438247012,1.0869661253858612e-09,-0.22632651000000004,0.03128409,9.7784118,0.00434,0.000952,0.003759,0.14705987392960307
1757070168.248201,0.0,0.0,0.0,0.0,0.0,0.977732546952191,0.2633582438247012,1.0213711544673495e-09,-0.21316148999999998,0.046548450000000005,9.77512545,0.002127,-0.000311,0.00559,0.14756919888453784
1757070168.268503,0.0,0.0,0.0,0.0,0.0,0.977732546952191,0.2633582438247012,1.0213711544673495e-09,-0.21316148999999998,0.046548450000000005,9.77512545,0.002127,-0.000311,0.00559,0.14756919888453784
1757070168.2887535,0.0,0.0,0.0,0.0,0.0,0.977732546952191,0.2633582438247012,8.992831339496874e-10,-0.23516532,0.06196977,9.78275763,0.004416,-0.000478,0.003843,0.1475614549852684
1757070168.3093092,0.0,0.0,0.0,0.0,0.0,0.977732546952191,0.2633582438247012,8.451628615333392e-10,-0.22976981999999999,0.0375723,9.77437008,0.003376,-0.000328,0.005167,0.14783600660697646
1757070168.3295624,0.0,0.0,0.0,0.0,0.0,0.977732546952191,0.2633582438247012,7.941620752372392e-10,-0.22348161,0.04685256,9.78305193,0.003906,0.000352,0.004399,0.14814828388592366
1757070168.3500078,0.0,0.0,0.0,0.0,0.0,0.977732546952191,0.2633582438247012,7.941620752372392e-10,-0.22348161,0.04685256,9.78305193,0.003906,0.000352,0.004399,0.14814828388592366
1757070168.3705025,0.0,0.0,0.0,0.0,0.0,0.977732546952191,0.2633582438247012,6.978479233293593e-10,-0.23067234,0.043860510000000005,9.78245352,0.003925,-3.4e-05,0.004544,0.14798195904317613
1757070168.3908372,0.0,0.0,0.0,0.0,0.0,0.977732546952191,0.2633582438247012,6.55860463691945e-10,-0.22588506000000003,0.06107706,9.775723860000001,0.002464,-0.000604,0.003126,0.14785607831159603
1757070168.411413,0.0,0.0,0.0,0.0,0.0,0.977732546952191,0.2633582438247012,6.163602279998897e-10,-0.21495672000000002,0.04999176,9.79069392,0.002585,0.000578,0.004855,0.14831682333252194
1757070168.4319596,0.0,0.0,0.0,0.0,0.0,0.977732546952191,0.2633582438247012,5.791062889117318e-10,-0.2282787,0.043860510000000005,9.77706783,0.001527,-0.001103,0.003873,0.14856180348095305
1757070168.4521213,0.0,0.0,0.0,0.0,0.0,0.977732546952191,0.2633582438247012,5.432713211059688e-10,-0.23306598000000003,0.046107,9.77871591,0.002874,-0.000942,0.003423,0.1490938429919631
1757070168.473087,0.0,0.0,0.0,0.0,0.0,0.977732546952191,0.2633582438247012,5.1040885030588e-10,-0.21824307,0.03726819,9.78545538,0.00272,-0.000188,0.005543,0.14840077550116235
1757070168.4943528,0.0,0.0,0.0,0.0,0.0,0.977732546952191,0.2633582438247012,5.1040885030588e-10,-0.21659499000000002,0.03876912,9.771829290000001,0.003284,0.000806,0.004326,0.14840077550116235
1757070168.5170248,0.0,0.0,0.0,0.0,0.0,0.977732546952191,0.2633582438247012,4.4834726826961767e-10,-0.22812174000000002,0.05627997,9.787849020000001,0.003143,0.000904,0.004749,0.1509414533177754
1757070168.5375655,0.0,0.0,0.0,0.0,0.0,0.977732546952191,0.2633582438247012,4.213747601251778e-10,-0.22812174000000002,0.05627997,9.787849020000001,0.003143,0.000904,0.004749,0.14829845617617915
1757070168.5611012,0.0,0.0,0.0,0.0,0.0,0.977732546952191,0.2633582438247012,3.7177789416934545e-10,-0.22648347000000002,0.03967164,9.78156081,0.001317,-0.000307,0.004028,0.1488134375106084
1757070168.581784,0.0,0.0,0.0,0.0,0.0,0.977732546952191,0.2633582438247012,3.4933927193811324e-10,-0.22408002000000002,0.048049379999999996,9.77347737,0.002266,0.000275,0.003923,0.14908584952635223
1757070168.6019015,0.0,0.0,0.0,0.0,0.0,0.977732546952191,0.2633582438247012,3.282132565156949e-10,-0.22199049,0.0375723,9.77661657,0.003075,-0.000185,0.004376,0.14922515821657317
1757070168.6228292,0.0,0.0,0.0,0.0,0.0,0.977732546952191,0.2633582438247012,3.0833835622491387e-10,-0.2342628,0.054190440000000006,9.77333022,0.001365,-0.001587,0.003259,0.14930994795748626
1757070168.6434407,0.0,0.0,0.0,0.0,0.0,0.977732546952191,0.2633582438247012,2.8960972636588696e-10,-0.22708187999999999,0.04371336,9.774968490000001,0.003595,-0.000578,0.004522,0.14942777058016332
1757070168.6641119,0.0,0.0,0.0,0.0,0.0,0.977732546952191,0.2633582438247012,2.718481682759341e-10,-0.23500836000000003,0.03907323000000001,9.78455286,0.005401,-0.00021,0.004439,0.14966176559191724
1757070168.6849287,0.0,0.0,0.0,0.0,0.0,0.977732546952191,0.2633582438247012,2.5534910706316257e-10,-0.22902426,0.05343507,9.780511140000002,0.004521,-0.001883,0.005303,0.14938738409383165
1757070168.704974,0.0,0.0,0.0,0.0,0.0,0.977732546952191,0.2633582438247012,2.398318688062941e-10,-0.22782744000000002,0.05598567000000001,9.768238830000001,0.003859,0.000592,0.003374,0.1495794190621879
1757070168.7258134,0.0,0.0,0.0,0.0,0.0,0.977732546952191,0.2633582438247012,2.2525877462101668e-10,-0.22199049,0.052395210000000005,9.787093650000001,0.001757,-0.000951,0.003433,0.14966328565823236
1757070168.745969,0.0,0.0,0.0,0.0,0.0,0.977732546952191,0.2633582438247012,2.115458937934442e-10,-0.21929274,0.057633750000000004,9.79248915,0.001672,-0.001377,0.00553,0.14978176702219678
1757070168.7662396,0.0,0.0,0.0,0.0,0.0,0.977732546952191,0.2633582438247012,1.9866060550446095e-10,-0.2225889,0.05463189,9.784101600000001,0.001672,-0.001377,0.00553,0.14984857529102685
1757070168.7866104,0.0,0.0,0.0,0.0,0.0,0.977732546952191,0.2633582438247012,1.9866060550446095e-10,-0.2225889,0.05463189,9.784101600000001,0.001672,-0.001377,0.00553,0.14984857529102685
1757070168.807795,0.0,0.0,0.0,0.0,0.0,0.977732546952191,0.2633582438247012,1.7447344345921534e-10,-0.22648347000000002,0.04595004,9.79024266,0.002441,-0.00198,0.005535,0.14959616746530907
1757070168.8281608,0.0,0.0,0.0,0.0,0.0,0.977732546952191,0.2633582438247012,1.6389948841765576e-10,-0.22543380000000002,0.05044302,9.77856876,0.003358,-0.000174,0.004393,0.1495812745140943
1757070168.8482234,0.0,0.0,0.0,0.0,0.0,0.977732546952191,0.2633582438247012,1.53958174452913e-10,-0.22048956,0.052395210000000005,9.79338186,0.003363,5.7e-05,0.00345,0.15000408325196624
1757070168.8682299,0.0,0.0,0.0,0.0,0.0,0.977732546952191,0.2633582438247012,1.4460242522259655e-10,-0.23591088000000002,0.05328792,9.79084107,0.003202,-0.000842,0.003426,0.15020792465097074
1757070168.8889563,0.0,0.0,0.0,0.0,0.0,0.977732546952191,0.2633582438247012,1.3581527074827547e-10,-0.21195486000000002,0.050590170000000004,9.78515127,0.003684,-0.000349,0.004999,0.15028730659567133
1757070168.9099393,0.0,0.0,0.0,0.0,0.0,0.977732546952191,0.2633582438247012,1.2755504869669073e-10,-0.22588506000000003,0.046705409999999996,9.783954450000001,0.004162,0.000966,0.004883,0.15038318289473823
1757070168.9306076,0.0,0.0,0.0,0.0,0.0,0.977732546952191,0.2633582438247012,1.1975297862896991e-10,-0.22168638000000002,0.0580752,9.78215922,0.002046,-0.000459,0.003277,0.1505711447270708
1757070168.9532628,0.0,0.0,0.0,0.0,0.0,0.977732546952191,0.2633582438247012,1.1219045506339882e-10,-0.22378572,0.05613282,9.7781175,0.001688,0.000659,0.003837,0.1512088114888922
1757070168.974429,0.0,0.0,0.0,0.0,0.0,0.977732546952191,0.2633582438247012,1.0534863490974796e-10,-0.22917141000000002,0.038621970000000005,9.7894971,0.002553,-0.000741,0.002762,0.150136718243041
1757070168.994656,0.0,0.0,0.0,0.0,0.0,0.977732546952191,0.2633582438247012,9.89455581539324e-11,-0.23336028,0.055534410000000006,9.79084107,0.003394,-0.001238,0.004621,0.15048299924566738
1757070169.0204573,0.0,0.0,0.0,0.0,0.0,0.977732546952191,0.2633582438247012,9.276493999100209e-11,-0.24608385000000002,0.04685256,9.78993855,0.002905,-3.7e-05,0.00518,0.15337804228988391
1757070169.0403051,0.0,0.0,0.0,0.0,0.0,0.977732546952191,0.2633582438247012,8.185548869427232e-11,-0.22992678000000003,0.025898400000000002,9.78649524,0.002158,-0.000568,0.002916,0.15080406408054667
1757070169.061957,0.0,0.0,0.0,0.0,0.0,0.977732546952191,0.2633582438247012,7.685904330781318e-11,-0.21943989,0.053739180000000004,9.77392863,0.004682,0.000814,0.003558,0.15109203645525085
1757070169.0825639,0.0,0.0,0.0,0.0,0.0,0.977732546952191,0.2633582438247012,7.685904330781318e-11,-0.21943989,0.053739180000000004,9.77392863,0.004682,0.000814,0.003558,0.15109203645525085
1757070169.1044562,0.0,0.0,0.0,0.0,0.0,0.977732546952191,0.2633582438247012,7.19220242198745e-11,-0.2314179,0.049697460000000006,9.78904584,0.00217,-0.000548,0.00442,0.15387956077973386
1757070169.124544,0.0,0.0,0.0,0.0,0.0,0.977732546952191,0.2633582438247012,6.33887369023725e-11,-0.22123512,0.05268951,9.78993855,0.001902,-0.000888,0.004908,0.1506606335166552
1757070169.1449883,0.0,0.0,0.0,0.0,0.0,0.977732546952191,0.2633582438247012,5.955662501642305e-11,-0.23306598000000003,0.05163984,9.77407578,0.002937,-0.000537,0.004229,0.15112613926243568
1757070169.1654525,0.0,0.0,0.0,0.0,0.0,0.977732546952191,0.2633582438247012,5.595301744946478e-11,-0.23545962,0.0520911,9.78201207,0.003927,-0.001479,0.004735,0.1513520189977095
1757070169.186424,0.0,0.0,0.0,0.0,0.0,0.977732546952191,0.2633582438247012,5.253123034577937e-11,-0.21525102000000002,0.053140770000000004,9.784405710000001,0.003927,-0.001479,0.004735,0.15168165546523388
1757070169.2065184,0.0,0.0,0.0,0.0,0.0,0.977732546952191,0.2633582438247012,4.9348057360474343e-11,-0.21929274,0.038621970000000005,9.77003406,0.00331,0.000803,0.003408,0.15144812608337577
1757070169.2273006,0.0,0.0,0.0,0.0,0.0,0.977732546952191,0.2633582438247012,4.632689366359084e-11,-0.24100227,0.0580752,9.78261048,0.002968,-8e-05,0.003384,0.15182258531690795
1757070169.248263,0.0,0.0,0.0,0.0,0.0,0.977732546952191,0.2633582438247012,4.346636617421209e-11,-0.21135645000000003,0.05792805,9.7866522,0.004346,0.000343,0.003993,0.15198602741787498
1757070169.2686055,0.0,0.0,0.0,0.0,0.0,0.977732546952191,0.2633582438247012,4.0831145742860934e-11,-0.22617936000000002,0.052542359999999996,9.78470001,0.001442,0.001279,0.003888,0.15153517235522482
1757070169.2886403,0.0,0.0,0.0,0.0,0.0,0.977732546952191,0.2633582438247012,3.8352548902956935e-11,-0.21974400000000002,0.047902230000000004,9.78455286,0.002921,-0.001762,0.00477,0.15183310421840315
1757070169.309143,0.0,0.0,0.0,0.0,0.0,0.977732546952191,0.2633582438247012,3.602013121791578e-11,-0.21959685,0.0464013,9.7869465,0.002476,-0.000188,0.003799,0.15199342058459944
1757070169.3298872,0.0,0.0,0.0,0.0,0.0,0.977732546952191,0.2633582438247012,3.382861061394171e-11,-0.23920704,0.046107,9.78634809,0.003349,-8.2e-05,0.004069,0.1520735258511866
1757070169.35075,0.0,0.0,0.0,0.0,0.0,0.977732546952191,0.2633582438247012,3.1769118442323936e-11,-0.23216346000000002,0.04445892,9.78036399,0.00328,0.000403,0.003128,0.15216026216599335
1757070169.3709,0.0,0.0,0.0,0.0,0.0,0.977732546952191,0.2633582438247012,2.9833450403945545e-11,-0.22632651000000004,0.05583852,9.79398027,0.003589,-0.000971,0.002744,0.15224918646212232
1757070169.391381,0.0,0.0,0.0,0.0,0.0,0.977732546952191,0.2633582438247012,2.9833450403945545e-11,-0.22632651000000004,0.05583852,9.79398027,0.003589,-0.000971,0.002744,0.15224918646212232
1757070169.4123604,0.0,0.0,0.0,0.0,0.0,0.977732546952191,0.2633582438247012,2.618248674341159e-11,-0.22363857000000004,0.05074713,9.78485697,0.003608,0.00078,0.003483,0.15204172173959485
1757070169.4336896,0.0,0.0,0.0,0.0,0.0,0.977732546952191,0.2633582438247012,2.459168587827603e-11,-0.22378572,0.04730382,9.77751909,0.002632,-0.001507,0.004935,0.1519670234677532
1757070169.4602895,0.0,0.0,0.0,0.0,0.0,0.977732546952191,0.2633582438247012,2.3096991632642203e-11,-0.22483539,0.04730382,9.79009551,0.002067,-0.000498,0.003031,0.15630236048340246
1757070169.4759722,0.0,0.0,0.0,0.0,0.0,0.977732546952191,0.2633582438247012,2.1696283182426063e-11,-0.23696055000000002,0.04415481,9.76688505,0.002925,0.000244,0.003946,0.1566702167413971
1757070169.4966156,0.0,0.0,0.0,0.0,0.0,0.977732546952191,0.2633582438247012,2.0378795741088256e-11,-0.22812174000000002,0.04445892,9.775566900000001,0.002126,-7.5e-05,0.003968,0.15696821743009007
1757070169.52037,0.0,0.0,0.0,0.0,0.0,0.977732546952191,0.2633582438247012,1.7972844270211065e-11,-0.22976981999999999,0.05867361000000001,9.77392863,0.003269,0.000164,0.005829,0.15290015621358602
1757070169.5412636,0.0,0.0,0.0,0.0,0.0,0.977732546952191,0.2633582438247012,1.6878648749428675e-11,-0.22857300000000003,0.06002739000000001,9.78215922,0.004328,0.000761,0.004794,0.15298825536034996
1757070169.5615048,0.0,0.0,0.0,0.0,0.0,0.977732546952191,0.2633582438247012,1.5849459054676157e-11,-0.21735036,0.043860510000000005,9.78305193,0.003188,0.000864,0.003202,0.15310076588397736
1757070169.5824444,0.0,0.0,0.0,0.0,0.0,0.977732546952191,0.2633582438247012,1.488292205227351e-11,-0.22483539,0.033530580000000004,9.77018121,0.002436,-0.00027,0.003462,0.1531669300956188
1757070169.6027868,0.0,0.0,0.0,0.0,0.0,0.977732546952191,0.2633582438247012,1.488292205227351e-11,-0.22483539,0.033530580000000004,9.77018121,0.002436,-0.00027,0.003462,0.1531669300956188
1757070169.6234477,0.0,0.0,0.0,0.0,0.0,0.977732546952191,0.2633582438247012,1.3915329818763695e-11,-0.24055101,0.06167547,9.783807300000001,0.002133,-0.000428,0.003785,0.15441729983870126
1757070169.6443756,0.0,0.0,0.0,0.0,0.0,0.977732546952191,0.2633582438247012,1.2254494127370073e-11,-0.22872015,0.04475322,9.774968490000001,0.001849,0.000506,0.003718,0.1526096977754673
1757070169.6643794,0.0,0.0,0.0,0.0,0.0,0.977732546952191,0.2633582438247012,1.1513655260314617e-11,-0.22617936000000002,0.04909905,9.787093650000001,0.002574,0.000658,0.00465,0.15320319688841344
1757070169.6847637,0.0,0.0,0.0,0.0,0.0,0.977732546952191,0.2633582438247012,1.1513655260314617e-11,-0.22617936000000002,0.04909905,9.787093650000001,0.002574,0.000658,0.00465,0.15320319688841344
1757070169.705459,0.0,0.0,0.0,0.0,0.0,0.977732546952191,0.2633582438247012,1.0773924092093928e-11,-0.22962267000000003,0.06017454,9.7869465,0.002328,-0.00025,0.004321,0.1563874030349449
1757070169.7263882,0.0,0.0,0.0,0.0,0.0,0.977732546952191,0.2633582438247012,9.49998154744754e-12,-0.22467843,0.04909905,9.78515127,0.004916,-0.000571,0.004288,0.15299165764548403
1757070169.7472618,0.0,0.0,0.0,0.0,0.0,0.977732546952191,0.2633582438247012,8.92463992806291e-12,-0.22094082,0.06392196,9.77991273,0.00288,0.001758,0.003303,0.15375102485508507
1757070169.7673295,0.0,0.0,0.0,0.0,0.0,0.977732546952191,0.2633582438247012,8.386390850088879e-12,-0.23096664,0.04235958,9.77976558,0.003541,-0.001158,0.004537,0.15379524336058997
1757070169.7878408,0.0,0.0,0.0,0.0,0.0,0.977732546952191,0.2633582438247012,7.879144872301685e-12,-0.21135645000000003,0.04041720000000001,9.78605379,0.003008,0.001144,0.004022,0.15400516573031178
1757070169.8086097,0.0,0.0,0.0,0.0,0.0,0.977732546952191,0.2633582438247012,7.402430695495324e-12,-0.2314179,0.05883057,9.78844743,0.001741,-0.000895,0.003708,0.1540800637457842
1757070169.829567,0.0,0.0,0.0,0.0,0.0,0.977732546952191,0.2633582438247012,6.9540067243200255e-12,-0.22632651000000004,0.05299362,9.78305193,0.002697,0.00068,0.00332,0.15418186417490923
1757070169.8501906,0.0,0.0,0.0,0.0,0.0,0.977732546952191,0.2633582438247012,6.528574562900626e-12,-0.21166056000000003,0.051796800000000004,9.779010210000001,0.003583,-0.002198,0.004767,0.15445560921014906
1757070169.8703835,0.0,0.0,0.0,0.0,0.0,0.977732546952191,0.2633582438247012,6.1326022556808515e-12,-0.23800041000000002,0.04759812000000001,9.77677353,0.002248,-0.001058,0.003126,0.15423623971128525
1757070169.8904724,0.0,0.0,0.0,0.0,0.0,0.977732546952191,0.2633582438247012,5.758873899244387e-12,-0.22842585,0.05478885,9.79353882,0.004304,-0.000831,0.003556,0.15449242560107287
1757070169.9111133,0.0,0.0,0.0,0.0,0.0,0.977732546952191,0.2633582438247012,5.4069317859258394e-12,-0.21510387,0.05403348,9.787692060000001,0.003229,-0.00133,0.002751,0.15460226362654983
1757070169.9321373,0.0,0.0,0.0,0.0,0.0,0.977732546952191,0.2633582438247012,5.076200803894477e-12,-0.23665644,0.046705409999999996,9.78185511,0.001271,0.000265,0.003464,0.15466476997743378
1757070169.9533203,0.0,0.0,0.0,0.0,0.0,0.977732546952191,0.2633582438247012,4.765445584413855e-12,-0.22393287,0.054936000000000006,9.783954450000001,0.003796,0.000731,0.003246,0.1547460890314522
1757070169.973503,0.0,0.0,0.0,0.0,0.0,0.977732546952191,0.2633582438247012,4.473741052144771e-12,-0.21869433000000002,0.051796800000000004,9.78290478,0.00353,-0.000355,0.004576,0.15481470824663657
1757070169.9938545,0.0,0.0,0.0,0.0,0.0,0.977732546952191,0.2633582438247012,4.473741052144771e-12,-0.21869433000000002,0.051796800000000004,9.78290478,0.00353,-0.000355,0.004576,0.15481470824663657
1757070170.0181167,0.0,0.0,0.0,0.0,0.0,0.977732546952191,0.2633582438247012,3.9136730666350835e-12,-0.21479976,0.04250673,9.78275763,0.002188,-0.000389,0.003908,0.15475390585672205
1757070170.0400736,0.0,0.0,0.0,0.0,0.0,0.977732546952191,0.2633582438247012,3.45351278783119e-12,-0.23291883000000002,0.06825798,9.780815250000002,0.004495,0.001208,0.00513,0.15447589000610157
1757070170.0618188,0.0,0.0,0.0,0.0,0.0,0.977732546952191,0.2633582438247012,3.244457684269481e-12,-0.23935419000000002,0.04475322,9.79189074,0.002719,0.001431,0.003469,0.15515964043562835
1757070170.0827124,0.0,0.0,0.0,0.0,0.0,0.977732546952191,0.2633582438247012,3.0491735164982393e-12,-0.2228832,0.053592030000000006,9.77601816,0.004121,0.000587,0.003205,0.15515514861778765
1757070170.1029432,0.0,0.0,0.0,0.0,0.0,0.977732546952191,0.2633582438247012,2.8651170292050103e-12,-0.23995260000000002,0.0634707,9.775419750000001,0.002642,-1e-05,0.003098,0.15537994410001377
1757070170.123943,0.0,0.0,0.0,0.0,0.0,0.977732546952191,0.2633582438247012,2.691943210965519e-12,-0.22931856000000003,0.052542359999999996,9.7929306,0.002313,-0.000119,0.00227,0.15548197203766845
1757070170.1447198,0.0,0.0,0.0,0.0,0.0,0.977732546952191,0.2633582438247012,2.5290868121213838e-12,-0.22768029,0.04730382,9.771525180000001,0.004233,-0.000167,0.004293,0.15556808457693433
1757070170.1650655,0.0,0.0,0.0,0.0,0.0,0.977732546952191,0.2633582438247012,2.5290868121213838e-12,-0.22768029,0.04730382,9.771525180000001,0.004233,-0.000167,0.004293,0.15556808457693433
1757070170.1857383,0.0,0.0,0.0,0.0,0.0,0.977732546952191,0.2633582438247012,2.222690228133319e-12,-0.22378572,0.05044302,9.79038981,0.002161,-0.001369,0.004553,0.15536359055830112
1757070170.2060268,0.0,0.0,0.0,0.0,0.0,0.977732546952191,0.2633582438247012,2.087786327341186e-12,-0.22947552000000002,0.05583852,9.76913154,0.001601,-0.001351,0.003902,0.1554943581834474
1757070170.2265327,0.0,0.0,0.0,0.0,0.0,0.977732546952191,0.2633582438247012,1.9618769281927883e-12,-0.23486121000000001,0.05538726,9.78201207,0.002388,-0.000546,0.003038,0.15567465559612964
1757070170.2466183,0.0,0.0,0.0,0.0,0.0,0.977732546952191,0.2633582438247012,1.843334730273545e-12,-0.22782744000000002,0.05988024,9.78245352,0.002878,-0.001107,0.004511,0.15595135470881938
1757070170.2666333,0.0,0.0,0.0,0.0,0.0,0.977732546952191,0.2633582438247012,1.7317195762236943e-12,-0.21495672000000002,0.05883057,9.77781339,0.003748,0.001487,0.004933,0.15610344943059973
1757070170.2870307,0.0,0.0,0.0,0.0,0.0,0.977732546952191,0.2633582438247012,1.7317195762236943e-12,-0.21495672000000002,0.05883057,9.77781339,0.003748,0.001487,0.004933,0.15610344943059973
1757070170.3075013,0.0,0.0,0.0,0.0,0.0,0.977732546952191,0.2633582438247012,1.7317195762236943e-12,-0.21495672000000002,0.05883057,9.77781339,0.003748,0.001487,0.004933,0.15610344943059973
1757070170.3277311,0.0,0.0,0.0,0.0,0.0,0.977732546952191,0.2633582438247012,1.6125647102358861e-12,-0.2371077,0.05014872000000001,9.78679935,0.003124,0.00028,0.004047,0.15822311443287326
1757070170.3480558,0.0,0.0,0.0,0.0,0.0,0.977732546952191,0.2633582438247012,1.410746147213979e-12,-0.23440995,0.059428980000000006,9.78605379,0.002826,7.9e-05,0.003657,0.15751567576396147
1757070170.3686137,0.0,0.0,0.0,0.0,0.0,0.977732546952191,0.2633582438247012,1.2460901512822207e-12,-0.20881566000000001,0.045351630000000004,9.780962400000002,0.001925,-0.000871,0.003505,0.15545051212079256
1757070170.3887463,0.0,0.0,0.0,0.0,0.0,0.977732546952191,0.2633582438247012,1.1724569187884914e-12,-0.21929274,0.0520911,9.77273181,0.002939,-0.000627,0.005059,0.1561859316343223
1757070170.409356,0.0,0.0,0.0,0.0,0.0,0.977732546952191,0.2633582438247012,1.1025307871313725e-12,-0.21974400000000002,0.05852646,9.775419750000001,0.002886,-0.000492,0.006151,0.15671373393669305
1757070170.429864,0.0,0.0,0.0,0.0,0.0,0.977732546952191,0.2633582438247012,1.0368743631250839e-12,-0.21899844000000002,0.05194395,9.771829290000001,0.003464,0.000435,0.003654,0.15672964814721554
1757070170.4511504,0.0,0.0,0.0,0.0,0.0,0.977732546952191,0.2633582438247012,9.747580235219436e-13,-0.23232042000000003,0.05478885,9.77617512,0.003645,0.000187,0.003475,0.15694717516432427
1757070170.4723463,0.0,0.0,0.0,0.0,0.0,0.977732546952191,0.2633582438247012,9.162722381524512e-13,-0.21120930000000002,0.048049379999999996,9.78245352,0.003056,0.000698,0.003694,0.15699813041588329
1757070170.492688,0.0,0.0,0.0,0.0,0.0,0.977732546952191,0.2633582438247012,8.611466387868595e-13,-0.22273605000000002,0.04715667,9.77991273,0.00353,-0.000977,0.003677,0.15710346896828373
1757070170.5130432,0.0,0.0,0.0,0.0,0.0,0.977732546952191,0.2633582438247012,8.087889454530217e-13,-0.24009975,0.05703534,9.77302611,0.001709,-0.001244,0.003823,0.15736671341699013
1757070170.5336292,0.0,0.0,0.0,0.0,0.0,0.977732546952191,0.2633582438247012,7.600334224054827e-13,-0.21809592,0.04221243000000001,9.771829290000001,0.002764,-0.000142,0.004973,0.15713724173630186
1757070170.5542455,0.0,0.0,0.0,0.0,0.0,0.977732546952191,0.2633582438247012,7.140919035043044e-13,-0.21809592,0.04221243000000001,9.771829290000001,0.002764,-0.000142,0.004973,0.15734634574363152
1757070170.574409,0.0,0.0,0.0,0.0,0.0,0.977732546952191,0.2633582438247012,6.707391227727217e-13,-0.23007393000000004,0.05643693,9.79233219,0.002959,0.000603,0.00554,0.15751243697565098
1757070170.5955026,0.0,0.0,0.0,0.0,0.0,0.977732546952191,0.2633582438247012,6.707391227727217e-13,-0.23007393000000004,0.05643693,9.79233219,0.002959,0.000603,0.00554,0.15751243697565098
1757070170.6161573,0.0,0.0,0.0,0.0,0.0,0.977732546952191,0.2633582438247012,5.882464839125922e-13,-0.23366439,0.049697460000000006,9.78589683,0.004258,0.000603,0.003707,0.1591297578616499
1757070170.6390367,0.0,0.0,0.0,0.0,0.0,0.977732546952191,0.2633582438247012,5.196274831850231e-13,-0.21780162,0.05658408,9.78844743,0.004708,-0.001689,0.002214,0.15746926461173663
1757070170.6592066,0.0,0.0,0.0,0.0,0.0,0.977732546952191,0.2633582438247012,4.883236320390139e-13,-0.21704625,0.048049379999999996,9.77467419,0.003632,0.000274,0.004334,0.15781876922133292
1757070170.6800013,0.0,0.0,0.0,0.0,0.0,0.977732546952191,0.2633582438247012,4.588716437121777e-13,-0.2459367,0.05014872000000001,9.78574968,0.002219,0.000541,0.006474,0.15795536895591056
1757070170.7001634,0.0,0.0,0.0,0.0,0.0,0.977732546952191,0.2633582438247012,4.311281336942956e-13,-0.22139208000000002,0.06196977,9.787397760000001,0.002841,-0.000808,0.003854,0.15808839574089853
1757070170.7206802,0.0,0.0,0.0,0.0,0.0,0.977732546952191,0.2633582438247012,4.049984344059726e-13,-0.23650929,0.053140770000000004,9.77946147,0.003585,-0.001231,0.004834,0.15819752351163519
1757070170.741145,0.0,0.0,0.0,0.0,0.0,0.977732546952191,0.2633582438247012,3.8045409696690187e-13,-0.23186916000000002,0.049697460000000006,9.783503190000001,0.003009,0.000158,0.005315,0.15824699902737902
1757070170.7622087,0.0,0.0,0.0,0.0,0.0,0.977732546952191,0.2633582438247012,3.573660183747123e-13,-0.21584943000000004,0.049246200000000004,9.790988220000001,0.004952,0.001559,0.003651,0.15835430977438542
1757070170.783074,0.0,0.0,0.0,0.0,0.0,0.977732546952191,0.2633582438247012,3.356595594556645e-13,-0.22692492,0.08337519,9.760008240000001,0.009844,0.001438,0.009203,0.1584433854422722
1757070170.8033106,0.0,0.0,0.0,0.0,0.0,0.977732546952191,0.2633582438247012,3.152403374999415e-13,-0.26315325,-0.02649681,9.74473407,0.000699,0.000769,0.002676,0.15854905194071606
1757070170.8238277,0.0,0.0,0.0,0.0,0.0,0.977732546952191,0.2633582438247012,2.9595695397746166e-13,-0.19728891,0.05538726,9.7784118,-0.000415,0.000123,0.005586,0.15873305458359552
1757070170.8441691,0.0,0.0,0.0,0.0,0.0,0.977732546952191,0.2633582438247012,2.779443675120678e-13,-0.2137599,0.10612458,9.80222067,0.005506,0.000791,0.002214,0.15864349125497554
1757070170.8649035,0.0,0.0,0.0,0.0,0.0,0.977732546952191,0.2633582438247012,2.6097941504015007e-13,-0.23456691000000002,0.00748503,9.77601816,0.003189,-0.002264,0.003592,0.15883469736476089
1757070170.8852086,0.0,0.0,0.0,0.0,0.0,0.977732546952191,0.2633582438247012,2.6097941504015007e-13,-0.23456691000000002,0.00748503,9.77601816,0.003189,-0.002264,0.003592,0.15883469736476089
1757070170.9071524,0.0,0.0,0.0,0.0,0.0,0.977732546952191,0.2633582438247012,2.439697946739759e-13,-0.21555513,0.09265545000000001,9.78620094,0.004752,0.001047,0.003117,0.16185384583807205
1757070170.9276617,0.0,0.0,0.0,0.0,0.0,0.977732546952191,0.2633582438247012,2.1482796927627112e-13,-0.22902426,0.040711500000000005,9.77797035,0.003308,-0.000572,0.006097,0.158232945354284
1757070170.9482932,0.0,0.0,0.0,0.0,0.0,0.977732546952191,0.2633582438247012,2.0185977923192577e-13,-0.23815737,0.020355750000000002,9.76688505,0.001562,-0.001471,0.004341,0.1588221753399029
1757070170.9686017,0.0,0.0,0.0,0.0,0.0,0.977732546952191,0.2633582438247012,1.8960297938791022e-13,-0.25581537,0.07380063,9.79488279,0.005742,0.001912,0.001667,0.15925462466884638
1757070170.9896035,0.0,0.0,0.0,0.0,0.0,0.977732546952191,0.2633582438247012,1.780815189481387e-13,-0.20597076000000003,0.051198389999999996,9.7954812,0.003409,0.001201,0.003862,0.15935464698504637
1757070171.0106544,0.0,0.0,0.0,0.0,0.0,0.977732546952191,0.2633582438247012,1.6729169587691236e-13,-0.21555513,0.04491018,9.77407578,0.00242,-0.001539,0.003654,0.1593698213938481
1757070171.0308166,0.0,0.0,0.0,0.0,0.0,0.977732546952191,0.2633582438247012,1.5713368783836384e-13,-0.23980545000000003,0.057633750000000004,9.783503190000001,0.003934,8.2e-05,0.003953,0.1595367728118777
1757070171.0508642,0.0,0.0,0.0,0.0,0.0,0.977732546952191,0.2633582438247012,1.4758068286236805e-13,-0.23336028,0.05598567000000001,9.78485697,0.004343,-3.8e-05,0.002801,0.1596364364129537
1757070171.0710905,0.0,0.0,0.0,0.0,0.0,0.977732546952191,0.2633582438247012,1.3857190913142025e-13,-0.23007393000000004,0.0520911,9.77721498,0.003612,6.2e-05,0.005382,0.1597937256831882
1757070171.0913303,0.0,0.0,0.0,0.0,0.0,0.977732546952191,0.2633582438247012,1.3013409503819195e-13,-0.22213764000000003,0.04939335000000001,9.78290478,0.003174,-0.000733,0.005069,0.15977802353952417
1757070171.1123128,0.0,0.0,0.0,0.0,0.0,0.977732546952191,0.2633582438247012,1.2220799958301494e-13,-0.21943989,0.04999176,9.79443153,0.003609,0.00241,0.005461,0.1598882606394135
1757070171.132587,0.0,0.0,0.0,0.0,0.0,0.977732546952191,0.2633582438247012,1.1476270388317177e-13,-0.22363857000000004,0.058977720000000004,9.78305193,0.002912,-0.000321,0.003812,0.15998528756185523
1757070171.1542587,0.0,0.0,0.0,0.0,0.0,0.977732546952191,0.2633582438247012,1.0774420455420328e-13,-0.23531247000000002,0.04984461,9.79398027,0.003374,0.000305,0.003768,0.164009305150004
1757070171.1745584,0.0,0.0,0.0,0.0,0.0,0.977732546952191,0.2633582438247012,1.0117705761956624e-13,-0.23531247000000002,0.04984461,9.79398027,0.003374,0.000305,0.003768,0.16012780515009073
1757070171.195314,0.0,0.0,0.0,0.0,0.0,0.977732546952191,0.2633582438247012,1.0117705761956624e-13,-0.21525102000000002,0.0489519,9.78201207,0.002398,-0.001705,0.004067,0.16854097525488204
1757070171.2188017,0.0,0.0,0.0,0.0,0.0,0.977732546952191,0.2633582438247012,8.33746761199037e-14,-0.22887711000000002,0.052395210000000005,9.78814332,0.003431,-0.000513,0.004208,0.1597163573475206
1757070171.239219,0.0,0.0,0.0,0.0,0.0,0.977732546952191,0.2633582438247012,7.831554063944735e-14,-0.22199049,0.04864779,9.78634809,0.002836,-0.002021,0.006026,0.1603722968747937
1757070171.2594712,0.0,0.0,0.0,0.0,0.0,0.977732546952191,0.2633582438247012,7.831554063944735e-14,-0.24713352,0.06481467,9.77347737,0.003739,-0.000295,0.0049,0.1653976594172028
1757070171.2796478,0.0,0.0,0.0,0.0,0.0,0.977732546952191,0.2633582438247012,6.904337396067581e-14,-0.22139208000000002,0.053739180000000004,9.78904584,0.003002,0.000954,0.004369,0.16048460234876516
1757070171.3000634,0.0,0.0,0.0,0.0,0.0,0.977732546952191,0.2633582438247012,6.48489884919764e-14,-0.21989115,0.04909905,9.763147440000001,0.003265,-0.000312,0.00418,0.16078459015857455
1757070171.3208425,0.0,0.0,0.0,0.0,0.0,0.977732546952191,0.2633582438247012,6.091027861778591e-14,-0.24384717000000003,0.04850064,9.77692068,0.004154,0.000962,0.003481,0.16088280068159533
1757070171.3417757,0.0,0.0,0.0,0.0,0.0,0.977732546952191,0.2633582438247012,5.718497678465672e-14,-0.21570228000000002,0.04715667,9.79173378,0.002317,-0.000343,0.005706,0.1611269299931195
1757070171.3622181,0.0,0.0,0.0,0.0,0.0,0.977732546952191,0.2633582438247012,5.370512605817302e-14,-0.22423698,0.03712104,9.79517709,0.003138,-0.001282,0.003894,0.1610309510802397
1757070171.3831496,0.0,0.0,0.0,0.0,0.0,0.977732546952191,0.2633582438247012,5.042616009433717e-14,-0.2456424,0.04864779,9.77108373,0.003122,0.000119,0.005209,0.16123087925768068
1757070171.4033527,0.0,0.0,0.0,0.0,0.0,0.977732546952191,0.2633582438247012,4.7342255877712715e-14,-0.21570228000000002,0.05074713,9.77946147,0.002722,-0.001193,0.003749,0.16133015313641766
1757070171.4239497,0.0,0.0,0.0,0.0,0.0,0.977732546952191,0.2633582438247012,4.4452494158081574e-14,-0.21316148999999998,0.053592030000000006,9.78500412,0.001429,-0.001095,0.003841,0.16135331251252938
1757070171.444338,0.0,0.0,0.0,0.0,0.0,0.977732546952191,0.2633582438247012,4.174255876561054e-14,-0.23440995,0.055083150000000004,9.76764042,0.002843,0.000593,0.002207,0.16143227560215498
1757070171.4650364,0.0,0.0,0.0,0.0,0.0,0.977732546952191,0.2633582438247012,3.919591470599476e-14,-0.22108797000000002,0.04295799,9.7869465,0.002831,-0.000252,0.005074,0.1615592465500315
1757070171.4853857,0.0,0.0,0.0,0.0,0.0,0.977732546952191,0.2633582438247012,3.919591470599476e-14,-0.22108797000000002,0.04295799,9.7869465,0.002831,-0.000252,0.005074,0.1615592465500315
1757070171.5062692,0.0,0.0,0.0,0.0,0.0,0.977732546952191,0.2633582438247012,3.663285483870205e-14,-0.22992678000000003,0.05283666000000001,9.76809168,0.003739,0.001357,0.002823,0.1629046972149386
1757070171.5272186,0.0,0.0,0.0,0.0,0.0,0.977732546952191,0.2633582438247012,3.224422891233803e-14,-0.21989115,0.045204480000000005,9.78261048,0.001914,-0.000271,0.005021,0.16099005983879772
1757070171.5477376,0.0,0.0,0.0,0.0,0.0,0.977732546952191,0.2633582438247012,3.029996755509794e-14,-0.21615354000000003,0.040711500000000005,9.77632227,0.00217,-0.001161,0.005238,0.16150471632270036
1757070171.5680397,0.0,0.0,0.0,0.0,0.0,0.977732546952191,0.2633582438247012,3.029996755509794e-14,-0.22228479,0.05837931,9.79488279,0.003117,-0.000855,0.003283,0.16852051225489734
1757070171.5887206,0.0,0.0,0.0,0.0,0.0,0.977732546952191,0.2633582438247012,2.6668786485378588e-14,-0.21479976,0.0464013,9.78110955,0.003018,0.000414,0.004488,0.16164149226057484
1757070171.6096776,0.0,0.0,0.0,0.0,0.0,0.977732546952191,0.2633582438247012,2.5057332764098722e-14,-0.21390705000000002,0.05747679,9.78156081,0.001854,-0.00095,0.003816,0.16193731055739205
1757070171.6306884,0.0,0.0,0.0,0.0,0.0,0.977732546952191,0.2633582438247012,2.354070925376517e-14,-0.23755896,0.05134554,9.77781339,0.004255,0.000591,0.005745,0.16223322642439425
1757070171.6509926,0.0,0.0,0.0,0.0,0.0,0.977732546952191,0.2633582438247012,2.210911245316113e-14,-0.21390705000000002,0.05643693,9.799071660000001,0.003671,-0.000648,0.002434,0.16245461568683367
1757070171.6709938,0.0,0.0,0.0,0.0,0.0,0.977732546952191,0.2633582438247012,2.0766365681221785e-14,-0.22184334,0.04819653,9.77467419,0.004585,0.000901,0.004452,0.16247073701907017
1757070171.6918366,0.0,0.0,0.0,0.0,0.0,0.977732546952191,0.2633582438247012,1.949824098263657e-14,-0.23755896,0.05718249,9.78230637,0.002828,0.00033,0.003295,0.16268090897784726
1757070171.711919,0.0,0.0,0.0,0.0,0.0,0.977732546952191,0.2633582438247012,1.8307899359423872e-14,-0.20971818000000003,0.048353490000000006,9.79353882,0.002263,-0.000325,0.003208,0.16270449548754887
1757070171.7325835,0.0,0.0,0.0,0.0,0.0,0.977732546952191,0.2633582438247012,1.7197288942017888e-14,-0.22887711000000002,0.0580752,9.791439480000001,0.003688,-0.000314,0.006996,0.16264319228259166
1757070171.7580323,0.0,0.0,0.0,0.0,0.0,0.977732546952191,0.2633582438247012,1.6151981514879967e-14,-0.2200383,0.040711500000000005,9.787849020000001,0.00295,-0.001571,0.004156,0.16687325253659754
1757070171.774205,0.0,0.0,0.0,0.0,0.0,0.977732546952191,0.2633582438247012,1.517046461983821e-14,-0.2200383,0.040711500000000005,9.787849020000001,0.00295,-0.001571,0.004156,0.16293247868369357
1757070171.794761,0.0,0.0,0.0,0.0,0.0,0.977732546952191,0.2633582438247012,1.517046461983821e-14,-0.2200383,0.040711500000000005,9.787849020000001,0.00295,-0.001571,0.004156,0.16293247868369357
1757070171.8163285,0.0,0.0,0.0,0.0,0.0,0.977732546952191,0.2633582438247012,1.3291145420312283e-14,-0.2200383,0.04699971,9.77721498,0.003691,-0.000497,0.004339,0.16467484135176977
1757070171.837888,0.0,0.0,0.0,0.0,0.0,0.977732546952191,0.2633582438247012,1.1734040640817242e-14,-0.22708187999999999,0.04999176,9.7784118,0.003442,0.000145,0.003806,0.16291519258210269
1757070171.8592966,0.0,0.0,0.0,0.0,0.0,0.977732546952191,0.2633582438247012,1.10233131798551e-14,-0.23007393000000004,0.05478885,9.77003406,0.003124,-0.000648,0.003385,0.16339237860296454
1757070171.8793664,0.0,0.0,0.0,0.0,0.0,0.977732546952191,0.2633582438247012,1.0357426383213515e-14,-0.21255327,0.05194395,9.80057259,0.003352,-0.000497,0.004351,0.16343049798031792
1757070171.9001822,0.0,0.0,0.0,0.0,0.0,0.977732546952191,0.2633582438247012,9.729525667198193e-15,-0.22842585,0.05852646,9.76883724,0.001331,-0.000303,0.004147,0.16363128174810498
1757070171.920213,0.0,0.0,0.0,0.0,0.0,0.977732546952191,0.2633582438247012,9.139825453730308e-15,-0.23665644,0.05463189,9.78605379,0.003143,-0.000542,0.005154,0.16368570162064844
1757070171.9409187,0.0,0.0,0.0,0.0,0.0,0.977732546952191,0.2633582438247012,8.58381191839708e-15,-0.20537235,0.04759812000000001,9.78634809,0.003143,-0.000542,0.005154,0.16384969886552037
1757070171.9610121,0.0,0.0,0.0,0.0,0.0,0.977732546952191,0.2633582438247012,8.062533064428855e-15,-0.22768029,0.047902230000000004,9.76613949,0.003465,0.000576,0.003407,0.1638593849637472
1757070171.9821017,0.0,0.0,0.0,0.0,0.0,0.977732546952191,0.2633582438247012,7.56650497890284e-15,-0.24174783000000002,0.05029587,9.77617512,0.004402,0.000863,0.005048,0.16423027313798857
1757070172.0044518,0.0,0.0,0.0,0.0,0.0,0.977732546952191,0.2633582438247012,7.098394013318651e-15,-0.22153923,0.038023560000000005,9.77871591,0.003567,0.000897,0.005288,0.16429645000883408
1757070172.0246825,0.0,0.0,0.0,0.0,0.0,0.977732546952191,0.2633582438247012,6.666201367662757e-15,-0.2225889,0.04475322,9.771378030000001,0.004933,0.000166,0.004519,0.1639320667730513
1757070172.04548,0.0,0.0,0.0,0.0,0.0,0.977732546952191,0.2633582438247012,6.261236658987019e-15,-0.24234624000000002,0.05673123,9.7866522,0.005271,0.000201,0.002373,0.16414085725361555
1757070172.0662673,0.0,0.0,0.0,0.0,0.0,0.977732546952191,0.2633582438247012,5.873706096900177e-15,-0.20731473,0.044007660000000004,9.780511140000002,0.003698,0.000294,0.003849,0.16469598887973258
1757070172.0865672,0.0,0.0,0.0,0.0,0.0,0.977732546952191,0.2633582438247012,5.873706096900177e-15,-0.20731473,0.044007660000000004,9.780511140000002,0.003698,0.000294,0.003849,0.16469598887973258
1757070172.110355,0.0,0.0,0.0,0.0,0.0,0.977732546952191,0.2633582438247012,5.149471496382499e-15,-0.23576373,0.05747679,9.783208890000001,0.002757,0.00017,0.00477,0.16418640231741943
1757070172.131212,0.0,0.0,0.0,0.0,0.0,0.977732546952191,0.2633582438247012,4.838549208497631e-15,-0.22976981999999999,0.04281084,9.784101600000001,0.004369,-0.000421,0.005598,0.16379487126521242
1757070172.1516743,0.0,0.0,0.0,0.0,0.0,0.977732546952191,0.2633582438247012,4.5400413734362245e-15,-0.23096664,0.040711500000000005,9.7692885,0.003009,-0.001556,0.003583,0.16493118863779405
1757070172.1719482,0.0,0.0,0.0,0.0,0.0,0.977732546952191,0.2633582438247012,4.26323250435766e-15,-0.23411565,0.054484740000000004,9.78814332,0.004373,0.000312,0.00334,0.16468161996722477
1757070172.1925354,0.0,0.0,0.0,0.0,0.0,0.977732546952191,0.2633582438247012,4.006081472063983e-15,-0.21285737999999998,0.0580752,9.79338186,0.003939,0.000331,0.00521,0.164649491376622
1757070172.2130904,0.0,0.0,0.0,0.0,0.0,0.977732546952191,0.2633582438247012,3.761748771980297e-15,-0.2282787,0.0520911,9.77826465,0.002561,-0.000376,0.003203,0.16514563356607925
1757070172.2342534,0.0,0.0,0.0,0.0,0.0,0.977732546952191,0.2633582438247012,3.53385057068603e-15,-0.22677777,0.051041430000000006,9.787849020000001,0.0024,-0.000867,0.004384,0.16899915690097178
1757070172.2557511,0.0,0.0,0.0,0.0,0.0,0.977732546952191,0.2633582438247012,3.319845807197561e-15,-0.2282787,0.0663156,9.77617512,0.0024,-0.000867,0.004384,0.16957129123561332
1757070172.2784164,0.0,0.0,0.0,0.0,0.0,0.977732546952191,0.2633582438247012,2.9285068007822803e-15,-0.2311236,0.058977720000000004,9.763147440000001,0.003672,-0.000844,0.004318,0.16533507142809353
1757070172.299621,0.0,0.0,0.0,0.0,0.0,0.977732546952191,0.2633582438247012,2.7501214755319663e-15,-0.23127075,0.04355640000000001,9.783503190000001,0.004223,-0.000349,0.004906,0.1655443616831498
1757070172.3197427,0.0,0.0,0.0,0.0,0.0,0.977732546952191,0.2633582438247012,2.5833283237627032e-15,-0.24414147,0.04955031,9.77617512,0.003773,-0.001062,0.004172,0.16550404923227818
1757070172.3406935,0.0,0.0,0.0,0.0,0.0,0.977732546952191,0.2633582438247012,2.4265127260425045e-15,-0.22438413000000001,0.03322647,9.77960862,0.001931,-0.0001,0.002968,0.16565585903389105
1757070172.3610232,0.0,0.0,0.0,0.0,0.0,0.977732546952191,0.2633582438247012,2.4265127260425045e-15,-0.22438413000000001,0.03322647,9.77960862,0.001931,-0.0001,0.002968,0.16565585903389105
1757070172.381301,0.0,0.0,0.0,0.0,0.0,0.977732546952191,0.2633582438247012,2.4265127260425045e-15,-0.22438413000000001,0.03322647,9.77960862,0.001931,-0.0001,0.002968,0.16565585903389105
1757070172.4015603,0.0,0.0,0.0,0.0,0.0,0.977732546952191,0.2633582438247012,2.4265127260425045e-15,-0.22438413000000001,0.03322647,9.77960862,0.001931,-0.0001,0.002968,0.16565585903389105
1757070172.423146,0.0,0.0,0.0,0.0,0.0,0.977732546952191,0.2633582438247012,2.102776228465068e-15,-0.23605803000000003,0.06496182,9.79697232,0.002618,-0.000525,0.002479,0.16604976798431442
1757070172.4435847,0.0,0.0,0.0,0.0,0.0,0.977732546952191,0.2633582438247012,1.8437598499038618e-15,-0.23605803000000003,0.058232160000000005,9.78261048,0.000912,-0.000488,0.004917,0.16519733310121557
1757070172.4635985,0.0,0.0,0.0,0.0,0.0,0.977732546952191,0.2633582438247012,1.6309123849044055e-15,-0.22199049,0.05972328,9.7983261,0.001784,-0.000668,0.004641,0.1651998706122182
1757070172.484228,0.0,0.0,0.0,0.0,0.0,0.977732546952191,0.2633582438247012,1.5351983780908616e-15,-0.22213764000000003,0.05044302,9.78515127,0.003602,-0.000869,0.004414,0.16594265868809882
1757070172.504426,0.0,0.0,0.0,0.0,0.0,0.977732546952191,0.2633582438247012,1.4442836305000033e-15,-0.22768029,0.051041430000000006,9.784101600000001,0.003467,-0.00067,0.003389,0.16641993081913045
1757070172.5247264,0.0,0.0,0.0,0.0,0.0,0.977732546952191,0.2633582438247012,1.3586380737676445e-15,-0.21659499000000002,0.0489519,9.78290478,0.004668,0.001524,0.003768,0.1664902344968835
1757070172.5451727,0.0,0.0,0.0,0.0,0.0,0.977732546952191,0.2633582438247012,1.2779064184404882e-15,-0.22393287,0.03891627,9.784248750000001,0.00341,0.000325,0.005697,0.16659275267447785
1757070172.5658252,0.0,0.0,0.0,0.0,0.0,0.977732546952191,0.2633582438247012,1.2015347378262133e-15,-0.237402,0.04505733,9.76898439,0.001852,0.000926,0.003384,0.1667704050390037
1757070172.5861695,0.0,0.0,0.0,0.0,0.0,0.977732546952191,0.2633582438247012,1.1289980451878047e-15,-0.23276187000000004,0.05403348,9.78844743,0.003219,-0.000539,0.003704,0.16699505703672304
1757070172.6065412,0.0,0.0,0.0,0.0,0.0,0.977732546952191,0.2633582438247012,1.0612682133098749e-15,-0.21840003000000002,0.057633750000000004,9.76464837,0.002956,-0.000934,0.004315,0.1668154683481346
1757070172.6270108,0.0,0.0,0.0,0.0,0.0,0.977732546952191,0.2633582438247012,9.971511666624335e-16,-0.23127075,0.05134554,9.77302611,0.00298,-0.000722,0.00445,0.16709118380460125
1757070172.6488094,0.0,0.0,0.0,0.0,0.0,0.977732546952191,0.2633582438247012,9.971511666624335e-16,-0.22872015,0.046705409999999996,9.78874173,0.003249,-0.000593,0.003742,0.17398094938258205
1757070172.6697955,0.0,0.0,0.0,0.0,0.0,0.977732546952191,0.2633582438247012,8.775952537186605e-16,-0.22378572,0.06960195,9.77632227,0.002956,-1.1e-05,0.004384,0.16679835990988573
1757070172.6901152,0.0,0.0,0.0,0.0,0.0,0.977732546952191,0.2633582438247012,8.775952537186605e-16,-0.22378572,0.06960195,9.77632227,0.002956,-1.1e-05,0.004384,0.16679835990988573
1757070172.7103965,0.0,0.0,0.0,0.0,0.0,0.977732546952191,0.2633582438247012,7.709942571578241e-16,-0.22812174000000002,0.05343507,9.77797035,0.003678,0.000496,0.00225,0.16698115151670243
1757070172.7311916,0.0,0.0,0.0,0.0,0.0,0.977732546952191,0.2633582438247012,7.248968753242837e-16,-0.22408002000000002,0.04984461,9.7954812,0.002777,-0.001921,0.004879,0.16671083007947385
1757070172.7517438,0.0,0.0,0.0,0.0,0.0,0.977732546952191,0.2633582438247012,6.812300967435547e-16,-0.24160068,0.04475322,9.78290478,0.003308,-7.9e-05,0.004225,0.16746907603309494
1757070172.7726576,0.0,0.0,0.0,0.0,0.0,0.977732546952191,0.2633582438247012,6.399603407908953e-16,-0.23067234,0.05852646,9.78589683,0.002853,0.000253,0.003767,0.16774307516732764
1757070172.793833,0.0,0.0,0.0,0.0,0.0,0.977732546952191,0.2633582438247012,6.007794554622037e-16,-0.23096664,0.06196977,9.75731049,0.002319,-0.00081,0.003773,0.17086675344972663
1757070172.8138921,0.0,0.0,0.0,0.0,0.0,0.977732546952191,0.2633582438247012,5.646389410269006e-16,-0.22048956,0.04340925,9.77437008,0.001255,-0.000688,0.003358,0.17169509610396538
1757070172.8343394,0.0,0.0,0.0,0.0,0.0,0.977732546952191,0.2633582438247012,5.305935794160182e-16,-0.22048956,0.04340925,9.77437008,0.001255,-0.000688,0.003358,0.1678955906648899
1757070172.8547566,0.0,0.0,0.0,0.0,0.0,0.977732546952191,0.2633582438247012,4.971139751398125e-16,-0.21704625,0.05149269000000001,9.78275763,0.002891,-0.000719,0.003446,0.16888621533210627
1757070172.8769755,0.0,0.0,0.0,0.0,0.0,0.977732546952191,0.2633582438247012,4.387533834331549e-16,-0.22498254,0.06392196,9.787093650000001,0.004957,-0.000204,0.004294,0.1677711512578881
1757070172.8980467,0.0,0.0,0.0,0.0,0.0,0.977732546952191,0.2633582438247012,4.122724519669911e-16,-0.22199049,0.04685256,9.775419750000001,0.002481,6.4e-05,0.004354,0.16827995256794787
1757070172.918129,0.0,0.0,0.0,0.0,0.0,0.977732546952191,0.2633582438247012,3.8741659776968464e-16,-0.23201631,0.053592030000000006,9.77437008,0.002462,-0.001493,0.003286,0.16837349065816612
1757070172.9390686,0.0,0.0,0.0,0.0,0.0,0.977732546952191,0.2633582438247012,3.6396192710774074e-16,-0.22962267000000003,0.0606258,9.79069392,0.002462,-0.001493,0.003286,0.16857449034321478
1757070172.959967,0.0,0.0,0.0,0.0,0.0,0.977732546952191,0.2633582438247012,3.418894784339301e-16,-0.21615354000000003,0.04984461,9.77871591,0.003517,-0.000918,0.003349,0.1686613832840892
1757070172.9803681,0.0,0.0,0.0,0.0,0.0,0.977732546952191,0.2633582438247012,3.418894784339301e-16,-0.21615354000000003,0.04984461,9.77871591,0.003517,-0.000918,0.003349,0.1686613832840892
1757070173.0008538,0.0,0.0,0.0,0.0,0.0,0.977732546952191,0.2633582438247012,3.199166060340583e-16,-0.22273605000000002,0.05089428,9.7781175,0.002734,0.000492,0.005212,0.16979851202695811
1757070173.0215747,0.0,0.0,0.0,0.0,0.0,0.977732546952191,0.2633582438247012,2.8198868443658855e-16,-0.23036823,0.05972328,9.78156081,0.003589,-0.000651,0.002973,0.16827830559105939
1757070173.0425508,0.0,0.0,0.0,0.0,0.0,0.977732546952191,0.2633582438247012,2.649975350881288e-16,-0.22842585,0.05343507,9.780511140000002,0.002678,0.000975,0.003937,0.1687556956531049
1757070173.0630722,0.0,0.0,0.0,0.0,0.0,0.977732546952191,0.2633582438247012,2.4887380475981044e-16,-0.21869433000000002,0.034276140000000004,9.779314320000001,0.004089,-0.000315,0.003394,0.16921201794968965
1757070173.083921,0.0,0.0,0.0,0.0,0.0,0.977732546952191,0.2633582438247012,2.338244969885538e-16,-0.22483539,0.053886329999999996,9.78993855,0.002853,0.000485,0.003324,0.16910305738232662
1757070173.1044261,0.0,0.0,0.0,0.0,0.0,0.977732546952191,0.2633582438247012,2.1959519304929988e-16,-0.21435831,0.04984461,9.78844743,0.001621,-0.000497,0.004365,0.16938559069283313
1757070173.1249256,0.0,0.0,0.0,0.0,0.0,0.977732546952191,0.2633582438247012,2.062912737687538e-16,-0.21211182,0.0489519,9.78455286,0.002561,-7.7e-05,0.003695,0.1693247907672087
1757070173.14496,0.0,0.0,0.0,0.0,0.0,0.977732546952191,0.2633582438247012,1.9377067641199815e-16,-0.23201631,0.05703534,9.7724277,0.00356,-0.000593,0.003438,0.1694933835817363
1757070173.1653845,0.0,0.0,0.0,0.0,0.0,0.977732546952191,0.2633582438247012,1.8197882724150038e-16,-0.23201631,0.05598567000000001,9.7812567,0.002259,0.000423,0.004961,0.16963290917509236
1757070173.186331,0.0,0.0,0.0,0.0,0.0,0.977732546952191,0.2633582438247012,1.7076631296843358e-16,-0.21450546,0.04415481,9.787397760000001,0.001835,0.000299,0.004244,0.1699512090379341
1757070173.207111,0.0,0.0,0.0,0.0,0.0,0.977732546952191,0.2633582438247012,1.6035713358049332e-16,-0.22752333,0.060321690000000004,9.787544910000001,0.004503,-0.000469,0.003569,0.1696637871772067
1757070173.2271197,0.0,0.0,0.0,0.0,0.0,0.977732546952191,0.2633582438247012,1.506026755657105e-16,-0.23636214000000003,0.04505733,9.77737194,0.002674,0.00043,0.004397,0.16979949197289343
1757070173.2474272,0.0,0.0,0.0,0.0,0.0,0.977732546952191,0.2633582438247012,1.414265522591982e-16,-0.21720321,0.05194395,9.79009551,0.004565,0.000751,0.004663,0.16997905831141874
1757070173.2681243,0.0,0.0,0.0,0.0,0.0,0.977732546952191,0.2633582438247012,1.3275892128088828e-16,-0.24040386000000002,0.04999176,9.77108373,0.004565,0.000751,0.004663,0.1701931483509339
1757070173.2884638,0.0,0.0,0.0,0.0,0.0,0.977732546952191,0.2633582438247012,1.3275892128088828e-16,-0.24040386000000002,0.04999176,9.77108373,0.004565,0.000751,0.004663,0.1701931483509339
1757070173.3095255,0.0,0.0,0.0,0.0,0.0,0.977732546952191,0.2633582438247012,1.1640157999315379e-16,-0.22363857000000004,0.05643693,9.78110955,0.00384,-1.4e-05,0.002945,0.16992243042872898
1757070173.3304248,0.0,0.0,0.0,0.0,0.0,0.977732546952191,0.2633582438247012,1.0936570340082624e-16,-0.2342628,0.05149269000000001,9.76464837,0.004269,-0.000231,0.003328,0.16956565037897095
1757070173.3515334,0.0,0.0,0.0,0.0,0.0,0.977732546952191,0.2633582438247012,1.027453158867916e-16,-0.22363857000000004,0.04565574000000001,9.77377167,0.003073,2.8e-05,0.005134,0.17022897907291146
1757070173.372365,0.0,0.0,0.0,0.0,0.0,0.977732546952191,0.2633582438247012,9.650818474347381e-17,-0.22737618,0.06017454,9.77467419,0.002515,-0.001019,0.002917,0.17052851399205185
1757070173.3946419,0.0,0.0,0.0,0.0,0.0,0.977732546952191,0.2633582438247012,9.058549596907691e-17,-0.22512969000000002,0.040711500000000005,9.771829290000001,0.003724,0.001239,0.004138,0.17435748769302406
1757070173.4183457,0.0,0.0,0.0,0.0,0.0,0.977732546952191,0.2633582438247012,7.99031820063865e-17,-0.21300453,0.04415481,9.78529842,0.003654,0.00047,0.002674,0.170792853951862
1757070173.4386284,0.0,0.0,0.0,0.0,0.0,0.977732546952191,0.2633582438247012,7.505528623607815e-17,-0.23560677000000002,0.06047865000000001,9.79024266,0.002898,-0.000834,0.002944,0.17087325514752552
1757070173.4602673,0.0,0.0,0.0,0.0,0.0,0.977732546952191,0.2633582438247012,7.045889814848984e-17,-0.22722903,0.04221243000000001,9.77781339,0.002907,-0.000855,0.003604,0.17119566677764225
1757070173.480501,0.0,0.0,0.0,0.0,0.0,0.977732546952191,0.2633582438247012,6.617964036339966e-17,-0.22363857000000004,0.04460607,9.77108373,0.002482,0.000427,0.004171,0.17101246418129323
1757070173.5012085,0.0,0.0,0.0,0.0,0.0,0.977732546952191,0.2633582438247012,6.213592091805243e-17,-0.23336028,0.05837931,9.784405710000001,0.002611,-0.000593,0.003995,0.17130761594798508
1757070173.5215368,0.0,0.0,0.0,0.0,0.0,0.977732546952191,0.2633582438247012,5.835735351554919e-17,-0.22527684,0.04759812000000001,9.77302611,0.003792,-0.00251,0.004935,0.171249369217957
1757070173.5417151,0.0,0.0,0.0,0.0,0.0,0.977732546952191,0.2633582438247012,5.4805020411035815e-17,-0.22588506000000003,0.04281084,9.78649524,0.002613,0.001255,0.005055,0.1714079931162935
1757070173.5617363,0.0,0.0,0.0,0.0,0.0,0.977732546952191,0.2633582438247012,5.146494486132712e-17,-0.22572810000000001,0.06017454,9.783807300000001,0.002341,-2e-06,0.004193,0.17152890133639137
1757070173.5821497,0.0,0.0,0.0,0.0,0.0,0.977732546952191,0.2633582438247012,5.146494486132712e-17,-0.22572810000000001,0.06017454,9.783807300000001,0.002341,-2e-06,0.004193,0.17152890133639137
1757070173.6039782,0.0,0.0,0.0,0.0,0.0,0.977732546952191,0.2633582438247012,5.146494486132712e-17,-0.21854718,0.05403348,9.787996170000001,0.003585,0.000639,0.004646,0.18195211255878063
1757070173.624253,0.0,0.0,0.0,0.0,0.0,0.977732546952191,0.2633582438247012,4.498533497110588e-17,-0.22543380000000002,0.04340925,9.78634809,0.003245,0.000478,0.003099,0.1715508322932378
1757070173.6446252,0.0,0.0,0.0,0.0,0.0,0.977732546952191,0.2633582438247012,4.498533497110588e-17,-0.22543380000000002,0.04340925,9.78634809,0.003245,0.000478,0.003099,0.1715508322932378
1757070173.6649714,0.0,0.0,0.0,0.0,0.0,0.977732546952191,0.2633582438247012,4.498533497110588e-17,-0.22543380000000002,0.04340925,9.78634809,0.003245,0.000478,0.003099,0.1715508322932378
1757070173.6852384,0.0,0.0,0.0,0.0,0.0,0.977732546952191,0.2633582438247012,4.498533497110588e-17,-0.22543380000000002,0.04340925,9.78634809,0.003245,0.000478,0.003099,0.1715508322932378
1757070173.7060747,0.0,0.0,0.0,0.0,0.0,0.977732546952191,0.2633582438247012,3.880095788584765e-17,-0.22184334,0.053592030000000006,9.77302611,0.003442,-0.00155,0.004182,0.17417431416526855
1757070173.7280731,0.0,0.0,0.0,0.0,0.0,0.977732546952191,0.2633582438247012,3.179419433945285e-17,-0.22558095000000003,0.055230299999999996,9.780658290000002,0.002922,-0.000428,0.004871,0.1712551707782658
1757070173.7489424,0.0,0.0,0.0,0.0,0.0,0.977732546952191,0.2633582438247012,2.814909198715951e-17,-0.24324876,0.051198389999999996,9.77856876,0.003019,0.00163,0.004286,0.171319693591942
1757070173.7694244,0.0,0.0,0.0,0.0,0.0,0.977732546952191,0.2633582438247012,2.6525974547670125e-17,-0.21914559000000003,0.0489519,9.7784118,0.001793,0.000187,0.003459,0.17185542098186163
1757070173.7901795,0.0,0.0,0.0,0.0,0.0,0.977732546952191,0.2633582438247012,2.498702788520139e-17,-0.22962267000000003,0.05643693,9.77781339,0.003702,-3.4e-05,0.003917,0.17240386381322156
1757070173.8102856,0.0,0.0,0.0,0.0,0.0,0.977732546952191,0.2633582438247012,2.3531298811673273e-17,-0.23665644,0.04491018,9.77766624,0.002727,-0.000933,0.003221,0.17260862805132468
1757070173.8305852,0.0,0.0,0.0,0.0,0.0,0.977732546952191,0.2633582438247012,2.2166915674636477e-17,-0.21479976,0.05598567000000001,9.7812567,0.000766,-0.00145,0.00482,0.17255149001234724
1757070173.8511996,0.0,0.0,0.0,0.0,0.0,0.977732546952191,0.2633582438247012,2.086939701381873e-17,-0.23576373,0.05134554,9.78934014,0.002588,-0.002199,0.004961,0.17288133760474445
1757070173.8715503,0.0,0.0,0.0,0.0,0.0,0.977732546952191,0.2633582438247012,1.963134578116638e-17,-0.23067234,0.0378666,9.7784118,0.003396,0.000564,0.003515,0.17314944958840647
1757070173.8919177,0.0,0.0,0.0,0.0,0.0,0.977732546952191,0.2633582438247012,1.963134578116638e-17,-0.23067234,0.0378666,9.7784118,0.003396,0.000564,0.003515,0.17314944958840647
1757070173.9121146,0.0,0.0,0.0,0.0,0.0,0.977732546952191,0.2633582438247012,1.7267150196882737e-17,-0.24234624000000002,0.05478885,9.77333022,0.002989,-0.000807,0.005095,0.17286637377019143
1757070173.9323785,0.0,0.0,0.0,0.0,0.0,0.977732546952191,0.2633582438247012,1.624574045297448e-17,-0.21135645000000003,0.048049379999999996,9.78649524,0.004536,-0.000694,0.00329,0.17589542231758865
1757070173.9525049,0.0,0.0,0.0,0.0,0.0,0.977732546952191,0.2633582438247012,1.5290078043470704e-17,-0.21135645000000003,0.048049379999999996,9.78649524,0.004536,-0.000694,0.00329,0.17291192549934228
1757070173.9726987,0.0,0.0,0.0,0.0,0.0,0.977732546952191,0.2633582438247012,1.4380122048250712e-17,-0.23516532,0.05194395,9.77737194,0.00291,0.000424,0.003384,0.17347866468014586
1757070173.9938705,0.0,0.0,0.0,0.0,0.0,0.977732546952191,0.2633582438247012,1.3503876845737694e-17,-0.21899844000000002,0.045204480000000005,9.783208890000001,0.003434,-0.000258,0.003806,0.17651112900923444
1757070174.0173821,0.0,0.0,0.0,0.0,0.0,0.977732546952191,0.2633582438247012,1.1941535676593766e-17,-0.23935419000000002,0.05988024,9.78545538,0.003514,-0.00081,0.004189,0.1735958683515447
1757070174.0377843,0.0,0.0,0.0,0.0,0.0,0.977732546952191,0.2633582438247012,1.1228332347703162e-17,-0.22588506000000003,0.052395210000000005,9.78620094,0.003137,7e-06,0.004251,0.17377449313003548
1757070174.0601072,0.0,0.0,0.0,0.0,0.0,0.977732546952191,0.2633582438247012,1.0548735463053959e-17,-0.21630069,0.051198389999999996,9.78829047,0.003407,-0.001226,0.004043,0.17414040225381092
1757070174.0806143,0.0,0.0,0.0,0.0,0.0,0.977732546952191,0.2633582438247012,9.916330282474955e-18,-0.23500836000000003,0.06107706,9.775272600000001,0.004003,0.001727,0.004899,0.17387641474608292
1757070174.1013026,0.0,0.0,0.0,0.0,0.0,0.977732546952191,0.2633582438247012,9.315180251446608e-18,-0.21914559000000003,0.045802890000000006,9.79383312,0.004723,-0.000301,0.004013,0.17427403451679746
1757070174.1216927,0.0,0.0,0.0,0.0,0.0,0.977732546952191,0.2633582438247012,9.315180251446608e-18,-0.21914559000000003,0.045802890000000006,9.79383312,0.004723,-0.000301,0.004013,0.17427403451679746
1757070174.1417398,0.0,0.0,0.0,0.0,0.0,0.977732546952191,0.2633582438247012,8.20166848227082e-18,-0.24459273,0.06751242,9.78305193,0.003323,-0.000203,0.003697,0.1738444573051501
1757070174.1623762,0.0,0.0,0.0,0.0,0.0,0.977732546952191,0.2633582438247012,7.707698958351118e-18,-0.21749751,0.04565574000000001,9.80445735,0.002678,-0.000439,0.004115,0.17413454942743173
1757070174.1826906,0.0,0.0,0.0,0.0,0.0,0.977732546952191,0.2633582438247012,7.707698958351118e-18,-0.21749751,0.04565574000000001,9.80445735,0.002678,-0.000439,0.004115,0.17413454942743173
1757070174.2038283,0.0,0.0,0.0,0.0,0.0,0.977732546952191,0.2633582438247012,7.707698958351118e-18,-0.22123512,0.0489519,9.77677353,0.002726,-0.000716,0.00328,0.18461521271902442
1757070174.2257717,0.0,0.0,0.0,0.0,0.0,0.977732546952191,0.2633582438247012,6.333473648999844e-18,-0.22378572,0.05433759,9.79727643,0.004252,0.00017,0.003127,0.17394047635733925
1757070174.2468295,0.0,0.0,0.0,0.0,0.0,0.977732546952191,0.2633582438247012,5.957191680320637e-18,-0.23725485000000002,0.052542359999999996,9.78185511,0.00258,0.001527,0.005047,0.17391987058750485
1757070174.2669594,0.0,0.0,0.0,0.0,0.0,0.977732546952191,0.2633582438247012,5.5971953072739805e-18,-0.23096664,0.06601149,9.787996170000001,0.004417,8.4e-05,0.00402,0.17494553541341182
1757070174.2874188,0.0,0.0,0.0,0.0,0.0,0.977732546952191,0.2633582438247012,5.262396758137665e-18,-0.21166056000000003,0.05328792,9.7926363,0.003711,0.000318,0.003568,0.17477981693202205
1757070174.3085086,0.0,0.0,0.0,0.0,0.0,0.977732546952191,0.2633582438247012,4.944808806359926e-18,-0.23516532,0.04250673,9.77032836,0.00257,0.000986,0.003868,0.17517610225791697
1757070174.3288176,0.0,0.0,0.0,0.0,0.0,0.977732546952191,0.2633582438247012,4.6472708658992015e-18,-0.23800041000000002,0.055534410000000006,9.78919299,0.003878,-2.5e-05,0.002298,0.17513602228537725
1757070174.3489134,0.0,0.0,0.0,0.0,0.0,0.977732546952191,0.2633582438247012,4.3654349848416215e-18,-0.21720321,0.05044302,9.77392863,0.001584,-0.000315,0.004301,0.17540992479216078
1757070174.3699596,0.0,0.0,0.0,0.0,0.0,0.977732546952191,0.2633582438247012,4.1026023417542586e-18,-0.24234624000000002,0.052395210000000005,9.77960862,0.003459,-0.000923,0.003924,0.1752608168736362
1757070174.390934,0.0,0.0,0.0,0.0,0.0,0.977732546952191,0.2633582438247012,3.853025892390813e-18,-0.22931856000000003,0.05703534,9.768385980000001,0.003006,0.00044,0.004605,0.17563456584114287
1757070174.4118912,0.0,0.0,0.0,0.0,0.0,0.977732546952191,0.2633582438247012,3.61800931314128e-18,-0.22797459,0.04371336,9.78500412,0.003087,-0.000299,0.005842,0.17568537417011645
1757070174.4320693,0.0,0.0,0.0,0.0,0.0,0.977732546952191,0.2633582438247012,3.3979653240004904e-18,-0.23605803000000003,0.06361785,9.78156081,0.005099,-0.000162,0.004326,0.17936123307101445
1757070174.4525573,0.0,0.0,0.0,0.0,0.0,0.977732546952191,0.2633582438247012,3.1923128489959414e-18,-0.23605803000000003,0.06361785,9.78156081,0.005099,-0.000162,0.004326,0.1756648903875553
1757070174.4728475,0.0,0.0,0.0,0.0,0.0,0.977732546952191,0.2633582438247012,2.9949714754724258e-18,-0.22483539,0.04250673,9.7695828,0.002595,0.000402,0.004787,0.17625850733994947
1757070174.4932714,0.0,0.0,0.0,0.0,0.0,0.977732546952191,0.2633582438247012,2.9949714754724258e-18,-0.22483539,0.04250673,9.7695828,0.002595,0.000402,0.004787,0.17625850733994947
1757070174.5140643,0.0,0.0,0.0,0.0,0.0,0.977732546952191,0.2633582438247012,2.624224742665755e-18,-0.2168991,0.04955031,9.765246780000002,0.002911,-0.000159,0.004233,0.17576069805256722
1757070174.538244,0.0,0.0,0.0,0.0,0.0,0.977732546952191,0.2633582438247012,2.3166817604150353e-18,-0.23052519,0.058232160000000005,9.77392863,0.003377,-0.000365,0.004473,0.17590249387656434
1757070174.5586884,0.0,0.0,0.0,0.0,0.0,0.977732546952191,0.2633582438247012,2.177413181263141e-18,-0.20941407000000004,0.05163984,9.77452704,0.002831,0.000219,0.00449,0.1761687136263914
1757070174.5796854,0.0,0.0,0.0,0.0,0.0,0.977732546952191,0.2633582438247012,2.0461886897284897e-18,-0.2282787,0.05433759,9.78290478,0.002832,-0.000165,0.003516,0.17642130479497153
1757070174.5997326,0.0,0.0,0.0,0.0,0.0,0.977732546952191,0.2633582438247012,1.923011662204104e-18,-0.2311236,0.04984461,9.78545538,0.003781,0.000362,0.00483,0.17649159730299938
1757070174.6204324,0.0,0.0,0.0,0.0,0.0,0.977732546952191,0.2633582438247012,1.8056521499031077e-18,-0.22498254,0.05044302,9.77991273,0.003156,0.000108,0.004946,0.17688435022664994
1757070174.640797,0.0,0.0,0.0,0.0,0.0,0.977732546952191,0.2633582438247012,1.6966579671017644e-18,-0.21824307,0.06586434000000001,9.78021684,0.003606,-0.000275,0.004552,0.17659003142331392
1757070174.661407,0.0,0.0,0.0,0.0,0.0,0.977732546952191,0.2633582438247012,1.5938754799957625e-18,-0.24040386000000002,0.04879494,9.77362452,0.004502,0.000137,0.003669,0.17684982247871367
1757070174.6823769,0.0,0.0,0.0,0.0,0.0,0.977732546952191,0.2633582438247012,1.4972402547922815e-18,-0.22453128,0.04759812000000001,9.78185511,0.001984,0.000483,0.00347,0.1769457986382538
1757070174.7032585,0.0,0.0,0.0,0.0,0.0,0.977732546952191,0.2633582438247012,1.405517720051764e-18,-0.22857300000000003,0.05074713,9.784405710000001,0.002569,-0.001141,0.003857,0.17724382702181327
1757070174.724207,0.0,0.0,0.0,0.0,0.0,0.977732546952191,0.2633582438247012,1.3202705789037788e-18,-0.22348161,0.05852646,9.7812567,0.003199,0.000357,0.005127,0.17700031026116408
1757070174.7443492,0.0,0.0,0.0,0.0,0.0,0.977732546952191,0.2633582438247012,1.2400889478052819e-18,-0.21061089,0.05912487,9.764795520000002,0.002484,-3.8e-05,0.004348,0.17720889390998168
1757070174.7652614,0.0,0.0,0.0,0.0,0.0,0.977732546952191,0.2633582438247012,1.1646876470488421e-18,-0.23576373,0.049697460000000006,9.77407578,0.002839,0.000897,0.004065,0.17733890220794896
1757070174.785723,0.0,0.0,0.0,0.0,0.0,0.977732546952191,0.2633582438247012,1.1646876470488421e-18,-0.23576373,0.049697460000000006,9.77407578,0.002839,0.000897,0.004065,0.17733890220794896
1757070174.8065538,0.0,0.0,0.0,0.0,0.0,0.977732546952191,0.2633582438247012,1.0883688240815765e-18,-0.21420135,0.060920100000000005,9.7894971,0.00446,0.001184,0.002744,0.18053097307728824
1757070174.8275576,0.0,0.0,0.0,0.0,0.0,0.977732546952191,0.2633582438247012,9.576987195565168e-19,-0.22632651000000004,0.051796800000000004,9.77108373,0.003836,0.000411,0.002441,0.17684028788013295
1757070174.8484333,0.0,0.0,0.0,0.0,0.0,0.977732546952191,0.2633582438247012,8.999335889348397e-19,-0.23560677000000002,0.04999176,9.77706783,0.001936,0.001833,0.004243,0.1772729783826392
1757070174.8692756,0.0,0.0,0.0,0.0,0.0,0.977732546952191,0.2633582438247012,8.448041897079289e-19,-0.20926692000000002,0.03907323000000001,9.772280550000001,0.00273,-0.000788,0.004595,0.17799720930767307
1757070174.8897276,0.0,0.0,0.0,0.0,0.0,0.977732546952191,0.2633582438247012,7.938718624421973e-19,-0.22632651000000004,0.058977720000000004,9.76988691,0.001346,0.000696,0.003646,0.17764350689811753
1757070174.910418,0.0,0.0,0.0,0.0,0.0,0.977732546952191,0.2633582438247012,7.455494615888454e-19,-0.22199049,0.04595004,9.77377167,0.001841,-0.000262,0.001927,0.17811223828549713
1757070174.9315913,0.0,0.0,0.0,0.0,0.0,0.977732546952191,0.2633582438247012,7.003243405116039e-19,-0.21106215,0.05223825,9.780962400000002,0.004268,-0.00228,0.004463,0.1780711783524157
1757070174.951557,0.0,0.0,0.0,0.0,0.0,0.977732546952191,0.2633582438247012,6.575570113785044e-19,-0.23950134000000003,0.056878380000000006,9.787692060000001,0.003918,0.001133,0.00433,0.178331754947884
1757070174.9739518,0.0,0.0,0.0,0.0,0.0,0.977732546952191,0.2633582438247012,6.161879834942216e-19,-0.22184334,0.0432621,9.77661657,0.004318,0.000698,0.005381,0.18075336262256167
1757070174.994126,0.0,0.0,0.0,0.0,0.0,0.977732546952191,0.2633582438247012,5.787585213164487e-19,-0.23980545000000003,0.055230299999999996,9.78141366,0.002673,0.001301,0.004318,0.18189912264661184
1757070175.0146167,0.0,0.0,0.0,0.0,0.0,0.977732546952191,0.2633582438247012,5.436238330099393e-19,-0.23980545000000003,0.055230299999999996,9.78141366,0.002673,0.001301,0.004318,0.17834024113134855
1757070175.0349581,0.0,0.0,0.0,0.0,0.0,0.977732546952191,0.2633582438247012,5.101997337290633e-19,-0.22572810000000001,0.03847482,9.78620094,0.003466,-0.000456,0.002746,0.18226598304408995
1757070175.0557883,0.0,0.0,0.0,0.0,0.0,0.977732546952191,0.2633582438247012,4.791330240387118e-19,-0.23366439,0.07095573000000001,9.78500412,0.002188,-0.001275,0.004812,0.18286354002579697
1757070175.0761433,0.0,0.0,0.0,0.0,0.0,0.977732546952191,0.2633582438247012,4.498691614649853e-19,-0.23366439,0.07095573000000001,9.78500412,0.002188,-0.001275,0.004812,0.17883613938095005
1757070175.0984924,0.0,0.0,0.0,0.0,0.0,0.977732546952191,0.2633582438247012,4.2084473541318665e-19,-0.2225889,0.04056435,9.78005988,0.001403,-0.000895,0.002995,0.17994721417739035
1757070175.1194985,0.0,0.0,0.0,0.0,0.0,0.977732546952191,0.2633582438247012,3.7096638709688533e-19,-0.23545962,0.04775508,9.795334050000001,0.002388,-0.000906,0.004131,0.17825959446739237
1757070175.140588,0.0,0.0,0.0,0.0,0.0,0.977732546952191,0.2633582438247012,3.7096638709688533e-19,-0.20866851000000003,0.058977720000000004,9.77751909,0.005108,-0.001107,0.002914,0.18414071511303198
1757070175.1613226,0.0,0.0,0.0,0.0,0.0,0.977732546952191,0.2633582438247012,3.2697430038800785e-19,-0.21450546,0.04955031,9.76434426,0.003469,0.001146,0.004069,0.17898608692638412
1757070175.1816504,0.0,0.0,0.0,0.0,0.0,0.977732546952191,0.2633582438247012,3.0719856549446093e-19,-0.22648347000000002,0.052542359999999996,9.78679935,0.004775,0.000464,0.003474,0.17926157586793767
1757070175.2025735,0.0,0.0,0.0,0.0,0.0,0.977732546952191,0.2633582438247012,2.8865808537407857e-19,-0.21300453,0.05089428,9.77826465,0.002396,0.000257,0.004322,0.17938387785619725
1757070175.2228925,0.0,0.0,0.0,0.0,0.0,0.977732546952191,0.2633582438247012,2.8865808537407857e-19,-0.21300453,0.05089428,9.77826465,0.002396,0.000257,0.004322,0.17938387785619725
1757070175.2439902,0.0,0.0,0.0,0.0,0.0,0.977732546952191,0.2633582438247012,2.538774184688908e-19,-0.21735036,0.05463189,9.78574968,0.001503,-0.000797,0.004682,0.17924901896491513
1757070175.2641642,0.0,0.0,0.0,0.0,0.0,0.977732546952191,0.2633582438247012,2.3845801229514646e-19,-0.23246757,0.04955031,9.7894971,0.001731,-0.000928,0.00184,0.1795515876900497
1757070175.2848322,0.0,0.0,0.0,0.0,0.0,0.977732546952191,0.2633582438247012,2.241132640706025e-19,-0.20716758000000002,0.04491018,9.77991273,0.001935,-0.000742,0.005007,0.17959056239684362
1757070175.3052282,0.0,0.0,0.0,0.0,0.0,0.977732546952191,0.2633582438247012,2.1050078513728707e-19,-0.23381154,0.0577809,9.79084107,0.004037,0.001331,0.004087,0.18005799744192194
1757070175.325248,0.0,0.0,0.0,0.0,0.0,0.977732546952191,0.2633582438247012,1.977826855645079e-19,-0.237402,0.04565574000000001,9.78904584,0.001884,0.000721,0.002187,0.17997474199117688
1757070175.3463016,0.0,0.0,0.0,0.0,0.0,0.977732546952191,0.2633582438247012,1.8573686588187853e-19,-0.21465261000000002,0.043860510000000005,9.775419750000001,0.0036,0.000255,0.003672,0.18028431844569545
1757070175.3672233,0.0,0.0,0.0,0.0,0.0,0.977732546952191,0.2633582438247012,1.7442027143877854e-19,-0.23905008000000003,0.03951468,9.78021684,0.003314,-0.000943,0.002508,0.18030954128690463
1757070175.3875997,0.0,0.0,0.0,0.0,0.0,0.977732546952191,0.2633582438247012,1.7442027143877854e-19,-0.23905008000000003,0.03951468,9.78021684,0.003314,-0.000943,0.002508,0.18030954128690463
1757070175.407942,0.0,0.0,0.0,0.0,0.0,0.977732546952191,0.2633582438247012,1.7442027143877854e-19,-0.23905008000000003,0.03951468,9.78021684,0.003314,-0.000943,0.002508,0.18030954128690463
1757070175.4285927,0.0,0.0,0.0,0.0,0.0,0.977732546952191,0.2633582438247012,1.6236082636421133e-19,-0.21989115,0.05029587,9.78859458,0.003982,0.000349,0.004545,0.1841661194147949
1757070175.4499114,0.0,0.0,0.0,0.0,0.0,0.977732546952191,0.2633582438247012,1.4176215802511155e-19,-0.22992678000000003,0.06990606,9.77077962,0.003524,1.7e-05,0.004606,0.18053487113938743
1757070175.4703014,0.0,0.0,0.0,0.0,0.0,0.977732546952191,0.2633582438247012,1.2485211940346943e-19,-0.22453128,0.04984461,9.78919299,0.003201,-8e-06,0.005172,0.17978168047664364
1757070175.4904552,0.0,0.0,0.0,0.0,0.0,0.977732546952191,0.2633582438247012,1.1753576886796627e-19,-0.22453128,0.04984461,9.78919299,0.003201,-8e-06,0.005172,0.17975758905958286
1757070175.5112422,0.0,0.0,0.0,0.0,0.0,0.977732546952191,0.2633582438247012,1.105657603014493e-19,-0.22976981999999999,0.04311495,9.78170796,0.004635,-0.000848,0.003854,0.18427374467673163
1757070175.532252,0.0,0.0,0.0,0.0,0.0,0.977732546952191,0.2633582438247012,1.0404274009404824e-19,-0.22976981999999999,0.04311495,9.78170796,0.004635,-0.000848,0.003854,0.18082945575701243
1757070175.5563867,0.0,0.0,0.0,0.0,0.0,0.977732546952191,0.2633582438247012,9.19904742242122e-20,-0.2225889,0.04879494,9.79398027,0.003159,-0.001092,0.005745,0.18116553920328507
1757070175.5780296,0.0,0.0,0.0,0.0,0.0,0.977732546952191,0.2633582438247012,8.6464241985046e-20,-0.23725485000000002,0.04984461,9.78545538,0.003189,0.000251,0.004547,0.18143995045917347
1757070175.5980835,0.0,0.0,0.0,0.0,0.0,0.977732546952191,0.2633582438247012,8.129330689715863e-20,-0.22722903,0.05074713,9.79189074,0.001589,-0.000503,0.004996,0.18134464991746901
1757070175.6182003,0.0,0.0,0.0,0.0,0.0,0.977732546952191,0.2633582438247012,7.641254442917435e-20,-0.22558095000000003,0.054484740000000004,9.77826465,0.003827,-0.000545,0.004779,0.18154756827833096
1757070175.638307,0.0,0.0,0.0,0.0,0.0,0.977732546952191,0.2633582438247012,7.182447973511104e-20,-0.23306598000000003,0.06511878,9.77077962,0.002365,-0.000859,0.004473,0.1816048394828754
1757070175.6611238,0.0,0.0,0.0,0.0,0.0,0.977732546952191,0.2633582438247012,6.742540750712294e-20,-0.21735036,0.05343507,9.775723860000001,0.002365,-0.000859,0.004473,0.18209244582669654
1757070175.6815634,0.0,0.0,0.0,0.0,0.0,0.977732546952191,0.2633582438247012,6.742540750712294e-20,-0.21735036,0.05343507,9.775723860000001,0.002365,-0.000859,0.004473,0.18209244582669654
1757070175.7022913,0.0,0.0,0.0,0.0,0.0,0.977732546952191,0.2633582438247012,6.309948589232785e-20,-0.23306598000000003,0.03666978,9.78605379,0.003585,0.000225,0.00431,0.18464523403826616
1757070175.7229517,0.0,0.0,0.0,0.0,0.0,0.977732546952191,0.2633582438247012,5.565740899498641e-20,-0.21914559000000003,0.059428980000000006,9.78141366,0.001458,-0.000571,0.003197,0.18116140578226864
1757070175.7432792,0.0,0.0,0.0,0.0,0.0,0.977732546952191,0.2633582438247012,5.2315759170365426e-20,-0.21989115,0.055534410000000006,9.78545538,0.00329,-0.001569,0.004001,0.18190904441500758
1757070175.7633817,0.0,0.0,0.0,0.0,0.0,0.977732546952191,0.2633582438247012,4.917438801159072e-20,-0.23052519,0.05074713,9.77721498,0.003392,7.4e-05,0.003691,0.18212714613106104
1757070175.7840295,0.0,0.0,0.0,0.0,0.0,0.977732546952191,0.2633582438247012,4.6145368677557604e-20,-0.22304016000000002,0.05134554,9.77781339,0.002825,-0.000209,0.005026,0.1827721717572664
1757070175.8040571,0.0,0.0,0.0,0.0,0.0,0.977732546952191,0.2633582438247012,4.3365412568697625e-20,-0.23261472000000002,0.053886329999999996,9.783208890000001,0.002241,-0.000624,0.004474,0.1821080035291016
1757070175.824961,0.0,0.0,0.0,0.0,0.0,0.977732546952191,0.2633582438247012,4.070751573733725e-20,-0.22423698,0.04565574000000001,9.780962400000002,0.002737,-0.000799,0.004229,0.18276330511252478
1757070175.8452656,0.0,0.0,0.0,0.0,0.0,0.977732546952191,0.2633582438247012,3.825696820850639e-20,-0.23351724,0.05912487,9.77677353,0.002984,-0.001226,0.004664,0.18231936170547408
1757070175.8663874,0.0,0.0,0.0,0.0,0.0,0.977732546952191,0.2633582438247012,3.593611679543984e-20,-0.23381154,0.05403348,9.76988691,0.005634,0.000981,0.002939,0.18276074933513153
1757070175.8866985,0.0,0.0,0.0,0.0,0.0,0.977732546952191,0.2633582438247012,3.3763022283787747e-20,-0.22153923,0.05403348,9.77871591,0.003906,-0.000215,0.003293,0.1827494260059984
1757070175.907885,0.0,0.0,0.0,0.0,0.0,0.977732546952191,0.2633582438247012,3.16848596037712e-20,-0.21840003000000002,0.05658408,9.78021684,0.003591,0.000676,0.004523,0.18323746741632863
1757070175.9278147,0.0,0.0,0.0,0.0,0.0,0.977732546952191,0.2633582438247012,2.9766913166358966e-20,-0.23306598000000003,0.04909905,9.783650340000001,0.003933,-0.000175,0.00368,0.18277673388673
1757070175.9480572,0.0,0.0,0.0,0.0,0.0,0.977732546952191,0.2633582438247012,2.795075357124258e-20,-0.22588506000000003,0.053886329999999996,9.79682517,0.001931,-0.000255,0.002922,0.183191774107489
1757070175.9690087,0.0,0.0,0.0,0.0,0.0,0.977732546952191,0.2633582438247012,2.624886879267625e-20,-0.23381154,0.04550859,9.787996170000001,0.00313,-0.002393,0.004345,0.18319564886295395
1757070175.9894183,0.0,0.0,0.0,0.0,0.0,0.977732546952191,0.2633582438247012,2.624886879267625e-20,-0.23381154,0.04550859,9.787996170000001,0.00313,-0.002393,0.004345,0.18319564886295395
1757070176.0100896,0.0,0.0,0.0,0.0,0.0,0.977732546952191,0.2633582438247012,2.2999336801633486e-20,-0.21135645000000003,0.04775508,9.78844743,0.003301,0.000587,0.005204,0.18313568638369743
1757070176.0308342,0.0,0.0,0.0,0.0,0.0,0.977732546952191,0.2633582438247012,2.1583952550593593e-20,-0.2225889,0.0520911,9.78305193,0.004282,0.001672,0.004167,0.18551669833114795
1757070176.0509686,0.0,0.0,0.0,0.0,0.0,0.977732546952191,0.2633582438247012,2.0287781162504747e-20,-0.2225889,0.0520911,9.78305193,0.004282,0.001672,0.004167,0.1829410856035541
1757070176.074183,0.0,0.0,0.0,0.0,0.0,0.977732546952191,0.2633582438247012,1.790672619673212e-20,-0.22438413000000001,0.05299362,9.77092677,0.003259,-0.000492,0.003666,0.18352251858378593
1757070176.0944326,0.0,0.0,0.0,0.0,0.0,0.977732546952191,0.2633582438247012,1.790672619673212e-20,-0.23591088000000002,0.05014872000000001,9.78156081,0.00229,-0.001088,0.004867,0.1885411803163507
1757070176.1154,0.0,0.0,0.0,0.0,0.0,0.977732546952191,0.2633582438247012,1.5800766288942206e-20,-0.21330864,0.04730382,9.7869465,0.003059,-0.000222,0.004984,0.18379941485589849
1757070176.1387095,0.0,0.0,0.0,0.0,0.0,0.977732546952191,0.2633582438247012,1.4834097969818622e-20,-0.23696055000000002,0.05538726,9.783208890000001,0.00341,-0.0011,0.004515,0.18431591543409398
1757070176.1592553,0.0,0.0,0.0,0.0,0.0,0.977732546952191,0.2633582438247012,1.393363534540132e-20,-0.22782744000000002,0.05163984,9.77661657,0.002789,0.000814,0.003536,0.18410627859325188
1757070176.1797156,0.0,0.0,0.0,0.0,0.0,0.977732546952191,0.2633582438247012,1.3090965523825262e-20,-0.22063671,0.048049379999999996,9.77976558,0.003931,-0.001226,0.005262,0.1841743293159585
1757070176.1999316,0.0,0.0,0.0,0.0,0.0,0.977732546952191,0.2633582438247012,1.2297459985515931e-20,-0.22782744000000002,0.046705409999999996,9.787996170000001,0.003956,0.00011,0.004711,0.18437875814693086
1757070176.220254,0.0,0.0,0.0,0.0,0.0,0.977732546952191,0.2633582438247012,1.2297459985515931e-20,-0.22782744000000002,0.046705409999999996,9.787996170000001,0.003956,0.00011,0.004711,0.18437875814693086
1757070176.24045,0.0,0.0,0.0,0.0,0.0,0.977732546952191,0.2633582438247012,1.081068339506016e-20,-0.21255327,0.045351630000000004,9.78529842,0.004142,0.000761,0.004147,0.1841634861162301
1757070176.2610047,0.0,0.0,0.0,0.0,0.0,0.977732546952191,0.2633582438247012,1.0145129595513219e-20,-0.22872015,0.047902230000000004,9.779314320000001,0.004142,0.000761,0.004147,0.1846971118309595
1757070176.281467,0.0,0.0,0.0,0.0,0.0,0.977732546952191,0.2633582438247012,1.0145129595513219e-20,-0.22872015,0.047902230000000004,9.779314320000001,0.004142,0.000761,0.004147,0.1846971118309595
1757070176.3033946,0.0,0.0,0.0,0.0,0.0,0.977732546952191,0.2633582438247012,9.481893602829397e-21,-0.21854718,0.0432621,9.78201207,0.002343,-0.001113,0.004912,0.1859489380498028
1757070176.3243937,0.0,0.0,0.0,0.0,0.0,0.977732546952191,0.2633582438247012,8.346305972953337e-21,-0.23516532,0.05912487,9.79338186,0.00382,0.000779,0.004487,0.18413381732395026
1757070176.345009,0.0,0.0,0.0,0.0,0.0,0.977732546952191,0.2633582438247012,7.838432946421618e-21,-0.21943989,0.051198389999999996,9.77960862,0.003063,-0.001676,0.003432,0.18489388962274322
1757070176.366001,0.0,0.0,0.0,0.0,0.0,0.977732546952191,0.2633582438247012,7.361552719466409e-21,-0.22034241,0.04775508,9.78201207,0.002571,0.000444,0.005432,0.1851343795853534
1757070176.3864763,0.0,0.0,0.0,0.0,0.0,0.977732546952191,0.2633582438247012,6.915239368158543e-21,-0.22527684,0.04445892,9.77706783,0.004625,0.000315,0.004734,0.1851998330502891
1757070176.4073346,0.0,0.0,0.0,0.0,0.0,0.977732546952191,0.2633582438247012,6.500917839879333e-21,-0.22423698,0.05673123,9.78829047,0.004079,-0.00059,0.002845,0.1850832737671359
1757070176.4275067,0.0,0.0,0.0,0.0,0.0,0.977732546952191,0.2633582438247012,6.107115939437029e-21,-0.21584943000000004,0.05343507,9.78859458,0.002466,7.9e-05,0.00434,0.1855734978827009
1757070176.448655,0.0,0.0,0.0,0.0,0.0,0.977732546952191,0.2633582438247012,5.739545309956996e-21,-0.22812174000000002,0.04235958,9.78964425,0.003617,-0.00044,0.002418,0.1854489799227072
1757070176.4703498,0.0,0.0,0.0,0.0,0.0,0.977732546952191,0.2633582438247012,5.3900136084456315e-21,-0.23471406,0.03922038,9.774968490000001,0.002894,-0.000899,0.003359,0.18926641790930232
1757070176.4911408,0.0,0.0,0.0,0.0,0.0,0.977732546952191,0.2633582438247012,5.06471341854782e-21,-0.23471406,0.03922038,9.774968490000001,0.002894,-0.000899,0.003359,0.18562612462919173
1757070176.5110672,0.0,0.0,0.0,0.0,0.0,0.977732546952191,0.2633582438247012,4.753896773588919e-21,-0.21749751,0.04415481,9.78021684,0.004201,-0.000404,0.004151,0.18933523861375387
1757070176.5320497,0.0,0.0,0.0,0.0,0.0,0.977732546952191,0.2633582438247012,4.4659528689684426e-21,-0.21749751,0.04415481,9.78021684,0.004201,-0.000404,0.004151,0.18578677205789837
1757070176.5562186,0.0,0.0,0.0,0.0,0.0,0.977732546952191,0.2633582438247012,3.937724343206188e-21,-0.21061089,0.05343507,9.79173378,0.00242,-0.000499,0.0047,0.18607912685536374
1757070176.5766394,0.0,0.0,0.0,0.0,0.0,0.977732546952191,0.2633582438247012,3.937724343206188e-21,-0.21061089,0.05343507,9.79173378,0.00242,-0.000499,0.0047,0.18607912685536374
1757070176.5990844,0.0,0.0,0.0,0.0,0.0,0.977732546952191,0.2633582438247012,3.6825582668002674e-21,-0.23381154,0.04281084,9.787692060000001,0.00354,-6e-05,0.00344,0.1874090041506284
1757070176.6194637,0.0,0.0,0.0,0.0,0.0,0.977732546952191,0.2633582438247012,3.4526414132631746e-21,-0.2311236,0.05089428,9.78230637,0.003323,0.000723,0.003562,0.18607596835318213
1757070176.640242,0.0,0.0,0.0,0.0,0.0,0.977732546952191,0.2633582438247012,3.0430485041089918e-21,-0.22692492,0.047902230000000004,9.779314320000001,0.001983,-0.001676,0.004046,0.1858000729808753
1757070176.6609824,0.0,0.0,0.0,0.0,0.0,0.977732546952191,0.2633582438247012,2.8580542414429933e-21,-0.22976981999999999,0.06151851,9.792783450000002,0.001593,-0.001364,0.003792,0.18663662809937315
1757070176.6813114,0.0,0.0,0.0,0.0,0.0,0.977732546952191,0.2633582438247012,2.8580542414429933e-21,-0.22976981999999999,0.06151851,9.792783450000002,0.001593,-0.001364,0.003792,0.18663662809937315
1757070176.7034945,0.0,0.0,0.0,0.0,0.0,0.977732546952191,0.2633582438247012,2.5116700224142953e-21,-0.22304016000000002,0.051796800000000004,9.768385980000001,0.002509,-0.000998,0.004106,0.18643847089602256
1757070176.7243633,0.0,0.0,0.0,0.0,0.0,0.977732546952191,0.2633582438247012,2.5116700224142953e-21,-0.22304016000000002,0.051796800000000004,9.768385980000001,0.002509,-0.000998,0.004106,0.18643847089602256
1757070176.7448387,0.0,0.0,0.0,0.0,0.0,0.977732546952191,0.2633582438247012,2.211937001012198e-21,-0.22857300000000003,0.03951468,9.7784118,0.003737,0.001714,0.002794,0.18644792309819497
1757070176.7650838,0.0,0.0,0.0,0.0,0.0,0.977732546952191,0.2633582438247012,2.0799158809116257e-21,-0.23560677000000002,0.05433759,9.77946147,0.002522,0.000995,0.003896,0.18664509729138268
1757070176.785486,0.0,0.0,0.0,0.0,0.0,0.977732546952191,0.2633582438247012,1.954455378744554e-21,-0.22483539,0.0577809,9.77677353,0.001906,0.000483,0.004716,0.18726871398255127
1757070176.8062558,0.0,0.0,0.0,0.0,0.0,0.977732546952191,0.2633582438247012,1.8372129099540854e-21,-0.23516532,0.04027005,9.77646942,0.003825,-0.00051,0.004339,0.18720773094119553
1757070176.8282096,0.0,0.0,0.0,0.0,0.0,0.977732546952191,0.2633582438247012,1.725437084101077e-21,-0.22019526000000003,0.06406911000000001,9.7894971,0.00225,-0.002006,0.003981,0.1876527413531709
1757070176.8491187,0.0,0.0,0.0,0.0,0.0,0.977732546952191,0.2633582438247012,1.6216526574032985e-21,-0.22019526000000003,0.06406911000000001,9.7894971,0.00225,-0.002006,0.003981,0.1873560072952472
1757070176.8694885,0.0,0.0,0.0,0.0,0.0,0.977732546952191,0.2633582438247012,1.6216526574032985e-21,-0.22019526000000003,0.06406911000000001,9.7894971,0.00225,-0.002006,0.003981,0.1873560072952472
1757070176.889831,0.0,0.0,0.0,0.0,0.0,0.977732546952191,0.2633582438247012,1.6216526574032985e-21,-0.22019526000000003,0.06406911000000001,9.7894971,0.00225,-0.002006,0.003981,0.1873560072952472
1757070176.9121118,0.0,0.0,0.0,0.0,0.0,0.977732546952191,0.2633582438247012,1.4105048065788542e-21,-0.23920704,0.07155414,9.779314320000001,0.003519,-0.000978,0.004925,0.1878193206764204
1757070176.9340534,0.0,0.0,0.0,0.0,0.0,0.977732546952191,0.2633582438247012,1.2403079675359057e-21,-0.23052519,0.045204480000000005,9.77003406,0.001639,0.001552,0.002728,0.18881646364903906
1757070176.9548986,0.0,0.0,0.0,0.0,0.0,0.977732546952191,0.2633582438247012,1.0984389784248024e-21,-0.21450546,0.05163984,9.7869465,0.003784,0.000521,0.003196,0.18750977594167517
1757070176.9776947,0.0,0.0,0.0,0.0,0.0,0.977732546952191,0.2633582438247012,1.0329538360524604e-21,-0.22692492,0.055534410000000006,9.78215922,0.002904,0.000225,0.004375,0.1882932717536883
1757070176.9980283,0.0,0.0,0.0,0.0,0.0,0.977732546952191,0.2633582438247012,9.716754149582497e-22,-0.23486121000000001,0.05223825,9.787544910000001,0.002769,-0.00052,0.005771,0.18819643691973964
1757070177.0187738,0.0,0.0,0.0,0.0,0.0,0.977732546952191,0.2633582438247012,9.130929834693294e-22,-0.24040386000000002,0.053140770000000004,9.78829047,0.002265,-0.000362,0.004676,0.18865739309651985
1757070177.03929,0.0,0.0,0.0,0.0,0.0,0.977732546952191,0.2633582438247012,8.587760183875837e-22,-0.23845167,0.054484740000000004,9.7781175,0.003337,0.000601,0.004395,0.18828703556051468
1757070177.0599833,0.0,0.0,0.0,0.0,0.0,0.977732546952191,0.2633582438247012,8.068844401556664e-22,-0.22722903,0.053886329999999996,9.78215922,0.00173,-0.000619,0.004281,0.18881918426073277
1757070177.080102,0.0,0.0,0.0,0.0,0.0,0.977732546952191,0.2633582438247012,7.586407034291546e-22,-0.21929274,0.04864779,9.77886306,0.004421,9.9e-05,0.003669,0.18853924749493725
1757070177.1003957,0.0,0.0,0.0,0.0,0.0,0.977732546952191,0.2633582438247012,7.12366520426353e-22,-0.22677777,0.03876912,9.7929306,0.003458,-0.000143,0.002515,0.18913001506818408
1757070177.1247997,0.0,0.0,0.0,0.0,0.0,0.977732546952191,0.2633582438247012,6.682509265618006e-22,-0.22378572,0.05673123,9.78170796,0.003377,0.000787,0.003167,0.18933542226854255
1757070177.1452618,0.0,0.0,0.0,0.0,0.0,0.977732546952191,0.2633582438247012,6.278555843350045e-22,-0.21989115,0.052395210000000005,9.79562835,0.001462,0.000453,0.003641,0.18867039107393496
1757070177.1652665,0.0,0.0,0.0,0.0,0.0,0.977732546952191,0.2633582438247012,5.900661482114977e-22,-0.22304016000000002,0.04955031,9.78201207,0.002986,-0.000737,0.003143,0.18890510929504908
1757070177.1856153,0.0,0.0,0.0,0.0,0.0,0.977732546952191,0.2633582438247012,5.900661482114977e-22,-0.22304016000000002,0.04955031,9.78201207,0.002986,-0.000737,0.003143,0.18890510929504908
1757070177.2069507,0.0,0.0,0.0,0.0,0.0,0.977732546952191,0.2633582438247012,5.17706485041808e-22,-0.22228479,0.05328792,9.78934014,0.002018,-0.000253,0.00368,0.18902704247414076
1757070177.227172,0.0,0.0,0.0,0.0,0.0,0.977732546952191,0.2633582438247012,4.863779098222337e-22,-0.23336028,0.05792805,9.77032836,0.002985,-0.001126,0.004576,0.18878809423935317
1757070177.2474065,0.0,0.0,0.0,0.0,0.0,0.977732546952191,0.2633582438247012,4.573158596611661e-22,-0.22617936000000002,0.04775508,9.77482134,0.004029,3.5e-05,0.004257,0.189020713648443
1757070177.268997,0.0,0.0,0.0,0.0,0.0,0.977732546952191,0.2633582438247012,4.573158596611661e-22,-0.22108797000000002,0.05074713,9.77482134,0.003244,0.000184,0.004806,0.19711511851850458
1757070177.2894294,0.0,0.0,0.0,0.0,0.0,0.977732546952191,0.2633582438247012,4.0215582789933153e-22,-0.23545962,0.05463189,9.77617512,0.004923,0.000443,0.003384,0.18934176855019527
1757070177.3096716,0.0,0.0,0.0,0.0,0.0,0.977732546952191,0.2633582438247012,3.777385368256557e-22,-0.22393287,0.04146687,9.77482134,0.00255,0.000483,0.003031,0.19256450288560423
1757070177.330203,0.0,0.0,0.0,0.0,0.0,0.977732546952191,0.2633582438247012,3.551429122143464e-22,-0.22393287,0.04146687,9.77482134,0.00255,0.000483,0.003031,0.18950573511631089
1757070177.353636,0.0,0.0,0.0,0.0,0.0,0.977732546952191,0.2633582438247012,3.1356772548405736e-22,-0.22677777,0.05433759,9.77946147,0.00234,-0.000491,0.003749,0.18986574682279778
1757070177.3740685,0.0,0.0,0.0,0.0,0.0,0.977732546952191,0.2633582438247012,3.1356772548405736e-22,-0.23560677000000002,0.054936000000000006,9.79053696,0.004219,-2.6e-05,0.005908,0.1949894996920164
1757070177.394651,0.0,0.0,0.0,0.0,0.0,0.977732546952191,0.2633582438247012,2.7674367239255717e-22,-0.22543380000000002,0.052395210000000005,9.7724277,0.004604,-0.000769,0.003449,0.19007812109094735
1757070177.414976,0.0,0.0,0.0,0.0,0.0,0.977732546952191,0.2633582438247012,2.7674367239255717e-22,-0.22543380000000002,0.052395210000000005,9.7724277,0.004604,-0.000769,0.003449,0.19007812109094735
1757070177.4388313,0.0,0.0,0.0,0.0,0.0,0.977732546952191,0.2633582438247012,2.4355704472282718e-22,-0.24114942,0.05403348,9.779167170000001,0.004314,0.000491,0.003483,0.1902354015266512
1757070177.4590926,0.0,0.0,0.0,0.0,0.0,0.977732546952191,0.2633582438247012,2.287626271856807e-22,-0.22453128,0.04491018,9.77960862,0.002701,0.000528,0.004721,0.19042850027307234
1757070177.4794862,0.0,0.0,0.0,0.0,0.0,0.977732546952191,0.2633582438247012,2.287626271856807e-22,-0.22453128,0.04491018,9.77960862,0.002701,0.000528,0.004721,0.19042850027307234
1757070177.5011365,0.0,0.0,0.0,0.0,0.0,0.977732546952191,0.2633582438247012,2.139112184738895e-22,-0.21495672000000002,0.051796800000000004,9.78574968,0.002174,-0.000261,0.003893,0.1918836211562779
1757070177.5215454,0.0,0.0,0.0,0.0,0.0,0.977732546952191,0.2633582438247012,1.8840347853394027e-22,-0.22648347000000002,0.05837931,9.79218504,0.003516,0.000172,0.00371,0.190080189550472
1757070177.5424883,0.0,0.0,0.0,0.0,0.0,0.977732546952191,0.2633582438247012,1.7703234786760698e-22,-0.21555513,0.03412899,9.76554108,0.001781,-0.000834,0.00443,0.19070999117739934
1757070177.5629284,0.0,0.0,0.0,0.0,0.0,0.977732546952191,0.2633582438247012,1.664467345525747e-22,-0.24638796000000002,0.05343507,9.772133400000001,0.003296,-0.001524,0.005292,0.1907847549520082
1757070177.5832927,0.0,0.0,0.0,0.0,0.0,0.977732546952191,0.2633582438247012,1.5629879775845027e-22,-0.22453128,0.06765957,9.787544910000001,0.004855,-0.00059,0.003869,0.1914588452561118
1757070177.604027,0.0,0.0,0.0,0.0,0.0,0.977732546952191,0.2633582438247012,1.4692043183910286e-22,-0.20627487000000003,0.03458025,9.7926363,0.003038,0.001081,0.005128,0.19103413723630025
1757070177.6245341,0.0,0.0,0.0,0.0,0.0,0.977732546952191,0.2633582438247012,1.379611834606339e-22,-0.23531247000000002,0.045351630000000004,9.77437008,0.002065,-0.000159,0.004249,0.19161380349666937
1757070177.6445253,0.0,0.0,0.0,0.0,0.0,0.977732546952191,0.2633582438247012,1.2964592404840957e-22,-0.22648347000000002,0.05852646,9.7695828,0.002261,0.001071,0.004784,0.19131360261275535
1757070177.6649027,0.0,0.0,0.0,0.0,0.0,0.977732546952191,0.2633582438247012,1.2161132641306293e-22,-0.23276187000000004,0.0520911,9.79398027,0.002809,-0.001029,0.004396,0.19207362233135655
1757070177.6865072,0.0,0.0,0.0,0.0,0.0,0.977732546952191,0.2633582438247012,1.1400362176938325e-22,-0.23650929,0.04984461,9.79323471,0.00325,-0.001111,0.00531,0.19208934457283672
1757070177.7074573,0.0,0.0,0.0,0.0,0.0,0.977732546952191,0.2633582438247012,1.0706474369833688e-22,-0.23830452000000002,0.04371336,9.78455286,0.002527,-0.001491,0.004063,0.19138557675506043
1757070177.7283134,0.0,0.0,0.0,0.0,0.0,0.977732546952191,0.2633582438247012,1.0056847062386454e-22,-0.23081949000000002,0.05643693,9.78829047,0.003984,-0.000107,0.005115,0.19170838063567597
1757070177.7486885,0.0,0.0,0.0,0.0,0.0,0.977732546952191,0.2633582438247012,9.443923044270146e-23,-0.22752333,0.04281084,9.78649524,0.004262,-0.000401,0.004211,0.19517605573391023
1757070177.7692862,0.0,0.0,0.0,0.0,0.0,0.977732546952191,0.2633582438247012,8.875782493975431e-23,-0.22752333,0.04281084,9.78649524,0.004262,-0.000401,0.004211,0.19181821639557056
1757070177.789657,0.0,0.0,0.0,0.0,0.0,0.977732546952191,0.2633582438247012,8.875782493975431e-23,-0.22752333,0.04281084,9.78649524,0.004262,-0.000401,0.004211,0.19181821639557056
1757070177.8096855,0.0,0.0,0.0,0.0,0.0,0.977732546952191,0.2633582438247012,7.779277860910373e-23,-0.22363857000000004,0.05343507,9.779314320000001,0.004443,-1.8e-05,0.00421,0.19203516407000953
1757070177.8331275,0.0,0.0,0.0,0.0,0.0,0.977732546952191,0.2633582438247012,6.870702497819159e-23,-0.23471406,0.056878380000000006,9.77601816,0.002991,-0.000214,0.003026,0.19190094538025268
1757070177.8532164,0.0,0.0,0.0,0.0,0.0,0.977732546952191,0.2633582438247012,6.870702497819159e-23,-0.21869433000000002,0.05852646,9.78201207,0.0029,-0.000121,0.003712,0.19693017899211604
1757070177.8739712,0.0,0.0,0.0,0.0,0.0,0.977732546952191,0.2633582438247012,6.066529393252258e-23,-0.22992678000000003,0.03008727,9.76195062,0.002308,-0.000892,0.005608,0.19243792640339275
1757070177.8949735,0.0,0.0,0.0,0.0,0.0,0.977732546952191,0.2633582438247012,6.066529393252258e-23,-0.22992678000000003,0.03008727,9.76195062,0.002308,-0.000892,0.005608,0.19243792640339275
1757070177.9153016,0.0,0.0,0.0,0.0,0.0,0.977732546952191,0.2633582438247012,5.692615381936212e-23,-0.23351724,0.05223825,9.7812567,0.003388,-0.001596,0.003812,0.19322223852487294
1757070177.9365718,0.0,0.0,0.0,0.0,0.0,0.977732546952191,0.2633582438247012,5.327212222134982e-23,-0.22228479,0.055083150000000004,9.77737194,0.002257,-0.000695,0.005162,0.19381940122652055
1757070177.9570892,0.0,0.0,0.0,0.0,0.0,0.977732546952191,0.2633582438247012,4.997383683212946e-23,-0.23096664,0.039965940000000005,9.79413723,0.004699,4.6e-05,0.003994,0.19263067138868473
1757070177.980602,0.0,0.0,0.0,0.0,0.0,0.977732546952191,0.2633582438247012,4.39812145228794e-23,-0.22543380000000002,0.042065280000000004,9.78201207,0.003932,5.5e-05,0.00421,0.19262222932011067
1757070178.0007,0.0,0.0,0.0,0.0,0.0,0.977732546952191,0.2633582438247012,4.135302131586721e-23,-0.22512969000000002,0.050590170000000004,9.78455286,0.002524,-0.001459,0.004463,0.19269666117038617
