timestamp,accel_x,accel_y,accel_z,gyro_x,gyro_y,gyro_z,mag_x,mag_y,mag_z,gps_lat,gps_lon,gps_alt,gps_accuracy,gps_speed,gps_course,pressure,altitude,roll,pitch,yaw
275980.926101,9.30315654,2.01436578,1.1047041,-0.002011,0.031099,-0.013321,-16.672531,123.059937,-139.131073,60.187966,24.830274,18.646513,4.663132,0.14949,-1.0,102.065491,-0.993511,1.675757,-0.221051,-1.401774
275980.946085,9.22815909,1.9130186700000003,1.09407006,-0.027744,0.056273,-0.029253,-16.171173,123.183777,-139.435684,60.187966,24.830274,18.646513,4.663132,0.14949,-1.0,102.065491,-0.993511,1.676256,-0.221259,-1.401906
275980.986051,9.273814830000001,1.9681116300000001,1.0910780100000002,-0.052706,0.096601,-0.049272,-16.216431,123.059494,-139.51767,60.187966,24.830274,18.646513,4.663132,0.14949,-1.0,102.065491,-0.993511,1.678697,-0.222374,-1.400685
275980.986051,9.273814830000001,1.9681116300000001,1.0910780100000002,-0.052706,0.096601,-0.049272,-16.216431,123.059494,-139.51767,60.187966,24.830274,18.646513,4.663132,0.14949,-1.0,102.065491,-0.993511,1.678697,-0.222374,-1.400685
275981.026017,9.62902512,2.16988371,1.00681011,-0.046159,0.126871,-0.037407,-16.559341,123.073486,-139.13205,60.187966,24.830274,18.646513,4.663132,0.14949,-1.0,102.065491,-0.993511,1.682985,-0.224169,-1.398328
275981.026017,9.62902512,2.16988371,1.00681011,-0.046159,0.126871,-0.037407,-16.559341,123.073486,-139.13205,60.187966,24.830274,18.646513,4.663132,0.14949,-1.0,102.065491,-0.993511,1.682985,-0.224169,-1.398328
275981.065983,9.727821630000001,2.09728971,1.26592164,-0.051091,0.1073,-0.005124,-16.635666,122.957779,-138.90416,60.187966,24.830274,18.646513,4.663132,0.14949,-1.0,102.065491,-0.993511,1.688487,-0.225649,-1.396097
275981.085966,9.6133095,2.01540564,1.29840255,-0.071971,0.082977,-0.003278,-16.2883,123.291397,-138.72789,60.187966,24.830274,18.646513,4.663132,0.14949,-1.0,102.065491,-0.993511,1.691162,-0.225857,-1.395077
275981.085966,9.6133095,2.01540564,1.29840255,-0.071971,0.082977,-0.003278,-16.2883,123.291397,-138.72789,60.187966,24.830274,18.646513,4.663132,0.14949,-1.0,102.065491,-0.993511,1.691162,-0.225857,-1.395077
275981.125933,9.6622614,2.15402094,1.22775093,-0.085914,0.031125,-0.002098,-16.72522,123.310745,-138.661484,60.187966,24.830274,18.646513,4.663132,0.14949,-1.0,102.065491,-0.993511,1.695174,-0.225789,-1.392018
275981.145916,9.703718460000001,2.2219748100000003,1.1560496400000002,-0.061232,-0.003597,0.003624,-16.987534,123.109451,-138.469238,60.187966,24.830274,18.646513,4.663132,0.14949,-1.0,102.065491,-0.993511,1.696484,-0.225704,-1.39009
275981.145916,9.703718460000001,2.2219748100000003,1.1560496400000002,-0.061232,-0.003597,0.003624,-16.987534,123.109451,-138.469238,60.187966,24.830274,18.646513,4.663132,0.14949,-1.0,102.065491,-0.993511,1.696484,-0.225704,-1.39009
275981.145916,9.703718460000001,2.2219748100000003,1.1560496400000002,-0.061232,-0.003597,0.003624,-16.987534,123.109451,-138.469238,60.187966,24.830274,18.646513,4.663132,0.14949,-1.0,102.065491,-0.993511,1.696484,-0.225704,-1.39009
275981.205865,9.46287315,2.14624161,1.24316244,-0.063276,-0.049062,0.022122,-16.494934,123.344299,-138.573013,60.187966,24.830274,18.646513,4.663132,0.14949,-1.0,102.065491,-0.993511,1.696265,-0.22518,-1.386288
275981.225848,9.37455372,2.2924792800000002,1.1560496400000002,-0.040995,-0.034008,0.026519,-16.624298,122.794647,-138.365143,60.187966,24.830274,18.646513,4.663132,0.14949,-1.0,102.065491,-0.993511,1.695497,-0.224785,-1.385006
275981.225848,9.37455372,2.2924792800000002,1.1560496400000002,-0.040995,-0.034008,0.026519,-16.624298,122.794647,-138.365143,60.187966,24.830274,18.646513,4.663132,0.14949,-1.0,102.065491,-0.993511,1.695497,-0.224785,-1.385006
275981.265814,9.243129150000001,2.3685264,1.0835929800000001,0.041921,0.014513,0.035302,-16.610397,123.081512,-138.578461,60.187935,24.830318,18.833735,13.84716,0.295854,-1.0,102.065491,-0.993511,1.694509,-0.223703,-1.38335
275981.285798,9.13535649,2.29996431,1.1485646100000002,0.079104,0.040032,0.043877,-16.860947,123.138535,-138.368134,60.187935,24.830318,18.833735,13.84716,0.295854,-1.0,102.065491,-0.993511,1.694447,-0.223198,-1.383688
275981.305781,8.980123050000001,2.2159907100000003,1.2600748800000001,0.103428,0.062841,0.052549,-16.958984,122.78717,-138.308105,60.187935,24.830318,18.833735,13.84716,0.295854,-1.0,102.065491,-0.993511,1.694726,-0.222636,-1.384888
275981.325764,8.86292298,2.23081362,1.25035317,0.123077,0.088584,0.064266,-16.211777,122.967163,-138.91626,60.187935,24.830318,18.833735,13.84716,0.295854,-1.0,102.065491,-0.993511,1.695338,-0.222008,-1.386755
275981.345747,8.780440500000001,2.24174196,1.32249591,0.14363,0.130337,0.091053,-16.565353,123.001343,-138.491028,60.187935,24.830318,18.833735,13.84716,0.295854,-1.0,102.065491,-0.993511,1.696288,-0.221216,-1.389105
275981.36573,8.598415950000001,2.23679772,1.3644140400000002,0.164078,0.185813,0.137049,-16.550171,123.144028,-138.544281,60.187935,24.830318,18.833735,13.84716,0.295854,-1.0,102.065491,-0.993511,1.697786,-0.220141,-1.391921
275981.385713,8.36790057,2.05043715,1.4756300100000002,0.158147,0.252898,0.182113,-16.869507,122.865753,-138.066208,60.187935,24.830318,18.833735,13.84716,0.295854,-1.0,102.065491,-0.993511,1.70012,-0.218422,-1.395257
275981.405696,8.2598238,1.89565497,1.5760746,0.134773,0.317838,0.219953,-16.787521,122.756104,-138.024017,60.187935,24.830318,18.833735,13.84716,0.295854,-1.0,102.065491,-0.993511,1.70364,-0.215804,-1.398924
275981.425679,8.25788142,1.9091339100000002,1.65361284,0.104213,0.390153,0.256724,-16.433777,122.847122,-137.587173,60.187935,24.830318,18.833735,13.84716,0.295854,-1.0,102.065491,-0.993511,1.708512,-0.212311,-1.402423
275981.445662,8.394397380000001,1.93113774,1.6521119100000001,0.08526,0.498426,0.307462,-16.407974,122.398239,-137.299698,60.187935,24.830318,18.833735,13.84716,0.295854,-1.0,102.065491,-0.993511,1.714832,-0.208071,-1.405474
275981.445662,8.394397380000001,1.93113774,1.6521119100000001,0.08526,0.498426,0.307462,-16.407974,122.398239,-137.299698,60.187935,24.830318,18.833735,13.84716,0.295854,-1.0,102.065491,-0.993511,1.714832,-0.208071,-1.405474
275981.485629,8.58853728,1.5447905100000001,1.7670753000000001,0.027483,0.703516,0.356649,-16.781418,122.061249,-135.960327,60.187935,24.830318,18.833735,13.84716,0.295854,-1.0,102.065491,-0.993511,1.733444,-0.196779,-1.410652
275981.505612,8.538692670000001,1.3232512800000003,1.88757153,-0.01527,0.780865,0.32778,-16.700394,121.996094,-135.558853,60.187935,24.830318,18.833735,13.84716,0.295854,-1.0,102.065491,-0.993511,1.746064,-0.189976,-1.41275
275981.545578,8.399184660000001,1.14272766,2.0332206,-0.089589,0.913964,0.206632,-17.164413,121.496017,-134.110397,60.187935,24.830318,18.833735,13.84716,0.295854,-1.0,102.065491,-0.993511,1.77656,-0.177236,-1.413185
275981.545578,8.399184660000001,1.14272766,2.0332206,-0.089589,0.913964,0.206632,-17.164413,121.496017,-134.110397,60.187935,24.830318,18.833735,13.84716,0.295854,-1.0,102.065491,-0.993511,1.77656,-0.177236,-1.413185
275981.585544,8.49887388,1.04587353,2.50788726,-0.169593,1.023085,0.061371,-17.316971,121.317947,-133.504013,60.187935,24.830318,18.833735,13.84716,0.295854,-1.0,102.065491,-0.993511,1.81321,-0.168352,-1.408529
275981.605527,8.57656908,1.14496434,2.73930516,-0.216334,1.065749,0.010126,-17.783234,121.308411,-132.522125,60.187935,24.830318,18.833735,13.84716,0.295854,-1.0,102.065491,-0.993511,1.833538,-0.165732,-1.40535
275981.625511,8.57701053,1.1557455300000001,2.90021859,-0.259506,1.101039,-0.014222,-17.691315,121.466202,-131.69133,60.187935,24.830318,18.833735,13.84716,0.295854,-1.0,102.065491,-0.993511,1.854979,-0.164056,-1.400691
275981.645494,8.45037324,1.12715919,3.1145769000000003,-0.307504,1.138803,-0.024646,-18.212387,121.465179,-130.976196,60.187935,24.830318,18.833735,13.84716,0.295854,-1.0,102.065491,-0.993511,1.877415,-0.162796,-1.395375
275981.645494,8.45037324,1.12715919,3.1145769000000003,-0.307504,1.138803,-0.024646,-18.212387,121.465179,-130.976196,60.187935,24.830318,18.833735,13.84716,0.295854,-1.0,102.065491,-0.993511,1.877415,-0.162796,-1.395375
275981.665477,8.67805353,1.42054686,3.3958394100000002,-0.303415,1.166738,0.03788,-23.807648,118.499908,-124.423386,60.187935,24.830318,18.833735,13.84716,0.295854,-1.0,102.065491,-0.993511,1.900798,-0.161461,-1.389749
275981.665477,8.67805353,1.42054686,3.3958394100000002,-0.303415,1.166738,0.03788,-23.807648,118.499908,-124.423386,60.187935,24.830318,18.833735,13.84716,0.295854,-1.0,102.065491,-0.993511,1.900798,-0.161461,-1.389749
275981.665477,8.67805353,1.42054686,3.3958394100000002,-0.303415,1.166738,0.03788,-23.807648,118.499908,-124.423386,60.187935,24.830318,18.833735,13.84716,0.295854,-1.0,102.065491,-0.993511,1.900798,-0.161461,-1.389749
275981.665477,8.67805353,1.42054686,3.3958394100000002,-0.303415,1.166738,0.03788,-23.807648,118.499908,-124.423386,60.187935,24.830318,18.833735,13.84716,0.295854,-1.0,102.065491,-0.993511,1.900798,-0.161461,-1.389749
275981.665477,8.67805353,1.42054686,3.3958394100000002,-0.303415,1.166738,0.03788,-23.807648,118.499908,-124.423386,60.187935,24.830318,18.833735,13.84716,0.295854,-1.0,102.065491,-0.993511,1.900798,-0.161461,-1.389749
275981.665477,8.67805353,1.42054686,3.3958394100000002,-0.303415,1.166738,0.03788,-23.807648,118.499908,-124.423386,60.187935,24.830318,18.833735,13.84716,0.295854,-1.0,102.065491,-0.993511,1.900798,-0.161461,-1.389749
275981.705443,8.18946648,1.60376823,3.7082388600000002,-0.293279,1.238357,0.076795,-20.190414,120.725052,-127.441895,60.187935,24.830318,18.833735,13.84716,0.295854,-1.0,102.065491,-0.993511,1.949928,-0.156326,-1.371836
275981.785375,8.31385728,0.80187921,4.1971202100000005,-0.368687,1.481164,0.334211,-22.609283,119.422287,-122.276367,60.187935,24.830318,18.833735,13.84716,0.295854,-1.0,102.065491,-0.993511,2.055164,-0.135622,-1.353009
275981.845325,7.522003890000001,0.7286868000000001,5.17473576,-0.515344,1.675791,0.298341,-27.547623,116.831207,-115.571609,60.187935,24.830318,18.833735,13.84716,0.295854,-1.0,102.065491,-0.993511,2.145784,-0.106914,-1.340059
275981.865308,7.566462810000001,0.91265373,5.2814685599999995,-0.479644,1.696108,0.296037,-26.677139,117.219864,-116.792648,60.187935,24.830318,18.833735,13.84716,0.295854,-1.0,102.065491,-0.993511,2.178176,-0.096335,-1.331031
275981.885291,7.146889110000001,1.2651662700000001,5.4660339,-0.399268,1.586604,0.345289,-29.363174,115.875076,-113.048508,60.187935,24.830318,18.833735,13.84716,0.295854,-1.0,102.065491,-0.993511,2.211063,-0.085849,-1.326233
275981.905274,7.375167810000001,1.1795445900000001,6.10909902,-0.367552,1.50404,0.394308,-32.858505,114.040924,-109.305618,60.187935,24.830318,18.833735,13.84716,0.295854,-1.0,102.065491,-0.993511,2.24426,-0.075519,-1.322828
275981.925257,7.33220001,0.8264336400000001,6.2405235900000005,-0.331935,1.448237,0.348638,-30.212494,115.717087,-113.097641,60.187935,24.830318,18.833735,13.84716,0.295854,-1.0,102.065491,-0.993511,2.27669,-0.064994,-1.321504
275981.94524,7.40764872,0.37855809,6.195466260000001,-0.275541,1.378888,0.283361,-30.753708,115.718384,-112.474091,60.187935,24.830318,18.833735,13.84716,0.295854,-1.0,102.065491,-0.993511,2.307355,-0.054701,-1.32128
275981.94524,7.40764872,0.37855809,6.195466260000001,-0.275541,1.378888,0.283361,-30.753708,115.718384,-112.474091,60.187935,24.830318,18.833735,13.84716,0.295854,-1.0,102.065491,-0.993511,2.307355,-0.054701,-1.32128
275981.985207,6.27211179,0.51118929,6.73284825,-0.18332,1.39684,0.124672,-32.416611,114.893661,-110.994064,60.187935,24.830318,18.833735,13.84716,0.295854,-1.0,102.064171,-0.882534,2.364083,-0.038868,-1.320756
275981.985207,6.27211179,0.51118929,6.73284825,-0.18332,1.39684,0.124672,-32.416611,114.893661,-110.994064,60.187935,24.830318,18.833735,13.84716,0.295854,-1.0,102.064171,-0.882534,2.364083,-0.038868,-1.320756
275982.025173,6.55502238,0.62465175,7.164998370000001,-0.050535,1.445894,0.027265,-34.842621,114.739731,-109.572739,60.187935,24.830318,18.833735,13.84716,0.295854,-1.0,102.064171,-0.882534,2.420144,-0.029857,-1.319645
275982.025173,6.55502238,0.62465175,7.164998370000001,-0.050535,1.445894,0.027265,-34.842621,114.739731,-109.572739,60.187935,24.830318,18.833735,13.84716,0.295854,-1.0,102.064171,-0.882534,2.420144,-0.029857,-1.319645
275982.025173,6.55502238,0.62465175,7.164998370000001,-0.050535,1.445894,0.027265,-34.842621,114.739731,-109.572739,60.187935,24.830318,18.833735,13.84716,0.295854,-1.0,102.064171,-0.882534,2.420144,-0.029857,-1.319645
275982.065139,5.214260250000001,0.10733121,7.469471340000001,0.022832,1.540765,-0.038502,-37.025925,114.501617,-108.215195,60.187935,24.830318,18.833735,13.84716,0.295854,-1.0,102.064171,-0.882534,2.477923,-0.027401,-1.318908
275982.105105,5.42801034,0.54845748,7.997268960000001,0.0499,1.62137,-0.163613,-39.916061,114.302856,-106.567368,60.187935,24.830318,18.833735,13.84716,0.295854,-1.0,102.064171,-0.882534,2.539182,-0.029016,-1.317818
275982.125089,4.73495346,0.66371517,8.03498841,0.066545,1.710417,-0.180848,-40.900269,114.709351,-106.842056,60.187935,24.830318,18.833735,13.84716,0.295854,-1.0,102.064171,-0.882534,2.571192,-0.031106,-1.315883
275982.145072,4.0478806800000005,0.55983708,8.42508306,0.071521,1.812334,-0.1859,-42.567078,114.643448,-106.0336,60.187935,24.830318,18.833735,13.84716,0.295854,-1.0,102.064171,-0.882534,2.604405,-0.033869,-1.313453
275982.185038,4.32585684,0.33335360999999997,9.13804443,0.07131,1.862095,-0.328153,-46.332047,114.578659,-104.862488,60.187935,24.830318,18.833735,13.84716,0.295854,-1.0,102.064171,-0.882534,2.676407,-0.040125,-1.307796
275982.205021,3.8972971800000002,0.25147935000000005,9.27651258,0.054411,1.832796,-0.397236,-47.524719,114.879028,-104.457779,60.187935,24.830318,18.833735,13.84716,0.295854,-1.0,102.064171,-0.882534,2.713721,-0.043907,-1.303291
275982.225004,3.83532741,0.41583609000000005,9.56615283,0.038453,1.721864,-0.459658,-48.983536,115.122955,-104.588684,60.187935,24.830318,18.833735,13.84716,0.295854,-1.0,102.064171,-0.882534,2.751071,-0.047958,-1.297071
275982.244987,3.75090255,0.6515998199999999,9.72901845,0.029728,1.567559,-0.515709,-50.694153,114.994186,-104.067429,60.18793,24.830314,19.234575,13.745886,0.129585,-1.0,102.064171,-0.882534,2.787185,-0.051911,-1.289427
275982.26497,3.42802602,0.82748331,9.874814670000001,0.032108,1.458606,-0.54447,-50.694153,114.994186,-104.067429,60.18793,24.830314,19.234575,13.745886,0.129585,-1.0,102.064171,-0.882534,2.82067,-0.055772,-1.280379
275982.26497,3.42802602,0.82748331,9.874814670000001,0.032108,1.458606,-0.54447,-50.694153,114.994186,-104.067429,60.18793,24.830314,19.234575,13.745886,0.129585,-1.0,102.064171,-0.882534,2.82067,-0.055772,-1.280379
275982.304937,3.08987532,0.86520276,10.38405177,0.042409,1.277817,-0.545684,-53.749222,115.039688,-103.784027,60.18793,24.830314,19.234575,13.745886,0.129585,-1.0,102.064171,-0.882534,2.880631,-0.063204,-1.259831
275982.32492,3.13897437,1.07806014,10.52745435,0.069783,1.086798,-0.517687,-54.856873,115.301193,-104.276566,60.18793,24.830314,19.234575,13.745886,0.129585,-1.0,102.064171,-0.882534,2.908386,-0.066619,-1.24915
275982.344903,2.7930443400000002,1.3233984300000001,10.637032050000002,0.114004,0.903739,-0.480422,-55.91658,115.479889,-104.090897,60.18793,24.830314,19.234575,13.745886,0.129585,-1.0,102.064171,-0.882534,2.933016,-0.069925,-1.238833
275982.344903,2.7930443400000002,1.3233984300000001,10.637032050000002,0.114004,0.903739,-0.480422,-55.91658,115.479889,-104.090897,60.18793,24.830314,19.234575,13.745886,0.129585,-1.0,102.064171,-0.882534,2.933016,-0.069925,-1.238833
275982.344903,2.7930443400000002,1.3233984300000001,10.637032050000002,0.114004,0.903739,-0.480422,-55.91658,115.479889,-104.090897,60.18793,24.830314,19.234575,13.745886,0.129585,-1.0,102.064171,-0.882534,2.933016,-0.069925,-1.238833
275982.344903,2.7930443400000002,1.3233984300000001,10.637032050000002,0.114004,0.903739,-0.480422,-55.91658,115.479889,-104.090897,60.18793,24.830314,19.234575,13.745886,0.129585,-1.0,102.064171,-0.882534,2.933016,-0.069925,-1.238833
275982.424835,1.74671955,0.75562506,10.427912280000001,0.025314,0.292832,-0.275984,-58.773361,115.406082,-104.440704,60.18793,24.830314,19.234575,13.745886,0.129585,-1.0,102.064171,-0.882534,2.993937,-0.085778,-1.205758
275982.444819,1.75001571,0.85247919,10.463836500000001,-0.055849,0.228161,-0.197333,-58.637863,115.68251,-104.726181,60.18793,24.830314,19.234575,13.745886,0.129585,-1.0,102.064171,-0.882534,3.001051,-0.088029,-1.199678
275982.464802,1.793268,0.9466355700000001,10.44407916,-0.134425,0.172538,-0.095492,-59.098267,115.138428,-104.139648,60.18793,24.830314,19.234575,13.745886,0.129585,-1.0,102.064171,-0.882534,3.006857,-0.088439,-1.194747
275982.484785,1.53969912,0.77943393,10.176442740000002,-0.228276,0.171308,0.006781,-58.903381,115.380051,-104.664261,60.18793,24.830314,19.234575,13.745886,0.129585,-1.0,102.064171,-0.882534,3.011175,-0.087005,-1.191338
275982.504768,1.6341498,0.5996558700000001,10.189764720000001,-0.325131,0.161125,0.070442,-59.284424,115.003967,-104.563751,60.18793,24.830314,19.234575,13.745886,0.129585,-1.0,102.064171,-0.882534,3.014699,-0.083654,-1.189797
275982.524751,1.6271160300000003,0.50535234,10.393940250000002,-0.41124,0.167599,0.095156,-59.148758,115.038864,-104.329941,60.18793,24.830314,19.234575,13.745886,0.129585,-1.0,102.064171,-0.882534,3.018058,-0.078212,-1.189782
275982.544734,1.3638156300000002,0.55864026,10.666069649999999,-0.461382,0.218576,0.127923,-59.921356,114.34581,-103.721802,60.18793,24.830314,19.234575,13.745886,0.129585,-1.0,102.064171,-0.882534,3.021193,-0.070782,-1.190456
275982.564717,1.10350728,0.6914088,10.73552445,-0.464572,0.273252,0.185355,-59.638992,114.255188,-103.679291,60.18793,24.830314,19.234575,13.745886,0.129585,-1.0,102.064171,-0.882534,3.024841,-0.061859,-1.191486
275982.584701,0.96908085,0.75862692,10.64810754,-0.428702,0.282455,0.223742,-60.310028,113.843933,-103.735672,60.18793,24.830314,19.234575,13.745886,0.129585,-1.0,102.064171,-0.882534,3.029627,-0.052218,-1.193382
275982.604684,0.8707356,0.6974027100000001,10.480160340000001,-0.366948,0.259258,0.214342,-60.667984,113.470627,-103.888245,60.18793,24.830314,19.234575,13.745886,0.129585,-1.0,102.064171,-0.882534,3.03514,-0.042754,-1.19638
275982.624667,0.8975365200000001,0.51972399,10.44168552,-0.287919,0.223004,0.181682,-60.935303,113.410843,-103.357056,60.18793,24.830314,19.234575,13.745886,0.129585,-1.0,102.064171,-0.882534,3.040501,-0.034243,-1.199924
275982.64465,0.9650391300000001,0.27991854,10.42956036,-0.198395,0.175043,0.156764,-61.485138,112.947388,-102.671677,60.18793,24.830314,19.234575,13.745886,0.129585,-1.0,102.064171,-0.882534,3.045354,-0.027181,-1.203126
275982.64465,0.9650391300000001,0.27991854,10.42956036,-0.198395,0.175043,0.156764,-61.485138,112.947388,-102.671677,60.18793,24.830314,19.234575,13.745886,0.129585,-1.0,102.064171,-0.882534,3.045354,-0.027181,-1.203126
275982.684616,0.82507986,0.0754389,10.18347651,-0.054921,0.131731,0.129091,-61.247726,112.81897,-103.203232,60.18793,24.830314,19.234575,13.745886,0.129585,-1.0,102.064171,-0.882534,3.052446,-0.018337,-1.208478
275982.704599,0.80861868,0.17214588000000003,10.32118929,0.003706,0.157135,0.138831,-61.220139,112.890411,-103.678864,60.18793,24.830314,19.234575,13.745886,0.129585,-1.0,102.064171,-0.882534,3.055054,-0.016261,-1.210824
275982.724583,0.90890631,0.31763799,10.489440600000002,0.069862,0.170885,0.154208,-61.446655,112.856476,-103.366501,60.18793,24.830314,19.234575,13.745886,0.129585,-1.0,102.064171,-0.882534,3.05788,-0.015404,-1.213337
275982.744566,0.9307629900000001,0.31959018000000006,10.50590178,0.130029,0.172011,0.172643,-61.402756,113.024597,-103.614929,60.18793,24.830314,19.234575,13.745886,0.129585,-1.0,102.064171,-0.882534,3.061118,-0.0158,-1.21619
275982.784532,0.91624419,0.12558762,10.81980216,0.182152,0.155613,0.167323,-61.536697,113.335266,-103.550186,60.18793,24.830314,19.234575,13.745886,0.129585,-1.0,102.064171,-0.882534,3.067861,-0.020224,-1.223097
275982.784532,0.91624419,0.12558762,10.81980216,0.182152,0.155613,0.167323,-61.536697,113.335266,-103.550186,60.18793,24.830314,19.234575,13.745886,0.129585,-1.0,102.064171,-0.882534,3.067861,-0.020224,-1.223097
275982.804515,0.7821218700000001,0.16705449,10.561141890000002,0.172236,0.141641,0.158741,-61.745178,113.450424,-103.637512,60.18793,24.830314,19.234575,13.745886,0.129585,-1.0,102.064171,-0.882534,3.071098,-0.02349,-1.226668
275982.844481,0.39772683000000003,-0.00928026,9.979899390000002,0.086415,0.15895,0.139735,-61.340988,113.895767,-103.947922,60.18793,24.830314,19.234575,13.745886,0.129585,-1.0,102.064171,-0.882534,3.076838,-0.029731,-1.233339
275982.844481,0.39772683000000003,-0.00928026,9.979899390000002,0.086415,0.15895,0.139735,-61.340988,113.895767,-103.947922,60.18793,24.830314,19.234575,13.745886,0.129585,-1.0,102.064171,-0.882534,3.076838,-0.029731,-1.233339
275982.864465,0.42257556000000007,-0.06811083000000001,9.85460607,0.012875,0.150202,0.106809,-61.322235,114.008987,-103.892532,60.18793,24.830314,19.234575,13.745886,0.129585,-1.0,102.064171,-0.882534,3.079878,-0.03188,-1.236429
275982.904431,0.40954788000000003,-0.025594290000000002,9.760008240000001,-0.117705,0.122688,0.065678,-61.900665,113.813324,-103.931335,60.18793,24.830314,19.234575,13.745886,0.129585,-1.0,102.064171,-0.882534,3.085786,-0.032293,-1.240663
275982.924414,0.41553198,0.02604555,9.68186178,-0.174195,0.094061,0.045101,-61.943512,113.591888,-103.914551,60.18793,24.830314,19.234575,13.745886,0.129585,-1.0,102.064171,-0.882534,3.088379,-0.030549,-1.241964
275982.944397,0.39412656000000007,-0.04699971,9.71375409,-0.229325,0.083837,0.018562,-61.943512,113.591888,-103.914551,60.18793,24.830314,19.234575,13.745886,0.129585,-1.0,102.064171,-0.882534,3.090505,-0.027603,-1.242896
275982.944397,0.39412656000000007,-0.04699971,9.71375409,-0.229325,0.083837,0.018562,-61.943512,113.591888,-103.914551,60.18793,24.830314,19.234575,13.745886,0.129585,-1.0,102.064171,-0.882534,3.090505,-0.027603,-1.242896
275982.96438,0.4451778,0.0026977500000000005,9.7143525,-0.260673,0.074151,-0.007409,-62.319534,113.161636,-103.601334,60.18793,24.830314,19.234575,13.745886,0.129585,-1.0,102.064171,-0.882534,3.092237,-0.023548,-1.243294
275983.004347,0.21584943000000004,-0.37706697,11.30134563,-0.224062,0.131196,-0.068051,-62.428192,112.727081,-103.142181,60.18793,24.830314,19.234575,13.745886,0.129585,-1.0,102.064171,-0.882534,3.095223,-0.01325,-1.253389
275983.004347,0.21584943000000004,-0.37706697,11.30134563,-0.224062,0.131196,-0.068051,-62.428192,112.727081,-103.142181,60.18793,24.830314,19.234575,13.745886,0.129585,-1.0,102.064171,-0.882534,3.095223,-0.01325,-1.253389
275983.044313,0.22228479,0.26839179,9.83185668,-0.054321,0.35983,-0.078202,-63.250977,112.666016,-103.457626,60.18793,24.830314,19.234575,13.745886,0.129585,-1.0,102.063087,-0.792694,3.102302,-0.004076,-1.261034
275983.064296,0.44951382000000006,0.8963397000000001,10.19515041,0.032875,0.234647,-0.075951,-63.785828,112.777863,-103.749664,60.18793,24.830314,19.234575,13.745886,0.129585,-1.0,102.063087,-0.792694,3.107621,-0.002422,-1.263694
275983.084279,-0.23096664,-0.19893699,9.77661657,0.057208,0.331379,-0.064469,-64.229599,112.883636,-103.231949,60.18793,24.830314,19.234575,13.745886,0.129585,-1.0,102.063087,-0.792694,3.113621,-0.002233,-1.266747
275983.104262,0.15971661,-0.38828961,9.74967831,0.009228,0.354535,-0.056637,-64.130661,113.242218,-103.479309,60.18793,24.830314,19.234575,13.745886,0.129585,-1.0,102.063087,-0.792694,3.119649,-0.003044,-1.26966
275983.124245,0.03577707,-0.38544471,9.60971904,-0.029162,0.324751,-0.053059,-63.736618,113.189438,-103.685654,60.18793,24.830314,19.234575,13.745886,0.129585,-1.0,102.063087,-0.792694,3.126384,-0.00372,-1.273297
275983.144229,-0.18172044,-0.5234616,9.63875664,-0.080777,0.328691,-0.031783,-63.712234,112.935104,-103.567673,60.18793,24.830314,19.234575,13.745886,0.129585,-1.0,102.063087,-0.792694,3.132874,-0.003465,-1.277646
275983.164212,-0.05658408,-0.33485454,9.3967047,-0.082544,0.311675,-0.01747,-63.824707,112.854126,-103.40509,60.18793,24.830314,19.234575,13.745886,0.129585,-1.0,102.063087,-0.792694,3.139291,-0.002395,-1.282382
275983.164212,-0.05658408,-0.33485454,9.3967047,-0.082544,0.311675,-0.01747,-63.824707,112.854126,-103.40509,60.18793,24.830314,19.234575,13.745886,0.129585,-1.0,102.063087,-0.792694,3.139291,-0.002395,-1.282382
275983.164212,-0.05658408,-0.33485454,9.3967047,-0.082544,0.311675,-0.01747,-63.824707,112.854126,-103.40509,60.18793,24.830314,19.234575,13.745886,0.129585,-1.0,102.063087,-0.792694,3.139291,-0.002395,-1.282382
275983.164212,-0.05658408,-0.33485454,9.3967047,-0.082544,0.311675,-0.01747,-63.824707,112.854126,-103.40509,60.18793,24.830314,19.234575,13.745886,0.129585,-1.0,102.063087,-0.792694,3.139291,-0.002395,-1.282382
275983.164212,-0.05658408,-0.33485454,9.3967047,-0.082544,0.311675,-0.01747,-63.824707,112.854126,-103.40509,60.18793,24.830314,19.234575,13.745886,0.129585,-1.0,102.063087,-0.792694,3.139291,-0.002395,-1.282382
275983.164212,-0.05658408,-0.33485454,9.3967047,-0.082544,0.311675,-0.01747,-63.824707,112.854126,-103.40509,60.18793,24.830314,19.234575,13.745886,0.129585,-1.0,102.063087,-0.792694,3.139291,-0.002395,-1.282382
275983.164212,-0.05658408,-0.33485454,9.3967047,-0.082544,0.311675,-0.01747,-63.824707,112.854126,-103.40509,60.18793,24.830314,19.234575,13.745886,0.129585,-1.0,102.063087,-0.792694,3.139291,-0.002395,-1.282382
275983.164212,-0.05658408,-0.33485454,9.3967047,-0.082544,0.311675,-0.01747,-63.824707,112.854126,-103.40509,60.18793,24.830314,19.234575,13.745886,0.129585,-1.0,102.063087,-0.792694,3.139291,-0.002395,-1.282382
275983.164212,-0.05658408,-0.33485454,9.3967047,-0.082544,0.311675,-0.01747,-63.824707,112.854126,-103.40509,60.18793,24.830314,19.234575,13.745886,0.129585,-1.0,102.063087,-0.792694,3.139291,-0.002395,-1.282382
275983.224161,0.33978897,0.95022603,10.079137350000002,0.15697,0.254477,0.076321,-65.916946,113.036713,-103.601273,60.18793,24.830314,19.234575,13.745886,0.129585,-1.0,102.063087,-0.792694,-3.125223,-0.008114,-1.296942
275983.304094,-0.34398765000000003,0.24129657000000002,9.70626906,-0.00719,0.026771,0.056419,-67.100372,113.255539,-103.243317,60.187928,24.830313,19.431265,13.340889,0.139851,-1.0,102.063087,-0.792694,-3.11936,-0.011504,-1.315458
275983.384026,-0.62779095,0.54905589,9.708662700000001,-0.047214,-0.005462,-0.096031,-68.647537,112.451447,-103.876404,60.187928,24.830313,19.431265,13.340889,0.139851,-1.0,102.063087,-0.792694,-3.119101,-0.010006,-1.324411
275983.40401,-0.50579379,0.55608966,10.16102142,-0.059471,-0.005682,-0.105734,-68.590149,112.687424,-104.435059,60.187928,24.830313,19.431265,13.340889,0.139851,-1.0,102.063087,-0.792694,-3.118843,-0.009186,-1.323591
275983.443976,0.19250163000000003,-0.22617936000000002,9.82197801,-0.019249,-0.024971,0.081364,-67.474213,111.198914,-104.456863,60.187928,24.830313,19.431265,13.340889,0.139851,-1.0,102.063087,-0.792694,-3.118856,-0.006601,-1.32084
275983.463959,0.24189498,-0.48634056000000003,10.1746377,0.026211,0.01097,0.08916,-65.639557,110.836548,-104.655319,60.187928,24.830313,19.431265,13.340889,0.139851,-1.0,102.063087,-0.792694,-3.118945,-0.005827,-1.321475
275983.463959,0.24189498,-0.48634056000000003,10.1746377,0.026211,0.01097,0.08916,-65.639557,110.836548,-104.655319,60.187928,24.830313,19.431265,13.340889,0.139851,-1.0,102.063087,-0.792694,-3.118945,-0.005827,-1.321475
275983.503925,-0.13621185,-0.58004568,9.49924863,0.008786,-0.008184,-0.010717,-64.582413,110.718887,-104.469803,60.187928,24.830313,19.431265,13.340889,0.139851,-1.0,102.063087,-0.792694,-3.119167,-0.005951,-1.324026
275983.503925,-0.13621185,-0.58004568,9.49924863,0.008786,-0.008184,-0.010717,-64.582413,110.718887,-104.469803,60.187928,24.830313,19.431265,13.340889,0.139851,-1.0,102.063087,-0.792694,-3.119167,-0.005951,-1.324026
275983.543892,-0.12379239,-0.14729715000000002,9.755809560000001,0.003961,-0.005236,0.042228,-65.194397,111.020798,-104.859985,60.187928,24.830313,19.431265,13.340889,0.139851,-1.0,102.063087,-0.792694,-3.119155,-0.005696,-1.323133
275983.543892,-0.12379239,-0.14729715000000002,9.755809560000001,0.003961,-0.005236,0.042228,-65.194397,111.020798,-104.859985,60.187928,24.830313,19.431265,13.340889,0.139851,-1.0,102.063087,-0.792694,-3.119155,-0.005696,-1.323133
275983.563875,-0.25222491,-0.008377740000000002,9.81643536,0.007067,0.008113,0.133134,-65.376785,111.363358,-104.714325,60.187928,24.830313,19.431265,13.340889,0.139851,-1.0,102.063087,-0.792694,-3.118982,-0.005675,-1.323003
275983.603841,-0.67958775,0.3614985,9.711350640000001,0.000567,0.003243,0.070441,-65.457153,111.129745,-104.781128,60.187928,24.830313,19.431265,13.340889,0.139851,-1.0,102.063087,-0.792694,-3.11907,-0.005763,-1.32761
275983.623824,-0.81416133,0.79140213,9.815238540000001,0.016596,-0.001932,-0.040194,-65.457153,111.129745,-104.781128,60.187928,24.830313,19.431265,13.340889,0.139851,-1.0,102.063087,-0.792694,-3.119014,-0.006157,-1.330267
275983.623824,-0.81416133,0.79140213,9.815238540000001,0.016596,-0.001932,-0.040194,-65.457153,111.129745,-104.781128,60.187928,24.830313,19.431265,13.340889,0.139851,-1.0,102.063087,-0.792694,-3.119014,-0.006157,-1.330267
275983.643807,-0.3182364,0.38515041,9.787849020000001,-0.009894,-0.003193,-0.055545,-65.618591,111.243423,-105.097244,60.187928,24.830313,19.431265,13.340889,0.139851,-1.0,102.063087,-0.792694,-3.118958,-0.006259,-1.330402
275983.683774,0.19878984000000002,0.12379239,9.79413723,-0.002897,0.002491,0.021349,-65.669144,111.393204,-104.908829,60.187928,24.830313,19.431265,13.340889,0.139851,-1.0,102.063087,-0.792694,-3.119052,-0.006008,-1.328282
275983.703757,-0.16061913,-0.329616,9.69713595,-0.004623,-0.002174,0.021056,-65.017807,111.319351,-104.861923,60.187928,24.830313,19.431265,13.340889,0.139851,-1.0,102.063087,-0.792694,-3.119063,-0.005701,-1.328186
275983.703757,-0.16061913,-0.329616,9.69713595,-0.004623,-0.002174,0.021056,-65.017807,111.319351,-104.861923,60.187928,24.830313,19.431265,13.340889,0.139851,-1.0,102.063087,-0.792694,-3.119063,-0.005701,-1.328186
275983.743723,-0.49502241,-0.25147935000000005,9.78230637,0.009421,-0.004292,0.000662,-63.828598,111.682419,-104.88382,60.187928,24.830313,19.431265,13.340889,0.139851,-1.0,102.063087,-0.792694,-3.118997,-0.005532,-1.328787
275983.763706,-0.26494848000000004,-0.00509139,9.784405710000001,0.005922,0.001915,0.004668,-64.010803,112.026749,-105.188873,60.187928,24.830313,19.431265,13.340889,0.139851,-1.0,102.063087,-0.792694,-3.118973,-0.005521,-1.328736
275983.783689,-0.09355797,0.29369178,9.82107549,0.008333,-0.00274,0.004887,-65.050278,111.34761,-104.456741,60.187928,24.830313,19.431265,13.340889,0.139851,-1.0,102.063087,-0.792694,-3.119035,-0.00567,-1.328715
275983.803673,-0.19518957000000003,0.34024023,9.79009551,0.008333,-0.00274,0.004887,-64.82251,111.481674,-104.985626,60.187928,24.830313,19.431265,13.340889,0.139851,-1.0,102.063087,-0.792694,-3.119029,-0.005804,-1.328738
275983.823656,-0.18471249,0.24444558,9.77737194,-0.003246,-0.002705,0.006163,-65.019287,111.548828,-105.117828,60.187928,24.830313,19.431265,13.340889,0.139851,-1.0,102.063087,-0.792694,-3.119037,-0.005836,-1.328733
275983.823656,-0.18471249,0.24444558,9.77737194,-0.003246,-0.002705,0.006163,-65.019287,111.548828,-105.117828,60.187928,24.830313,19.431265,13.340889,0.139851,-1.0,102.063087,-0.792694,-3.119037,-0.005836,-1.328733
275983.823656,-0.18471249,0.24444558,9.77737194,-0.003246,-0.002705,0.006163,-65.019287,111.548828,-105.117828,60.187928,24.830313,19.431265,13.340889,0.139851,-1.0,102.063087,-0.792694,-3.119037,-0.005836,-1.328733
275983.863622,-0.21840003000000002,-0.14654178,9.78261048,0.002162,-7.6e-05,0.001695,-64.220612,111.807465,-105.019196,60.187928,24.830313,19.431265,13.340889,0.139851,-1.0,102.063087,-0.792694,-3.119028,-0.005694,-1.32876
275983.903588,-0.23845167,-0.038170710000000004,9.784101600000001,0.0044,-0.000514,0.002393,-64.373459,111.580658,-104.715149,60.187928,24.830313,19.431265,13.340889,0.139851,-1.0,102.063087,-0.792694,-3.119004,-0.005635,-1.328705
275983.923571,-0.21555513,0.16061913,9.78993855,0.004914,-0.000145,0.002324,-64.522324,111.558548,-105.123703,60.187928,24.830313,19.431265,13.340889,0.139851,-1.0,102.063087,-0.792694,-3.119014,-0.005682,-1.328726
275983.943555,-0.20776599,0.19295289,9.77856876,0.002447,-2.6e-05,0.004291,-64.76384,111.529984,-104.822861,60.187928,24.830313,19.431265,13.340889,0.139851,-1.0,102.063087,-0.792694,-3.119009,-0.00574,-1.328725
275983.963538,-0.20522520000000002,0.19040229,9.77751909,0.000182,-0.002295,0.004435,-64.635544,111.600067,-104.824692,60.187928,24.830313,19.431265,13.340889,0.139851,-1.0,102.063087,-0.792694,-3.119003,-0.005777,-1.328706
275983.983521,-0.22199049,0.06675705000000001,9.78500412,0.001564,3.5e-05,0.005557,-64.569275,111.613129,-105.048721,60.187928,24.830313,19.431265,13.340889,0.139851,-1.0,102.063087,-0.792694,-3.118992,-0.005758,-1.32871
275984.003504,-0.23007393000000004,-0.07724394000000001,9.78904584,0.002447,-0.000255,0.003956,-64.240402,111.976913,-105.218399,60.187928,24.830313,19.431265,13.340889,0.139851,-1.0,102.063087,-0.792694,-3.118991,-0.005708,-1.328714
275984.023487,-0.25297047,-0.07469334000000001,9.78634809,0.004771,-0.002072,0.004445,-64.106628,111.912064,-105.250092,60.187928,24.830313,19.431265,13.340889,0.139851,-1.0,102.063087,-0.792694,-3.118995,-0.005678,-1.328708
275984.063453,-0.22722903,0.10208286000000001,9.79368597,0.004115,-6.2e-05,0.003637,-64.359985,111.823166,-105.027466,60.187928,24.830313,19.431265,13.340889,0.139851,-1.0,102.063087,-0.792694,-3.119005,-0.005758,-1.328681
275984.063453,-0.22722903,0.10208286000000001,9.79368597,0.004115,-6.2e-05,0.003637,-64.359985,111.823166,-105.027466,60.187928,24.830313,19.431265,13.340889,0.139851,-1.0,102.063087,-0.792694,-3.119005,-0.005758,-1.328681
275984.10342,-0.21106215,0.11780829000000001,9.78290478,0.001714,0.000296,0.004805,-64.59433,111.708908,-104.738632,60.187928,24.830313,19.431265,13.340889,0.139851,-1.0,102.063087,-0.792694,-3.119006,-0.005826,-1.328665
275984.10342,-0.21106215,0.11780829000000001,9.78290478,0.001714,0.000296,0.004805,-64.59433,111.708908,-104.738632,60.187928,24.830313,19.431265,13.340889,0.139851,-1.0,102.063087,-0.792694,-3.119006,-0.005826,-1.328665
275984.143386,-0.23576373,-0.02110131,9.77333022,0.001682,0.000735,0.003515,-64.510818,111.757858,-104.941284,60.187928,24.830313,19.431265,13.340889,0.139851,-1.0,102.063087,-0.792694,-3.119005,-0.005759,-1.328675
275984.143386,-0.23576373,-0.02110131,9.77333022,0.001682,0.000735,0.003515,-64.510818,111.757858,-104.941284,60.187928,24.830313,19.431265,13.340889,0.139851,-1.0,102.063087,-0.792694,-3.119005,-0.005759,-1.328675
275984.143386,-0.23576373,-0.02110131,9.77333022,0.001682,0.000735,0.003515,-64.510818,111.757858,-104.941284,60.187928,24.830313,19.431265,13.340889,0.139851,-1.0,102.063087,-0.792694,-3.119005,-0.005759,-1.328675
275984.203335,-0.21720321,0.11929941000000001,9.78036399,0.002595,0.000721,0.00478,-64.307663,111.830704,-104.916031,60.187928,24.830313,19.431265,13.340889,0.139851,-1.0,102.063087,-0.792694,-3.119014,-0.005825,-1.328725
275984.223319,-0.22992678000000003,0.11256975000000001,9.791586630000001,0.002096,0.001737,0.002728,-64.479752,111.765961,-104.754028,60.187928,24.830313,19.431265,13.340889,0.139851,-1.0,102.063087,-0.792694,-3.118996,-0.005818,-1.32873
275984.223319,-0.22992678000000003,0.11256975000000001,9.791586630000001,0.002096,0.001737,0.002728,-64.479752,111.765961,-104.754028,60.187928,24.830313,19.431265,13.340889,0.139851,-1.0,102.063087,-0.792694,-3.118996,-0.005818,-1.32873
275984.263285,-0.22588506000000003,-0.00688662,9.79024266,0.002497,-0.000538,0.003168,-64.456924,111.779938,-104.93457,60.187933,24.830321,19.009005,13.276494,0.203766,-1.0,102.063087,-0.792694,-3.118988,-0.005756,-1.328729
275984.263285,-0.22588506000000003,-0.00688662,9.79024266,0.002497,-0.000538,0.003168,-64.456924,111.779938,-104.93457,60.187933,24.830321,19.009005,13.276494,0.203766,-1.0,102.063087,-0.792694,-3.118988,-0.005756,-1.328729
275984.303251,-0.23067234,0.0375723,9.77960862,0.004592,-0.001165,0.004501,-64.554947,111.770309,-104.637115,60.187933,24.830321,19.009005,13.276494,0.203766,-1.0,102.063087,-0.792694,-3.119006,-0.005787,-1.328733
275984.303251,-0.23067234,0.0375723,9.77960862,0.004592,-0.001165,0.004501,-64.554947,111.770309,-104.637115,60.187933,24.830321,19.009005,13.276494,0.203766,-1.0,102.063087,-0.792694,-3.119006,-0.005787,-1.328733
275984.343217,-0.22108797000000002,0.15433092,9.775419750000001,0.003243,0.001734,0.005066,-64.456604,111.910706,-104.75032,60.187933,24.830321,19.009005,13.276494,0.203766,-1.0,102.063087,-0.792694,-3.119014,-0.00588,-1.328739
275984.343217,-0.22108797000000002,0.15433092,9.775419750000001,0.003243,0.001734,0.005066,-64.456604,111.910706,-104.75032,60.187933,24.830321,19.009005,13.276494,0.203766,-1.0,102.063087,-0.792694,-3.119014,-0.00588,-1.328739
275984.383184,-0.21959685,0.09415638000000001,9.78290478,0.002617,0.000327,0.003746,-64.399368,111.808517,-104.855621,60.187933,24.830321,19.009005,13.276494,0.203766,-1.0,102.063087,-0.792694,-3.11899,-0.005875,-1.328762
275984.403167,-0.23486121000000001,0.03202965,9.76628664,0.002617,0.000327,0.003746,-64.849426,111.631668,-104.399307,60.187933,24.830321,19.009005,13.276494,0.203766,-1.0,102.063087,-0.792694,-3.119002,-0.005836,-1.328737
275984.403167,-0.23486121000000001,0.03202965,9.76628664,0.002617,0.000327,0.003746,-64.849426,111.631668,-104.399307,60.187933,24.830321,19.009005,13.276494,0.203766,-1.0,102.063087,-0.792694,-3.119002,-0.005836,-1.328737
275984.443133,-0.23995260000000002,-0.04909905,9.767787570000001,0.003586,-0.000478,0.001669,-64.351593,111.896317,-104.620041,60.187933,24.830321,19.009005,13.276494,0.203766,-1.0,102.063087,-0.792694,-3.119001,-0.005794,-1.328757
275984.443133,-0.23995260000000002,-0.04909905,9.767787570000001,0.003586,-0.000478,0.001669,-64.351593,111.896317,-104.620041,60.187933,24.830321,19.009005,13.276494,0.203766,-1.0,102.063087,-0.792694,-3.119001,-0.005794,-1.328757
275984.443133,-0.23995260000000002,-0.04909905,9.767787570000001,0.003586,-0.000478,0.001669,-64.351593,111.896317,-104.620041,60.187933,24.830321,19.009005,13.276494,0.203766,-1.0,102.063087,-0.792694,-3.119001,-0.005794,-1.328757
275984.503083,-0.23770611,0.16914402,9.752366250000001,-0.000617,0.000913,0.00299,-64.664734,111.722321,-104.861801,60.187933,24.830321,19.009005,13.276494,0.203766,-1.0,102.063087,-0.792694,-3.119016,-0.005879,-1.328753
275984.523066,-0.17184177000000003,0.28994436,9.79562835,-0.000617,0.000913,0.00299,-64.73555,111.676773,-104.443832,60.187933,24.830321,19.009005,13.276494,0.203766,-1.0,102.063087,-0.792694,-3.119033,-0.005924,-1.328744
275984.543049,-0.22108797000000002,0.14429529,9.793087560000002,0.003842,0.000955,0.005106,-64.565948,111.825714,-105.236755,60.187933,24.830321,19.009005,13.276494,0.203766,-1.0,102.063087,-0.792694,-3.119022,-0.00593,-1.328704
275984.543049,-0.22108797000000002,0.14429529,9.793087560000002,0.003842,0.000955,0.005106,-64.565948,111.825714,-105.236755,60.187933,24.830321,19.009005,13.276494,0.203766,-1.0,102.063087,-0.792694,-3.119022,-0.00593,-1.328704
275984.583015,-0.23605803000000003,-0.10208286000000001,9.77886306,0.004402,-0.002532,0.002685,-64.81662,111.411118,-104.531708,60.187933,24.830321,19.009005,13.276494,0.203766,-1.0,102.063087,-0.792694,-3.119034,-0.005822,-1.328683
275984.602998,-0.25282332,-0.09190989000000001,9.77826465,0.006493,0.000429,0.006183,-63.957077,111.780212,-105.31076,60.187933,24.830321,19.009005,13.276494,0.203766,-1.0,102.063087,-0.792694,-3.119035,-0.005805,-1.328643
275984.622982,-0.23920704,0.02215098,9.77018121,0.002239,-0.001552,0.008092,-64.574631,111.845352,-105.310623,60.187933,24.830321,19.009005,13.276494,0.203766,-1.0,102.063087,-0.792694,-3.119056,-0.005819,-1.328628
275984.642965,-0.22976981999999999,0.18905832000000003,9.78515127,0.004269,0.00014,0.005311,-64.856461,111.696823,-104.91774,60.187933,24.830321,19.009005,13.276494,0.203766,-1.0,102.063087,-0.792694,-3.119054,-0.005917,-1.328696
275984.662948,-0.1850166,0.21420135,9.799522920000001,0.002668,-0.000972,0.006338,-64.911743,111.428055,-104.854675,60.187933,24.830321,19.009005,13.276494,0.203766,-1.0,102.063087,-0.792694,-3.119056,-0.005971,-1.328766
275984.682931,-0.18576216000000004,0.21120930000000002,9.77871591,-0.002221,-0.003698,-0.00088,-64.876694,111.411728,-104.899551,60.187933,24.830321,19.009005,13.276494,0.203766,-1.0,102.063087,-0.792694,-3.119067,-0.005979,-1.328816
275984.702914,-0.24174783000000002,0.10972485000000001,9.77871591,-0.001311,0.000962,-0.000206,-64.582184,111.511093,-105.183182,60.187933,24.830321,19.009005,13.276494,0.203766,-1.0,102.063087,-0.792694,-3.119055,-0.005962,-1.328843
275984.722897,-0.22213764000000003,-0.07229970000000001,9.78634809,0.001523,-0.001818,0.006125,-64.343307,111.737534,-104.95079,60.187933,24.830321,19.009005,13.276494,0.203766,-1.0,102.063087,-0.792694,-3.119054,-0.005861,-1.328697
275984.742881,-0.27018702,-0.14759145,9.77302611,0.005966,0.001598,0.004254,-64.496124,111.599319,-105.036972,60.187933,24.830321,19.009005,13.276494,0.203766,-1.0,102.063087,-0.792694,-3.119073,-0.005809,-1.328674
275984.742881,-0.27018702,-0.14759145,9.77302611,0.005966,0.001598,0.004254,-64.496124,111.599319,-105.036972,60.187933,24.830321,19.009005,13.276494,0.203766,-1.0,102.063087,-0.792694,-3.119073,-0.005809,-1.328674
275984.782847,-0.20881566000000001,0.06840513000000001,9.759556980000001,0.006055,0.002594,0.003806,-64.633804,111.623016,-105.055527,60.187933,24.830321,19.009005,13.276494,0.203766,-1.0,102.063087,-0.792694,-3.119058,-0.005841,-1.328711
275984.822813,-0.22318731000000003,0.17154747,9.77646942,0.003123,-0.001244,0.004678,-65.140503,111.383545,-104.640259,60.187933,24.830321,19.009005,13.276494,0.203766,-1.0,102.063087,-0.792694,-3.119045,-0.005987,-1.328717
275984.822813,-0.22318731000000003,0.17154747,9.77646942,0.003123,-0.001244,0.004678,-65.140503,111.383545,-104.640259,60.187933,24.830321,19.009005,13.276494,0.203766,-1.0,102.063087,-0.792694,-3.119045,-0.005987,-1.328717
275984.862779,-0.21255327,0.09100737,9.77467419,-0.000139,0.000804,0.001621,-64.50946,111.577942,-105.0923,60.187933,24.830321,19.009005,13.276494,0.203766,-1.0,102.063087,-0.792694,-3.119045,-0.005968,-1.328763
275984.862779,-0.21255327,0.09100737,9.77467419,-0.000139,0.000804,0.001621,-64.50946,111.577942,-105.0923,60.187933,24.830321,19.009005,13.276494,0.203766,-1.0,102.063087,-0.792694,-3.119045,-0.005968,-1.328763
275984.902746,-0.25836597,-0.10492776000000001,9.763451550000001,0.004372,0.000216,0.002234,-64.380203,111.504517,-104.966553,60.187933,24.830321,19.009005,13.276494,0.203766,-1.0,102.063087,-0.792694,-3.119044,-0.005876,-1.328672
275984.922729,-0.22304016000000002,-0.02499588,9.780815250000002,0.00538,0.000797,0.002396,-64.53035,111.409485,-104.414886,60.187933,24.830321,19.009005,13.276494,0.203766,-1.0,102.063087,-0.792694,-3.119046,-0.005878,-1.328687
275984.922729,-0.22304016000000002,-0.02499588,9.780815250000002,0.00538,0.000797,0.002396,-64.53035,111.409485,-104.414886,60.187933,24.830321,19.009005,13.276494,0.203766,-1.0,102.063087,-0.792694,-3.119046,-0.005878,-1.328687
275984.942712,-0.22438413000000001,0.09609875999999999,9.78620094,0.005564,0.00115,0.003008,-64.494659,111.623215,-104.863708,60.187933,24.830321,19.009005,13.276494,0.203766,-1.0,102.063087,-0.792694,-3.119046,-0.005921,-1.328675
275984.942712,-0.22438413000000001,0.09609875999999999,9.78620094,0.005564,0.00115,0.003008,-64.494659,111.623215,-104.863708,60.187933,24.830321,19.009005,13.276494,0.203766,-1.0,102.063087,-0.792694,-3.119046,-0.005921,-1.328675
275985.002662,-0.23081949000000002,0.045351630000000004,9.79323471,0.001091,0.000104,0.005409,-64.410507,111.828506,-105.069199,60.187933,24.830321,19.009005,13.276494,0.203766,-1.0,102.063087,-0.792694,-3.119034,-0.005955,-1.328648
275985.002662,-0.23081949000000002,0.045351630000000004,9.79323471,0.001091,0.000104,0.005409,-64.410507,111.828506,-105.069199,60.187933,24.830321,19.009005,13.276494,0.203766,-1.0,102.063087,-0.792694,-3.119034,-0.005955,-1.328648
275985.022645,-0.21959685,-0.056878380000000006,9.77482134,0.001091,0.000104,0.005409,-64.816666,111.293976,-104.651306,60.187933,24.830321,19.009005,13.276494,0.203766,-1.0,102.063087,-0.792694,-3.119023,-0.005911,-1.328663
275985.042628,-0.21914559000000003,-0.055230299999999996,9.784248750000001,0.000995,0.002251,0.005687,-64.41925,111.619019,-105.007431,60.187933,24.830321,19.009005,13.276494,0.203766,-1.0,102.063087,-0.792694,-3.119017,-0.005885,-1.328675
275985.042628,-0.21914559000000003,-0.055230299999999996,9.784248750000001,0.000995,0.002251,0.005687,-64.41925,111.619019,-105.007431,60.187933,24.830321,19.009005,13.276494,0.203766,-1.0,102.063087,-0.792694,-3.119017,-0.005885,-1.328675
275985.102577,-0.20582361000000002,0.1764819,9.79682517,0.001351,-3.2e-05,0.003902,-65.146149,111.33461,-104.723465,60.187933,24.830321,19.009005,13.276494,0.203766,-1.0,102.063087,-0.792694,-3.118983,-0.005928,-1.328684
275985.122561,-0.22917141000000002,0.11436498,9.79817895,0.001351,-3.2e-05,0.003902,-65.44725,111.068039,-104.194656,60.187933,24.830321,19.009005,13.276494,0.203766,-1.0,102.063087,-0.792694,-3.118972,-0.005928,-1.328664
275985.142544,-0.22872015,0.01212516,9.77751909,0.0022,-0.000844,0.001697,-64.265579,111.460663,-104.769714,60.187933,24.830321,19.009005,13.276494,0.203766,-1.0,102.063087,-0.792694,-3.118972,-0.005886,-1.328668
275985.142544,-0.22872015,0.01212516,9.77751909,0.0022,-0.000844,0.001697,-64.265579,111.460663,-104.769714,60.187933,24.830321,19.009005,13.276494,0.203766,-1.0,102.063087,-0.792694,-3.118972,-0.005886,-1.328668
275985.18251,-0.23785326,0.00344331,9.77632227,0.003238,-0.001017,0.005278,-64.648758,111.625214,-104.9319,60.187933,24.830321,19.009005,13.276494,0.203766,-1.0,102.063087,-0.792694,-3.11899,-0.005845,-1.328641
275985.202493,-0.22108797000000002,0.06452037000000001,9.77452704,0.002831,-0.002093,0.003506,-64.964615,111.594666,-104.666061,60.187933,24.830321,19.009005,13.276494,0.203766,-1.0,102.064003,-0.86668,-3.118998,-0.005885,-1.328645
275985.222476,-0.22153923,0.11945637,9.787397760000001,0.002457,-0.001495,0.004181,-64.621964,111.624756,-105.029556,60.187933,24.830321,19.009005,13.276494,0.203766,-1.0,102.064003,-0.86668,-3.119002,-0.005928,-1.328647
275985.222476,-0.22153923,0.11945637,9.787397760000001,0.002457,-0.001495,0.004181,-64.621964,111.624756,-105.029556,60.187933,24.830321,19.009005,13.276494,0.203766,-1.0,102.064003,-0.86668,-3.119002,-0.005928,-1.328647
275985.262443,-0.2342628,0.05927202,9.780511140000002,0.002769,7.9e-05,0.003469,-64.571091,111.553757,-105.108093,60.187932,24.830315,19.116617,14.573407,0.0,-1.0,102.064003,-0.86668,-3.119011,-0.00588,-1.328644
275985.262443,-0.2342628,0.05927202,9.780511140000002,0.002769,7.9e-05,0.003469,-64.571091,111.553757,-105.108093,60.187932,24.830315,19.116617,14.573407,0.0,-1.0,102.064003,-0.86668,-3.119011,-0.00588,-1.328644
275985.30241,-0.22632651000000004,-0.00643536,9.77781339,0.002927,0.000147,0.003801,-64.507477,111.748962,-104.868271,60.187932,24.830315,19.116617,14.573407,0.0,-1.0,102.064003,-0.86668,-3.119007,-0.005797,-1.32864
275985.322393,-0.22558095000000003,0.04266369,9.775723860000001,0.002354,0.000462,0.003604,-64.636169,111.480164,-105.047455,60.187932,24.830315,19.116617,14.573407,0.0,-1.0,102.064003,-0.86668,-3.119015,-0.005816,-1.328631
275985.342377,-0.22139208000000002,0.09220419,9.779167170000001,0.003059,-0.000902,0.00523,-64.590546,111.636841,-105.088577,60.187932,24.830315,19.116617,14.573407,0.0,-1.0,102.064003,-0.86668,-3.119031,-0.005857,-1.328608
275985.342377,-0.22139208000000002,0.09220419,9.779167170000001,0.003059,-0.000902,0.00523,-64.590546,111.636841,-105.088577,60.187932,24.830315,19.116617,14.573407,0.0,-1.0,102.064003,-0.86668,-3.119031,-0.005857,-1.328608
275985.342377,-0.22139208000000002,0.09220419,9.779167170000001,0.003059,-0.000902,0.00523,-64.590546,111.636841,-105.088577,60.187932,24.830315,19.116617,14.573407,0.0,-1.0,102.064003,-0.86668,-3.119031,-0.005857,-1.328608
275985.402326,-0.23291883000000002,0.038621970000000005,9.791135370000001,0.001803,-0.000283,0.00443,-64.665939,111.670792,-105.064819,60.187932,24.830315,19.116617,14.573407,0.0,-1.0,102.064003,-0.86668,-3.119029,-0.005824,-1.328614
275985.422309,-0.23830452000000002,0.01302768,9.772133400000001,0.005186,-0.00128,0.004992,-64.406464,111.674622,-105.252625,60.187932,24.830315,19.116617,14.573407,0.0,-1.0,102.064003,-0.86668,-3.119017,-0.005805,-1.328608
275985.422309,-0.23830452000000002,0.01302768,9.772133400000001,0.005186,-0.00128,0.004992,-64.406464,111.674622,-105.252625,60.187932,24.830315,19.116617,14.573407,0.0,-1.0,102.064003,-0.86668,-3.119017,-0.005805,-1.328608
275985.462276,-0.22467843,0.059576130000000005,9.77377167,0.003262,0.000211,0.003649,-64.850784,111.471237,-104.893768,60.187932,24.830315,19.116617,14.573407,0.0,-1.0,102.064003,-0.86668,-3.119013,-0.005829,-1.328609
275985.482259,-0.21195486000000002,0.06960195,9.78814332,0.003163,-0.00125,0.004022,-64.506424,111.679779,-105.117538,60.187932,24.830315,19.116617,14.573407,0.0,-1.0,102.064003,-0.86668,-3.119027,-0.005842,-1.328636
275985.502242,-0.22648347000000002,0.07439904,9.787692060000001,0.003218,0.000754,0.004298,-64.453278,111.630875,-105.009399,60.187932,24.830315,19.116617,14.573407,0.0,-1.0,102.064003,-0.86668,-3.119031,-0.00585,-1.328642
275985.522225,-0.21809592,0.06196977,9.795029940000001,0.002018,-0.000622,0.003395,-64.579681,111.789322,-104.732086,60.187932,24.830315,19.116617,14.573407,0.0,-1.0,102.064003,-0.86668,-3.119041,-0.005846,-1.328645
275985.542208,-0.22408002000000002,0.03831786,9.77347737,0.001562,-0.001482,0.003604,-64.870529,111.371735,-104.766586,60.187932,24.830315,19.116617,14.573407,0.0,-1.0,102.064003,-0.86668,-3.119036,-0.005841,-1.328647
275985.562191,-0.22408002000000002,0.04879494,9.77946147,0.002602,-0.001803,0.004692,-64.496124,111.700623,-104.799103,60.187932,24.830315,19.116617,14.573407,0.0,-1.0,102.064003,-0.86668,-3.119041,-0.005836,-1.328645
275985.582175,-0.22797459,0.04445892,9.77362452,0.003449,-0.000656,0.00496,-64.341232,111.728561,-105.184097,60.187932,24.830315,19.116617,14.573407,0.0,-1.0,102.064003,-0.86668,-3.119036,-0.005853,-1.328654
275985.62214,-0.21884148000000003,0.06960195,9.775272600000001,0.004673,0.000899,0.003599,-64.856506,111.557907,-104.9814,60.187932,24.830315,19.116617,14.573407,0.0,-1.0,102.064003,-0.86668,-3.119026,-0.005877,-1.328644
275985.62214,-0.21884148000000003,0.06960195,9.775272600000001,0.004673,0.000899,0.003599,-64.856506,111.557907,-104.9814,60.187932,24.830315,19.116617,14.573407,0.0,-1.0,102.064003,-0.86668,-3.119026,-0.005877,-1.328644
275985.642124,-0.22363857000000004,0.05328792,9.76404996,0.002778,-0.000588,0.00426,-64.549957,111.643921,-104.82782,60.187932,24.830315,19.116617,14.573407,0.0,-1.0,102.064003,-0.86668,-3.119023,-0.005878,-1.328657
275985.642124,-0.22363857000000004,0.05328792,9.76404996,0.002778,-0.000588,0.00426,-64.549957,111.643921,-104.82782,60.187932,24.830315,19.116617,14.573407,0.0,-1.0,102.064003,-0.86668,-3.119023,-0.005878,-1.328657
275985.702074,-0.21989115,0.03967164,9.7664436,0.002261,-0.000265,0.002279,-64.331467,111.887558,-105.106033,60.187932,24.830315,19.116617,14.573407,0.0,-1.0,102.064003,-0.86668,-3.119025,-0.005841,-1.328655
275985.702074,-0.21989115,0.03967164,9.7664436,0.002261,-0.000265,0.002279,-64.331467,111.887558,-105.106033,60.187932,24.830315,19.116617,14.573407,0.0,-1.0,102.064003,-0.86668,-3.119025,-0.005841,-1.328655
275985.74204,-0.21510387,0.06930765,9.77377167,0.003708,-0.000965,0.005532,-64.675476,111.583008,-104.543884,60.187932,24.830315,19.116617,14.573407,0.0,-1.0,102.064003,-0.86668,-3.119029,-0.005837,-1.328664
275985.74204,-0.21510387,0.06930765,9.77377167,0.003708,-0.000965,0.005532,-64.675476,111.583008,-104.543884,60.187932,24.830315,19.116617,14.573407,0.0,-1.0,102.064003,-0.86668,-3.119029,-0.005837,-1.328664
275985.782005,-0.22483539,0.045351630000000004,9.77108373,0.002065,0.001609,0.005579,-64.557785,111.593597,-104.970581,60.187932,24.830315,19.116617,14.573407,0.0,-1.0,102.064003,-0.86668,-3.119025,-0.005829,-1.328669
275985.782005,-0.22483539,0.045351630000000004,9.77108373,0.002065,0.001609,0.005579,-64.557785,111.593597,-104.970581,60.187932,24.830315,19.116617,14.573407,0.0,-1.0,102.064003,-0.86668,-3.119025,-0.005829,-1.328669
275985.782005,-0.22483539,0.045351630000000004,9.77108373,0.002065,0.001609,0.005579,-64.557785,111.593597,-104.970581,60.187932,24.830315,19.116617,14.573407,0.0,-1.0,102.064003,-0.86668,-3.119025,-0.005829,-1.328669
275985.821973,-0.2314179,0.0464013,9.77677353,0.002954,-0.000838,0.004296,-64.90358,111.393723,-104.915161,60.187932,24.830315,19.116617,14.573407,0.0,-1.0,102.064003,-0.86668,-3.119012,-0.005802,-1.32868
275985.861939,-0.21720321,0.04730382,9.7894971,0.003172,-0.000636,0.003927,-64.690628,111.691605,-104.839462,60.187932,24.830315,19.116617,14.573407,0.0,-1.0,102.064003,-0.86668,-3.11902,-0.005793,-1.328664
275985.861939,-0.21720321,0.04730382,9.7894971,0.003172,-0.000636,0.003927,-64.690628,111.691605,-104.839462,60.187932,24.830315,19.116617,14.573407,0.0,-1.0,102.064003,-0.86668,-3.11902,-0.005793,-1.328664
275985.901905,-0.21704625,0.04221243000000001,9.78605379,0.002388,0.000829,0.004094,-64.749878,111.600433,-104.620712,60.187932,24.830315,19.116617,14.573407,0.0,-1.0,102.064003,-0.86668,-3.119022,-0.005798,-1.328652
275985.921889,-0.22318731000000003,0.046107,9.77452704,0.003091,-0.001953,0.004446,-64.665527,111.639206,-105.332779,60.187932,24.830315,19.116617,14.573407,0.0,-1.0,102.064003,-0.86668,-3.119023,-0.005778,-1.328652
275985.941871,-0.21899844000000002,0.04371336,9.793087560000002,0.002834,-0.001263,0.004355,-64.563049,111.81778,-105.667191,60.187932,24.830315,19.116617,14.573407,0.0,-1.0,102.064003,-0.86668,-3.119024,-0.005781,-1.328654
275985.941871,-0.21899844000000002,0.04371336,9.793087560000002,0.002834,-0.001263,0.004355,-64.563049,111.81778,-105.667191,60.187932,24.830315,19.116617,14.573407,0.0,-1.0,102.064003,-0.86668,-3.119024,-0.005781,-1.328654
275985.941871,-0.21899844000000002,0.04371336,9.793087560000002,0.002834,-0.001263,0.004355,-64.563049,111.81778,-105.667191,60.187932,24.830315,19.116617,14.573407,0.0,-1.0,102.064003,-0.86668,-3.119024,-0.005781,-1.328654
275985.981838,-0.21031659,0.04371336,9.78829047,0.003009,0.000481,0.002833,-64.856094,111.499115,-104.837677,60.187932,24.830315,19.116617,14.573407,0.0,-1.0,102.064003,-0.86668,-3.119028,-0.005778,-1.328656
275986.021805,-0.21884148000000003,0.05643693,9.78290478,0.003497,-0.000295,0.002668,-64.701538,111.638351,-104.828781,60.187932,24.830315,19.116617,14.573407,0.0,-1.0,102.064003,-0.86668,-3.119038,-0.005758,-1.328654
275986.041788,-0.22902426,0.04056435,9.771378030000001,0.003277,0.000603,0.005722,-64.454987,111.833252,-105.298264,60.187932,24.830315,19.116617,14.573407,0.0,-1.0,102.064003,-0.86668,-3.119034,-0.005755,-1.328633
275986.061771,-0.21840003000000002,0.05223825,9.790988220000001,0.002327,-0.001179,0.003858,-64.785828,111.656265,-105.162811,60.187932,24.830315,19.116617,14.573407,0.0,-1.0,102.064003,-0.86668,-3.11903,-0.005748,-1.328648
275986.081754,-0.21240612000000003,0.04730382,9.79233219,0.001941,-0.000306,0.002643,-65.172745,111.674591,-104.728912,60.187932,24.830315,19.116617,14.573407,0.0,-1.0,102.064003,-0.86668,-3.119038,-0.00575,-1.328651
275986.101737,-0.22512969000000002,0.04939335000000001,9.77946147,0.001731,-0.000357,0.002803,-64.877411,111.60405,-105.253326,60.187932,24.830315,19.116617,14.573407,0.0,-1.0,102.064003,-0.86668,-3.11904,-0.005749,-1.328637
275986.12172,-0.22887711000000002,0.05747679,9.775871010000001,0.002905,-0.000925,0.00424,-64.730072,111.653244,-105.410324,60.187932,24.830315,19.116617,14.573407,0.0,-1.0,102.064003,-0.86668,-3.119043,-0.005749,-1.328623
275986.141704,-0.22063671,0.055534410000000006,9.780815250000002,0.00475,0.000121,0.004462,-64.604126,111.64537,-105.221222,60.187932,24.830315,19.116617,14.573407,0.0,-1.0,102.064003,-0.86668,-3.119043,-0.005733,-1.328613
275986.161687,-0.23081949000000002,0.06287229,9.78245352,0.002551,-0.000287,0.00376,-65.199463,111.324921,-104.661499,60.187932,24.830315,19.116617,14.573407,0.0,-1.0,102.064003,-0.86668,-3.119032,-0.005726,-1.328616
275986.18167,-0.22648347000000002,0.053886329999999996,9.78545538,0.00214,0.000108,0.003417,-64.631393,111.649155,-105.224045,60.187932,24.830315,19.116617,14.573407,0.0,-1.0,102.064003,-0.86668,-3.119033,-0.005718,-1.328595
275986.201653,-0.22304016000000002,0.053886329999999996,9.79398027,0.003553,-2.7e-05,0.003339,-64.755295,111.441315,-105.018875,60.187932,24.830315,19.116617,14.573407,0.0,-1.0,102.064003,-0.86668,-3.119041,-0.005709,-1.328596
275986.201653,-0.22304016000000002,0.053886329999999996,9.79398027,0.003553,-2.7e-05,0.003339,-64.755295,111.441315,-105.018875,60.187932,24.830315,19.116617,14.573407,0.0,-1.0,102.064003,-0.86668,-3.119041,-0.005709,-1.328596
275986.24162,-0.22768029,0.051198389999999996,9.791135370000001,0.004067,-0.00063,0.004336,-65.175278,111.176971,-104.560364,60.187932,24.830315,19.116617,14.872673,0.0,-1.0,102.064003,-0.86668,-3.119043,-0.005705,-1.32859
275986.24162,-0.22768029,0.051198389999999996,9.791135370000001,0.004067,-0.00063,0.004336,-65.175278,111.176971,-104.560364,60.187932,24.830315,19.116617,14.872673,0.0,-1.0,102.064003,-0.86668,-3.119043,-0.005705,-1.32859
275986.301568,-0.22572810000000001,0.05463189,9.78529842,0.003223,-0.001735,0.003881,-64.674713,111.597626,-104.756897,60.187932,24.830315,19.116617,14.872673,0.0,-1.0,102.065201,-0.967087,-3.119029,-0.005698,-1.328584
275986.301568,-0.22572810000000001,0.05463189,9.78529842,0.003223,-0.001735,0.003881,-64.674713,111.597626,-104.756897,60.187932,24.830315,19.116617,14.872673,0.0,-1.0,102.065201,-0.967087,-3.119029,-0.005698,-1.328584
275986.341535,-0.22812174000000002,0.0520911,9.780658290000002,0.002552,-0.000166,0.004057,-64.815002,111.410507,-105.043289,60.187932,24.830315,19.116617,14.872673,0.0,-1.0,102.065201,-0.967087,-3.11904,-0.005706,-1.328592
275986.341535,-0.22812174000000002,0.0520911,9.780658290000002,0.002552,-0.000166,0.004057,-64.815002,111.410507,-105.043289,60.187932,24.830315,19.116617,14.872673,0.0,-1.0,102.065201,-0.967087,-3.11904,-0.005706,-1.328592
275986.381501,-0.22153923,0.04984461,9.78245352,0.00398,0.000394,0.00453,-64.605499,111.553802,-105.026062,60.187932,24.830315,19.116617,14.872673,0.0,-1.0,102.065201,-0.967087,-3.119037,-0.005686,-1.328591
275986.381501,-0.22153923,0.04984461,9.78245352,0.00398,0.000394,0.00453,-64.605499,111.553802,-105.026062,60.187932,24.830315,19.116617,14.872673,0.0,-1.0,102.065201,-0.967087,-3.119037,-0.005686,-1.328591
275986.401484,-0.22527684,0.062116920000000006,9.791292330000001,0.00398,0.000394,0.00453,-64.774872,111.667023,-105.039749,60.187932,24.830315,19.116617,14.872673,0.0,-1.0,102.065201,-0.967087,-3.119047,-0.00568,-1.328589
275986.421467,-0.22872015,0.050590170000000004,9.775871010000001,0.002608,0.000977,0.003531,-64.85704,111.475113,-105.330978,60.187932,24.830315,19.116617,14.872673,0.0,-1.0,102.065201,-0.967087,-3.11906,-0.005683,-1.328582
275986.441451,-0.23216346000000002,0.04999176,9.79488279,0.002274,-0.000354,0.004603,-64.835739,111.277664,-104.948517,60.187932,24.830315,19.116617,14.872673,0.0,-1.0,102.065201,-0.967087,-3.119045,-0.00569,-1.328572
275986.461434,-0.21120930000000002,0.05747679,9.78215922,0.000968,-0.000131,0.004327,-64.781708,111.491791,-105.112595,60.187932,24.830315,19.116617,14.872673,0.0,-1.0,102.065201,-0.967087,-3.119039,-0.00569,-1.32857
275986.5014,-0.22438413000000001,0.045802890000000006,9.78485697,0.003683,-0.000367,0.004891,-64.615585,111.533783,-104.96759,60.187932,24.830315,19.116617,14.872673,0.0,-1.0,102.065201,-0.967087,-3.119018,-0.005685,-1.328575
275986.5014,-0.22438413000000001,0.045802890000000006,9.78485697,0.003683,-0.000367,0.004891,-64.615585,111.533783,-104.96759,60.187932,24.830315,19.116617,14.872673,0.0,-1.0,102.065201,-0.967087,-3.119018,-0.005685,-1.328575
275986.541367,-0.23366439,0.04850064,9.79368597,0.003203,0.000658,0.002244,-64.389587,111.728943,-105.057816,60.187932,24.830315,19.116617,14.872673,0.0,-1.0,102.065201,-0.967087,-3.118996,-0.005672,-1.328591
275986.541367,-0.23366439,0.04850064,9.79368597,0.003203,0.000658,0.002244,-64.389587,111.728943,-105.057816,60.187932,24.830315,19.116617,14.872673,0.0,-1.0,102.065201,-0.967087,-3.118996,-0.005672,-1.328591
275986.541367,-0.23366439,0.04850064,9.79368597,0.003203,0.000658,0.002244,-64.389587,111.728943,-105.057816,60.187932,24.830315,19.116617,14.872673,0.0,-1.0,102.065201,-0.967087,-3.118996,-0.005672,-1.328591
275986.581333,-0.22692492,0.044007660000000004,9.78185511,0.003793,-0.000281,0.004861,-64.791473,111.711594,-105.093323,60.187932,24.830315,19.116617,14.872673,0.0,-1.0,102.065201,-0.967087,-3.118986,-0.005678,-1.328602
275986.581333,-0.22692492,0.044007660000000004,9.78185511,0.003793,-0.000281,0.004861,-64.791473,111.711594,-105.093323,60.187932,24.830315,19.116617,14.872673,0.0,-1.0,102.065201,-0.967087,-3.118986,-0.005678,-1.328602
275986.621299,-0.21450546,0.06735546,9.79038981,0.003642,-0.001328,0.005549,-64.83844,111.440536,-105.008255,60.187932,24.830315,19.116617,14.872673,0.0,-1.0,102.065201,-0.967087,-3.118973,-0.005678,-1.328595
275986.661266,-0.22063671,0.05703534,9.780658290000002,0.003831,-0.002196,0.004234,-64.725906,111.661697,-105.076111,60.187932,24.830315,19.116617,14.872673,0.0,-1.0,102.065201,-0.967087,-3.118978,-0.005667,-1.328591
275986.661266,-0.22063671,0.05703534,9.780658290000002,0.003831,-0.002196,0.004234,-64.725906,111.661697,-105.076111,60.187932,24.830315,19.116617,14.872673,0.0,-1.0,102.065201,-0.967087,-3.118978,-0.005667,-1.328591
275986.701232,-0.22632651000000004,0.04879494,9.77108373,0.004,-0.001004,0.004768,-65.104004,111.419724,-104.874817,60.187932,24.830315,19.116617,14.872673,0.0,-1.0,102.065201,-0.967087,-3.118965,-0.005663,-1.328593
275986.721215,-0.23246757,0.053592030000000006,9.760008240000001,0.003141,-0.000281,0.004586,-64.822998,111.632736,-105.379532,60.187932,24.830315,19.116617,14.872673,0.0,-1.0,102.065201,-0.967087,-3.11896,-0.005664,-1.328588
275986.741198,-0.23127075,0.0580752,9.752366250000001,0.0032,-0.000554,0.002826,-64.741028,111.668457,-105.360672,60.187932,24.830315,19.116617,14.872673,0.0,-1.0,102.065201,-0.967087,-3.118966,-0.005668,-1.328593
275986.741198,-0.23127075,0.0580752,9.752366250000001,0.0032,-0.000554,0.002826,-64.741028,111.668457,-105.360672,60.187932,24.830315,19.116617,14.872673,0.0,-1.0,102.065201,-0.967087,-3.118966,-0.005668,-1.328593
275986.781165,-0.22467843,0.04909905,9.756260820000001,0.003759,-0.000489,0.003498,-65.112442,111.383926,-104.983871,60.187932,24.830315,19.116617,14.872673,0.0,-1.0,102.065201,-0.967087,-3.118968,-0.005685,-1.328594
275986.781165,-0.22467843,0.04909905,9.756260820000001,0.003759,-0.000489,0.003498,-65.112442,111.383926,-104.983871,60.187932,24.830315,19.116617,14.872673,0.0,-1.0,102.065201,-0.967087,-3.118968,-0.005685,-1.328594
275986.821131,-0.2282787,0.049697460000000006,9.80985285,0.002702,-0.000785,0.004191,-64.680969,111.666565,-105.402924,60.187932,24.830315,19.116617,14.872673,0.0,-1.0,102.065201,-0.967087,-3.118944,-0.005696,-1.328601
275986.821131,-0.2282787,0.049697460000000006,9.80985285,0.002702,-0.000785,0.004191,-64.680969,111.666565,-105.402924,60.187932,24.830315,19.116617,14.872673,0.0,-1.0,102.065201,-0.967087,-3.118944,-0.005696,-1.328601
275986.841114,-0.22423698,0.05732964000000001,9.79817895,0.002637,-0.001156,0.00274,-64.681885,111.663422,-105.274307,60.187932,24.830315,19.116617,14.872673,0.0,-1.0,102.065201,-0.967087,-3.118949,-0.005708,-1.32861
275986.841114,-0.22423698,0.05732964000000001,9.79817895,0.002637,-0.001156,0.00274,-64.681885,111.663422,-105.274307,60.187932,24.830315,19.116617,14.872673,0.0,-1.0,102.065201,-0.967087,-3.118949,-0.005708,-1.32861
275986.901064,-0.22139208000000002,0.05223825,9.79084107,0.002535,-0.000246,0.001732,-64.904495,111.433334,-105.154709,60.187932,24.830315,19.116617,14.872673,0.0,-1.0,102.065201,-0.967087,-3.118957,-0.005713,-1.328609
275986.921047,-0.22543380000000002,0.053886329999999996,9.80281908,0.002396,-2.8e-05,0.003681,-64.598511,111.871948,-105.748566,60.187932,24.830315,19.116617,14.872673,0.0,-1.0,102.065201,-0.967087,-3.118952,-0.005706,-1.328592
275986.94103,-0.22244175000000002,0.0580752,9.78110955,0.002132,-0.000112,0.003205,-64.853287,111.522491,-104.872986,60.187932,24.830315,19.116617,14.872673,0.0,-1.0,102.065201,-0.967087,-3.118945,-0.005705,-1.328574
275986.94103,-0.22244175000000002,0.0580752,9.78110955,0.002132,-0.000112,0.003205,-64.853287,111.522491,-104.872986,60.187932,24.830315,19.116617,14.872673,0.0,-1.0,102.065201,-0.967087,-3.118945,-0.005705,-1.328574
275986.980997,-0.22123512,0.040711500000000005,9.780815250000002,0.001542,-0.00081,0.004878,-64.469543,111.586792,-105.557251,60.187932,24.830315,19.116617,14.872673,0.0,-1.0,102.065201,-0.967087,-3.118938,-0.005708,-1.328582
275987.00098,-0.21764466000000002,0.055083150000000004,9.76913154,0.003581,-0.000678,0.003898,-64.815613,111.552887,-105.411346,60.187932,24.830315,19.116617,14.872673,0.0,-1.0,102.065201,-0.967087,-3.11893,-0.0057,-1.328581
275987.020963,-0.23395869,0.05478885,9.78529842,0.003796,-0.000361,0.00365,-64.822708,111.50206,-105.839462,60.187932,24.830315,19.116617,14.872673,0.0,-1.0,102.065201,-0.967087,-3.118917,-0.005694,-1.328588
275987.040946,-0.22708187999999999,0.046107,9.779010210000001,0.004768,-0.000786,0.00525,-64.822708,111.50206,-105.839462,60.187932,24.830315,19.116617,14.872673,0.0,-1.0,102.065201,-0.967087,-3.118912,-0.005698,-1.328578
275987.06093,-0.24160068,0.04235958,9.77452704,0.004228,0.000846,0.003361,-64.853241,111.235428,-105.270203,60.187932,24.830315,19.116617,14.872673,0.0,-1.0,102.065201,-0.967087,-3.11892,-0.005699,-1.328577
275987.080913,-0.22603221,0.057633750000000004,9.78036399,0.003423,0.000838,0.004163,-64.753799,111.501129,-105.461304,60.187932,24.830315,19.116617,14.872673,0.0,-1.0,102.065201,-0.967087,-3.118911,-0.005695,-1.328582
275987.100896,-0.22094082,0.06511878,9.78335604,0.003059,-0.000988,0.003729,-64.467606,111.713684,-105.513947,60.187932,24.830315,19.116617,14.872673,0.0,-1.0,102.065201,-0.967087,-3.118904,-0.005703,-1.328582
275987.140862,-0.23935419000000002,0.05268951,9.755809560000001,0.001983,-0.000791,0.00539,-64.970352,111.48732,-105.250702,60.187932,24.830315,19.116617,14.872673,0.0,-1.0,102.065201,-0.967087,-3.11891,-0.00569,-1.328604
275987.140862,-0.23935419000000002,0.05268951,9.755809560000001,0.001983,-0.000791,0.00539,-64.970352,111.48732,-105.250702,60.187932,24.830315,19.116617,14.872673,0.0,-1.0,102.065201,-0.967087,-3.11891,-0.00569,-1.328604
275987.140862,-0.23935419000000002,0.05268951,9.755809560000001,0.001983,-0.000791,0.00539,-64.970352,111.48732,-105.250702,60.187932,24.830315,19.116617,14.872673,0.0,-1.0,102.065201,-0.967087,-3.11891,-0.00569,-1.328604
275987.180829,-0.21271023000000003,0.04565574000000001,9.78859458,0.002839,0.001451,0.004287,-64.573853,111.800629,-105.542709,60.187932,24.830315,19.116617,14.872673,0.0,-1.0,102.065201,-0.967087,-3.118908,-0.005684,-1.328617
275987.220795,-0.22228479,0.057633750000000004,9.81194238,0.003163,5.6e-05,0.003278,-64.87616,111.532028,-105.333679,60.187932,24.830315,19.116617,14.872673,0.0,-1.0,102.065201,-0.967087,-3.118896,-0.005669,-1.328608
275987.220795,-0.22228479,0.057633750000000004,9.81194238,0.003163,5.6e-05,0.003278,-64.87616,111.532028,-105.333679,60.187932,24.830315,19.116617,14.872673,0.0,-1.0,102.065201,-0.967087,-3.118896,-0.005669,-1.328608
275987.240778,-0.22153923,0.04775508,9.80026848,0.00448,0.0007,0.003052,-64.745972,111.42485,-105.41478,60.187932,24.830315,19.116617,15.071009,0.0,-1.0,102.065201,-0.967087,-3.118892,-0.005658,-1.328613
275987.260762,-0.22737618,0.049697460000000006,9.79189074,0.00311,-0.000198,0.002446,-64.638458,111.389648,-105.296402,60.187932,24.830315,19.116617,15.071009,0.0,-1.0,102.065201,-0.967087,-3.118892,-0.005662,-1.328627
275987.300729,-0.22692492,0.04475322,9.78589683,0.002378,0.000269,0.004435,-64.68071,111.510895,-105.193436,60.187932,24.830315,19.116617,15.071009,0.0,-1.0,102.065201,-0.967087,-3.118877,-0.005671,-1.32863
275987.300729,-0.22692492,0.04475322,9.78589683,0.002378,0.000269,0.004435,-64.68071,111.510895,-105.193436,60.187932,24.830315,19.116617,15.071009,0.0,-1.0,102.065201,-0.967087,-3.118877,-0.005671,-1.32863
275987.340695,-0.22453128,0.06436341000000001,9.780658290000002,0.003402,-0.000109,0.004162,-64.936066,111.402008,-105.201538,60.187932,24.830315,19.116617,15.071009,0.0,-1.0,102.066376,-1.067497,-3.118871,-0.00566,-1.328657
275987.360679,-0.23261472000000002,0.04999176,9.78574968,0.003584,5.2e-05,0.003638,-64.737823,111.443863,-105.143051,60.187932,24.830315,19.116617,15.071009,0.0,-1.0,102.066376,-1.067497,-3.118854,-0.005664,-1.328656
275987.360679,-0.23261472000000002,0.04999176,9.78574968,0.003584,5.2e-05,0.003638,-64.737823,111.443863,-105.143051,60.187932,24.830315,19.116617,15.071009,0.0,-1.0,102.066376,-1.067497,-3.118854,-0.005664,-1.328656
275987.400645,-0.23186916000000002,0.05074713,9.79428438,0.004295,0.001112,0.003078,-64.915558,111.361267,-104.905807,60.187932,24.830315,19.116617,15.071009,0.0,-1.0,102.066376,-1.067497,-3.118849,-0.005644,-1.328641
275987.420628,-0.22588506000000003,0.05598567000000001,9.81014715,0.002678,0.000782,0.003815,-64.826782,111.32338,-105.138184,60.187932,24.830315,19.116617,15.071009,0.0,-1.0,102.066376,-1.067497,-3.118833,-0.005638,-1.328658
275987.420628,-0.22588506000000003,0.05598567000000001,9.81014715,0.002678,0.000782,0.003815,-64.826782,111.32338,-105.138184,60.187932,24.830315,19.116617,15.071009,0.0,-1.0,102.066376,-1.067497,-3.118833,-0.005638,-1.328658
275987.440612,-0.22887711000000002,0.06601149,9.78230637,0.003197,-0.001716,0.004642,-64.7901,111.269455,-105.202515,60.187932,24.830315,19.116617,15.071009,0.0,-1.0,102.066376,-1.067497,-3.118826,-0.005638,-1.328661
275987.440612,-0.22887711000000002,0.06601149,9.78230637,0.003197,-0.001716,0.004642,-64.7901,111.269455,-105.202515,60.187932,24.830315,19.116617,15.071009,0.0,-1.0,102.066376,-1.067497,-3.118826,-0.005638,-1.328661
275987.480578,-0.23411565,0.05673123,9.77991273,0.00033,0.00088,0.003659,-65.018158,111.461166,-105.178589,60.187932,24.830315,19.116617,15.071009,0.0,-1.0,102.066376,-1.067497,-3.118836,-0.005613,-1.32866
275987.520544,-0.23007393000000004,0.04190832,9.77946147,0.001894,-0.000243,0.003356,-64.570526,111.662781,-105.528717,60.187932,24.830315,19.116617,15.071009,0.0,-1.0,102.066376,-1.067497,-3.11883,-0.005599,-1.328649
275987.540528,-0.23261472000000002,0.045204480000000005,9.78201207,0.001279,-0.00135,0.005569,-64.938507,111.365112,-105.204483,60.187932,24.830315,19.116617,15.071009,0.0,-1.0,102.066376,-1.067497,-3.118828,-0.005594,-1.328653
275987.540528,-0.23261472000000002,0.045204480000000005,9.78201207,0.001279,-0.00135,0.005569,-64.938507,111.365112,-105.204483,60.187932,24.830315,19.116617,15.071009,0.0,-1.0,102.066376,-1.067497,-3.118828,-0.005594,-1.328653
275987.580494,-0.23381154,0.04819653,9.79712928,0.002771,0.001685,0.003953,-64.970398,111.471924,-105.039444,60.187932,24.830315,19.116617,15.071009,0.0,-1.0,102.066376,-1.067497,-3.118812,-0.005577,-1.328657
275987.580494,-0.23381154,0.04819653,9.79712928,0.002771,0.001685,0.003953,-64.970398,111.471924,-105.039444,60.187932,24.830315,19.116617,15.071009,0.0,-1.0,102.066376,-1.067497,-3.118812,-0.005577,-1.328657
275987.62046,-0.22887711000000002,0.06002739000000001,9.811343970000001,0.002091,0.000852,0.003683,-64.664383,111.521912,-105.505219,60.187932,24.830315,19.116617,15.071009,0.0,-1.0,102.066376,-1.067497,-3.118801,-0.00556,-1.328666
275987.62046,-0.22887711000000002,0.06002739000000001,9.811343970000001,0.002091,0.000852,0.003683,-64.664383,111.521912,-105.505219,60.187932,24.830315,19.116617,15.071009,0.0,-1.0,102.066376,-1.067497,-3.118801,-0.00556,-1.328666
275987.660427,-0.23516532,0.034727400000000005,9.790988220000001,0.003143,-0.001542,0.004654,-65.167389,111.316589,-105.200195,60.187932,24.830315,19.116617,15.071009,0.0,-1.0,102.066376,-1.067497,-3.118787,-0.005564,-1.328658
275987.660427,-0.23516532,0.034727400000000005,9.790988220000001,0.003143,-0.001542,0.004654,-65.167389,111.316589,-105.200195,60.187932,24.830315,19.116617,15.071009,0.0,-1.0,102.066376,-1.067497,-3.118787,-0.005564,-1.328658
275987.700393,-0.22199049,0.0577809,9.76988691,0.002118,-0.000808,0.004613,-64.74469,111.580322,-105.193771,60.187932,24.830315,19.116617,15.071009,0.0,-1.0,102.066376,-1.067497,-3.118793,-0.00558,-1.328668
275987.700393,-0.22199049,0.0577809,9.76988691,0.002118,-0.000808,0.004613,-64.74469,111.580322,-105.193771,60.187932,24.830315,19.116617,15.071009,0.0,-1.0,102.066376,-1.067497,-3.118793,-0.00558,-1.328668
275987.74036,-0.22872015,0.05299362,9.76044969,0.002734,-0.002476,0.004487,-64.716827,111.527374,-105.409576,60.187932,24.830315,19.116617,15.071009,0.0,-1.0,102.066376,-1.067497,-3.1188,-0.005569,-1.328645
275987.74036,-0.22872015,0.05299362,9.76044969,0.002734,-0.002476,0.004487,-64.716827,111.527374,-105.409576,60.187932,24.830315,19.116617,15.071009,0.0,-1.0,102.066376,-1.067497,-3.1188,-0.005569,-1.328645
275987.760343,-0.22304016000000002,0.06601149,9.7667379,0.004292,-5.9e-05,0.002694,-65.114243,111.192978,-105.053772,60.187932,24.830315,19.116617,15.071009,0.0,-1.0,102.066376,-1.067497,-3.118794,-0.005561,-1.32864
275987.800309,-0.21675195,0.04685256,9.77482134,0.002368,0.00017,0.0043,-64.978424,111.425125,-105.054382,60.187932,24.830315,19.116617,15.071009,0.0,-1.0,102.066376,-1.067497,-3.118816,-0.005589,-1.328611
275987.820292,-0.2342628,0.05568156,9.78201207,0.002362,-0.001077,0.002126,-64.687057,111.702713,-105.295654,60.187932,24.830315,19.116617,15.071009,0.0,-1.0,102.066376,-1.067497,-3.118818,-0.005588,-1.328609
275987.840276,-0.22812174000000002,0.05044302,9.79802199,0.001782,0.000137,0.00278,-64.851868,111.389069,-104.993698,60.187932,24.830315,19.116617,15.071009,0.0,-1.0,102.066376,-1.067497,-3.118834,-0.005589,-1.328596
275987.860259,-0.2342628,0.04475322,9.78634809,0.002433,-0.001927,0.002864,-65.038544,111.425659,-104.866333,60.187932,24.830315,19.116617,15.071009,0.0,-1.0,102.066376,-1.067497,-3.118831,-0.005586,-1.328597
275987.880242,-0.22363857000000004,0.055083150000000004,9.793087560000002,0.003656,9.2e-05,0.004305,-64.80719,111.551727,-105.336853,60.187932,24.830315,19.116617,15.071009,0.0,-1.0,102.066376,-1.067497,-3.118831,-0.005596,-1.328601
275987.900225,-0.21135645000000003,0.041309910000000005,9.775419750000001,0.004493,-0.000169,0.004768,-64.941742,111.448746,-105.447784,60.187932,24.830315,19.116617,15.071009,0.0,-1.0,102.066376,-1.067497,-3.118835,-0.005597,-1.328605
275987.920209,-0.21899844000000002,0.058232160000000005,9.78545538,0.00188,0.000358,0.004294,-64.785782,111.485931,-105.362259,60.187932,24.830315,19.116617,15.071009,0.0,-1.0,102.066376,-1.067497,-3.118848,-0.005607,-1.328604
275987.940192,-0.23860863000000002,0.04266369,9.77871591,0.004169,-0.001167,0.005089,-65.120834,111.341324,-105.005463,60.187932,24.830315,19.116617,15.071009,0.0,-1.0,102.066376,-1.067497,-3.118846,-0.005627,-1.3286
275987.940192,-0.23860863000000002,0.04266369,9.77871591,0.004169,-0.001167,0.005089,-65.120834,111.341324,-105.005463,60.187932,24.830315,19.116617,15.071009,0.0,-1.0,102.066376,-1.067497,-3.118846,-0.005627,-1.3286
275987.980158,-0.22558095000000003,0.053739180000000004,9.779010210000001,0.003585,-0.000801,0.003922,-64.671722,111.576385,-105.401962,60.187932,24.830315,19.116617,15.071009,0.0,-1.0,102.066376,-1.067497,-3.118844,-0.005639,-1.328585
275988.020125,-0.22872015,0.05149269000000001,9.79727643,0.002072,-0.000621,0.003488,-64.756393,111.510345,-105.000168,60.187932,24.830315,19.116617,15.071009,0.0,-1.0,102.066376,-1.067497,-3.118843,-0.005632,-1.328582
275988.020125,-0.22872015,0.05149269000000001,9.79727643,0.002072,-0.000621,0.003488,-64.756393,111.510345,-105.000168,60.187932,24.830315,19.116617,15.071009,0.0,-1.0,102.066376,-1.067497,-3.118843,-0.005632,-1.328582
275988.040108,-0.22677777,0.05627997,9.787996170000001,0.004415,-0.001633,0.004593,-64.842072,111.53038,-104.981705,60.187932,24.830315,19.116617,15.071009,0.0,-1.0,102.066376,-1.067497,-3.118836,-0.005629,-1.328589
275988.040108,-0.22677777,0.05627997,9.787996170000001,0.004415,-0.001633,0.004593,-64.842072,111.53038,-104.981705,60.187932,24.830315,19.116617,15.071009,0.0,-1.0,102.066376,-1.067497,-3.118836,-0.005629,-1.328589
275988.100058,-0.22603221,0.04625415,9.78005988,0.003177,-0.000342,0.004493,-65.306686,111.346954,-104.65416,60.187932,24.830315,19.116617,15.071009,0.0,-1.0,102.066376,-1.067497,-3.118822,-0.005633,-1.328574
275988.100058,-0.22603221,0.04625415,9.78005988,0.003177,-0.000342,0.004493,-65.306686,111.346954,-104.65416,60.187932,24.830315,19.116617,15.071009,0.0,-1.0,102.066376,-1.067497,-3.118822,-0.005633,-1.328574
275988.140024,-0.21869433000000002,0.04699971,9.77632227,0.002963,0.000978,0.003601,-64.853378,111.481934,-105.077896,60.187932,24.830315,19.116617,15.071009,0.0,-1.0,102.066376,-1.067497,-3.118813,-0.005637,-1.328585
275988.140024,-0.21869433000000002,0.04699971,9.77632227,0.002963,0.000978,0.003601,-64.853378,111.481934,-105.077896,60.187932,24.830315,19.116617,15.071009,0.0,-1.0,102.066376,-1.067497,-3.118813,-0.005637,-1.328585
275988.17999,-0.21764466000000002,0.05029587,9.772280550000001,0.000515,0.000876,0.003626,-64.608658,111.733749,-105.169083,60.187932,24.830315,19.116617,15.071009,0.0,-1.0,102.066376,-1.067497,-3.118819,-0.005627,-1.328604
275988.199974,-0.21884148000000003,0.05223825,9.783954450000001,0.002363,-0.000763,0.003151,-64.997086,111.360001,-104.821243,60.187932,24.830315,19.116617,15.071009,0.0,-1.0,102.066376,-1.067497,-3.118817,-0.005622,-1.328616
275988.199974,-0.21884148000000003,0.05223825,9.783954450000001,0.002363,-0.000763,0.003151,-64.997086,111.360001,-104.821243,60.187932,24.830315,19.116617,15.071009,0.0,-1.0,102.066376,-1.067497,-3.118817,-0.005622,-1.328616
275988.219957,-0.24160068,0.06002739000000001,9.78230637,0.002903,-4.1e-05,0.005506,-64.523849,111.643784,-105.474518,60.187932,24.830315,19.116617,15.071009,0.0,-1.0,102.066376,-1.067497,-3.118813,-0.005607,-1.32862
275988.259923,-0.22467843,0.05598567000000001,9.77976558,0.002684,-0.001572,0.004356,-64.486374,111.653915,-105.781143,60.187932,24.830315,19.116617,14.899973,0.0,-1.0,102.066376,-1.067497,-3.118808,-0.005595,-1.328621
275988.259923,-0.22467843,0.05598567000000001,9.77976558,0.002684,-0.001572,0.004356,-64.486374,111.653915,-105.781143,60.187932,24.830315,19.116617,14.899973,0.0,-1.0,102.066376,-1.067497,-3.118808,-0.005595,-1.328621
275988.29989,-0.2282787,0.040711500000000005,9.78141366,0.003279,-0.000228,0.003944,-64.763351,111.743744,-105.112335,60.187932,24.830315,19.116617,14.899973,0.0,-1.0,102.066376,-1.067497,-3.118793,-0.005591,-1.328627
275988.319873,-0.22677777,0.05658408,9.77991273,0.003205,0.001936,0.003405,-64.5401,111.668625,-105.512756,60.187932,24.830315,19.116617,14.899973,0.0,-1.0,102.066376,-1.067497,-3.118778,-0.005597,-1.328628
275988.339856,-0.22467843,0.0691605,9.77661657,0.003539,7.4e-05,0.002828,-64.818939,111.520859,-105.294769,60.187932,24.830315,19.116617,14.899973,0.0,-1.0,102.066376,-1.067497,-3.118776,-0.005595,-1.328622
275988.339856,-0.22467843,0.0691605,9.77661657,0.003539,7.4e-05,0.002828,-64.818939,111.520859,-105.294769,60.187932,24.830315,19.116617,14.899973,0.0,-1.0,102.066376,-1.067497,-3.118776,-0.005595,-1.328622
275988.339856,-0.22467843,0.0691605,9.77661657,0.003539,7.4e-05,0.002828,-64.818939,111.520859,-105.294769,60.187932,24.830315,19.116617,14.899973,0.0,-1.0,102.066376,-1.067497,-3.118776,-0.005595,-1.328622
275988.399806,-0.23186916000000002,0.054484740000000004,9.78290478,0.003857,1.7e-05,0.003102,-64.700699,111.692184,-105.274384,60.187932,24.830315,19.116617,14.899973,0.0,-1.0,102.066376,-1.067497,-3.11878,-0.005596,-1.32863
275988.419789,-0.22048956,0.05703534,9.784101600000001,0.003277,0.000647,0.003555,-64.700699,111.692184,-105.274384,60.187932,24.830315,19.116617,14.899973,0.0,-1.0,102.066376,-1.067497,-3.118773,-0.005595,-1.32864
275988.439772,-0.22558095000000003,0.04415481,9.784101600000001,0.003277,0.000647,0.003555,-64.536545,111.733414,-105.24939,60.187932,24.830315,19.116617,14.899973,0.0,-1.0,102.067596,-1.167904,-3.118769,-0.005604,-1.328637
275988.439772,-0.22558095000000003,0.04415481,9.784101600000001,0.003277,0.000647,0.003555,-64.536545,111.733414,-105.24939,60.187932,24.830315,19.116617,14.899973,0.0,-1.0,102.067596,-1.167904,-3.118769,-0.005604,-1.328637
275988.459756,-0.23261472000000002,0.04909905,9.79084107,0.005123,0.000221,0.004176,-64.6763,111.590393,-105.391373,60.187932,24.830315,19.116617,14.899973,0.0,-1.0,102.067596,-1.167904,-3.118749,-0.005599,-1.328628
275988.479739,-0.22768029,0.048353490000000006,9.787849020000001,0.003615,-0.00032,0.004343,-64.902267,111.619858,-104.807312,60.187932,24.830315,19.116617,14.899973,0.0,-1.0,102.067596,-1.167904,-3.118751,-0.005603,-1.328629
275988.499722,-0.21316148999999998,0.04355640000000001,9.78036399,0.002649,-0.000663,0.003663,-64.580887,111.666763,-105.566269,60.187932,24.830315,19.116617,14.899973,0.0,-1.0,102.067596,-1.167904,-3.118747,-0.005606,-1.328637
275988.539688,-0.22333446,0.04221243000000001,9.787849020000001,0.003819,-0.000419,0.003567,-64.590118,111.555969,-105.434387,60.187932,24.830315,19.116617,14.899973,0.0,-1.0,102.067596,-1.167904,-3.118741,-0.005597,-1.328643
275988.559672,-0.22603221,0.0663156,9.78560253,0.003067,-0.000613,0.003429,-64.91806,111.412842,-105.113022,60.187932,24.830315,19.116617,14.899973,0.0,-1.0,102.067596,-1.167904,-3.118733,-0.005597,-1.32864
275988.579655,-0.24608385000000002,0.04550859,9.77452704,0.003283,-0.000907,0.005522,-64.619064,111.594666,-105.582733,60.187932,24.830315,19.116617,14.899973,0.0,-1.0,102.067596,-1.167904,-3.118733,-0.005593,-1.328651
275988.599638,-0.22408002000000002,0.03876912,9.77302611,0.001257,-0.001529,0.004588,-64.516281,111.678177,-105.596024,60.187932,24.830315,19.116617,14.899973,0.0,-1.0,102.067596,-1.167904,-3.118734,-0.005591,-1.328651
275988.619621,-0.22304016000000002,0.048049379999999996,9.783503190000001,0.003575,-0.001172,0.00444,-64.745667,111.695175,-105.595474,60.187932,24.830315,19.116617,14.899973,0.0,-1.0,102.067596,-1.167904,-3.118724,-0.005579,-1.328674
275988.639605,-0.22768029,0.06151851,9.7983261,0.004275,0.000688,0.003257,-65.062439,111.31749,-104.855774,60.187932,24.830315,19.116617,14.899973,0.0,-1.0,102.067596,-1.167904,-3.118738,-0.005569,-1.328674
275988.639605,-0.22768029,0.06151851,9.7983261,0.004275,0.000688,0.003257,-65.062439,111.31749,-104.855774,60.187932,24.830315,19.116617,14.899973,0.0,-1.0,102.067596,-1.167904,-3.118738,-0.005569,-1.328674
275988.659588,-0.21959685,0.04460607,9.763147440000001,0.00387,-0.000109,0.004066,-64.508118,111.531097,-105.242218,60.187932,24.830315,19.116617,14.899973,0.0,-1.0,102.067596,-1.167904,-3.118739,-0.005565,-1.328675
275988.699554,-0.22768029,0.05343507,9.77960862,0.003707,-0.000445,0.003317,-64.65535,111.594635,-105.477081,60.187932,24.830315,19.116617,14.899973,0.0,-1.0,102.067596,-1.167904,-3.118704,-0.005549,-1.328691
275988.719538,-0.21854718,0.046107,9.78649524,0.001308,-0.001303,0.004119,-64.916962,111.454468,-105.242981,60.187932,24.830315,19.116617,14.899973,0.0,-1.0,102.067596,-1.167904,-3.118708,-0.005553,-1.328685
275988.739521,-0.22527684,0.04879494,9.77886306,0.002072,-0.00095,0.002796,-65.148499,111.369186,-104.576828,60.187932,24.830315,19.116617,14.899973,0.0,-1.0,102.067596,-1.167904,-3.118716,-0.005553,-1.328691
275988.759504,-0.21914559000000003,0.04759812000000001,9.76972995,0.003235,-0.00065,0.00371,-64.677261,111.56102,-105.517593,60.187932,24.830315,19.116617,14.899973,0.0,-1.0,102.067596,-1.167904,-3.118719,-0.005543,-1.328707
275988.779487,-0.21735036,0.050590170000000004,9.77737194,0.002783,-0.000325,0.003861,-64.910873,111.411301,-105.029526,60.187932,24.830315,19.116617,14.899973,0.0,-1.0,102.067596,-1.167904,-3.118731,-0.005565,-1.328712
275988.799471,-0.22333446,0.04879494,9.7866522,0.003795,0.000364,0.003198,-64.75116,111.67308,-105.452744,60.187932,24.830315,19.116617,14.899973,0.0,-1.0,102.067596,-1.167904,-3.118731,-0.005572,-1.328707
275988.819454,-0.23007393000000004,0.048049379999999996,9.780962400000002,0.004281,0.000719,0.005106,-64.962189,111.370407,-104.99057,60.187932,24.830315,19.116617,14.899973,0.0,-1.0,102.067596,-1.167904,-3.118725,-0.005581,-1.328698
275988.85942,-0.22677777,0.05613282,9.78515127,0.001621,-0.000605,0.003274,-64.649231,111.880432,-105.3862,60.187932,24.830315,19.116617,14.899973,0.0,-1.0,102.067596,-1.167904,-3.118726,-0.005585,-1.328716
275988.85942,-0.22677777,0.05613282,9.78515127,0.001621,-0.000605,0.003274,-64.649231,111.880432,-105.3862,60.187932,24.830315,19.116617,14.899973,0.0,-1.0,102.067596,-1.167904,-3.118726,-0.005585,-1.328716
275988.899387,-0.21899844000000002,0.04625415,9.78230637,0.002893,0.000279,0.003563,-65.110794,111.453201,-105.173355,60.187932,24.830315,19.116617,14.899973,0.0,-1.0,102.067596,-1.167904,-3.118746,-0.005554,-1.328725
275988.899387,-0.21899844000000002,0.04625415,9.78230637,0.002893,0.000279,0.003563,-65.110794,111.453201,-105.173355,60.187932,24.830315,19.116617,14.899973,0.0,-1.0,102.067596,-1.167904,-3.118746,-0.005554,-1.328725
275988.939353,-0.21255327,0.05283666000000001,9.78141366,0.001601,-0.001734,0.005277,-64.738815,111.588165,-105.454773,60.187932,24.830315,19.116617,14.899973,0.0,-1.0,102.067596,-1.167904,-3.118757,-0.005552,-1.328733
275988.939353,-0.21255327,0.05283666000000001,9.78141366,0.001601,-0.001734,0.005277,-64.738815,111.588165,-105.454773,60.187932,24.830315,19.116617,14.899973,0.0,-1.0,102.067596,-1.167904,-3.118757,-0.005552,-1.328733
275988.939353,-0.21255327,0.05283666000000001,9.78141366,0.001601,-0.001734,0.005277,-64.738815,111.588165,-105.454773,60.187932,24.830315,19.116617,14.899973,0.0,-1.0,102.067596,-1.167904,-3.118757,-0.005552,-1.328733
275988.999303,-0.22947552000000002,0.044007660000000004,9.7954812,0.002303,-0.000861,0.004833,-64.878036,111.627106,-105.286606,60.187932,24.830315,19.116617,14.899973,0.0,-1.0,102.067596,-1.167904,-3.118782,-0.005537,-1.328768
275989.019286,-0.22079367,0.05134554,9.783807300000001,0.002638,0.001138,0.004438,-64.611664,111.61441,-105.263107,60.187932,24.830315,19.116617,14.899973,0.0,-1.0,102.067596,-1.167904,-3.118793,-0.005535,-1.328759
275989.039269,-0.22648347000000002,0.041309910000000005,9.77797035,0.003719,0.000716,0.004059,-64.710632,111.558243,-105.585983,60.187932,24.830315,19.116617,14.899973,0.0,-1.0,102.067596,-1.167904,-3.118785,-0.005526,-1.328758
275989.059253,-0.21809592,0.029488860000000002,9.78500412,0.002302,0.000202,0.004008,-64.587219,111.695023,-105.643173,60.187932,24.830315,19.116617,14.899973,0.0,-1.0,102.067596,-1.167904,-3.118775,-0.005521,-1.328774
275989.059253,-0.21809592,0.029488860000000002,9.78500412,0.002302,0.000202,0.004008,-64.587219,111.695023,-105.643173,60.187932,24.830315,19.116617,14.899973,0.0,-1.0,102.067596,-1.167904,-3.118775,-0.005521,-1.328774
275989.099219,-0.22768029,0.05972328,9.78110955,0.003396,-0.000112,0.00376,-64.919647,111.544495,-104.944168,60.187932,24.830315,19.116617,14.899973,0.0,-1.0,102.067596,-1.167904,-3.118774,-0.005504,-1.328803
275989.099219,-0.22768029,0.05972328,9.78110955,0.003396,-0.000112,0.00376,-64.919647,111.544495,-104.944168,60.187932,24.830315,19.116617,14.899973,0.0,-1.0,102.067596,-1.167904,-3.118774,-0.005504,-1.328803
275989.139186,-0.22123512,0.04984461,9.780962400000002,0.003032,-0.000523,0.003386,-64.693604,111.457016,-105.186829,60.187932,24.830315,19.116617,14.899973,0.0,-1.0,102.067596,-1.167904,-3.118771,-0.005489,-1.328811
275989.159169,-0.20911977,0.05673123,9.77302611,0.003511,-0.000162,0.004772,-64.497742,111.469742,-105.553436,60.187932,24.830315,19.116617,14.899973,0.0,-1.0,102.067596,-1.167904,-3.118788,-0.005494,-1.328808
275989.179152,-0.22677777,0.03726819,9.78141366,0.002898,3e-05,0.004327,-64.960938,111.399063,-104.954193,60.187932,24.830315,19.116617,14.899973,0.0,-1.0,102.067596,-1.167904,-3.118784,-0.00548,-1.32881
275989.199135,-0.22543380000000002,0.05673123,9.77797035,0.00234,0.000308,0.004152,-64.492508,111.696152,-105.296112,60.187932,24.830315,19.116617,14.899973,0.0,-1.0,102.067596,-1.167904,-3.118777,-0.005481,-1.328815
275989.219119,-0.23905008000000003,0.055534410000000006,9.78529842,0.004288,0.000548,0.00345,-64.805847,111.65097,-105.232742,60.187932,24.830315,19.116617,14.899973,0.0,-1.0,102.067596,-1.167904,-3.118776,-0.005468,-1.328818
275989.239102,-0.22692492,0.046705409999999996,9.783954450000001,0.004288,0.000548,0.00345,-64.820221,111.692352,-105.279861,60.187932,24.830315,19.116617,14.891687,0.0,-1.0,102.067596,-1.167904,-3.118775,-0.005455,-1.328808
275989.239102,-0.22692492,0.046705409999999996,9.783954450000001,0.004288,0.000548,0.00345,-64.820221,111.692352,-105.279861,60.187932,24.830315,19.116617,14.891687,0.0,-1.0,102.067596,-1.167904,-3.118775,-0.005455,-1.328808
275989.259085,-0.23096664,0.04146687,9.775419750000001,0.004072,-0.000565,0.003794,-64.731552,111.456573,-105.013763,60.187932,24.830315,19.116617,14.891687,0.0,-1.0,102.067596,-1.167904,-3.118794,-0.005454,-1.328802
275989.299051,-0.22393287,0.048353490000000006,9.772133400000001,0.003298,-0.000583,0.004549,-64.507004,111.667084,-105.319229,60.187932,24.830315,19.116617,14.891687,0.0,-1.0,102.067596,-1.167904,-3.118786,-0.005436,-1.3288
275989.319034,-0.22887711000000002,0.04909905,9.77751909,0.00303,-0.000751,0.005482,-64.345322,111.7388,-105.13237,60.187932,24.830315,19.116617,14.891687,0.0,-1.0,102.067596,-1.167904,-3.118767,-0.005453,-1.328778
275989.319034,-0.22887711000000002,0.04909905,9.77751909,0.00303,-0.000751,0.005482,-64.345322,111.7388,-105.13237,60.187932,24.830315,19.116617,14.891687,0.0,-1.0,102.067596,-1.167904,-3.118767,-0.005453,-1.328778
275989.359,-0.2342628,0.04955031,9.79203789,0.004907,0.001639,0.004435,-64.945206,111.485779,-105.148712,60.187932,24.830315,19.116617,14.891687,0.0,-1.0,102.067596,-1.167904,-3.118772,-0.005447,-1.328787
275989.378984,-0.22363857000000004,0.05627997,9.78005988,0.003171,-0.000922,0.005541,-64.652893,111.638794,-105.206192,60.187932,24.830315,19.116617,14.891687,0.0,-1.0,102.067596,-1.167904,-3.118787,-0.005443,-1.328785
275989.41895,-0.24428862,0.04850064,9.793087560000002,0.002309,0.000797,0.001976,-64.82132,111.476181,-104.701355,60.187932,24.830315,19.116617,14.891687,0.0,-1.0,102.067596,-1.167904,-3.11878,-0.005421,-1.32881
275989.41895,-0.24428862,0.04850064,9.793087560000002,0.002309,0.000797,0.001976,-64.82132,111.476181,-104.701355,60.187932,24.830315,19.116617,14.891687,0.0,-1.0,102.067596,-1.167904,-3.11878,-0.005421,-1.32881
275989.458917,-0.22842585,0.04371336,9.78305193,0.001475,-0.002104,0.003753,-64.445847,111.638229,-105.24588,60.187932,24.830315,19.116617,14.891687,0.0,-1.0,102.067596,-1.167904,-3.118767,-0.005442,-1.328809
275989.458917,-0.22842585,0.04371336,9.78305193,0.001475,-0.002104,0.003753,-64.445847,111.638229,-105.24588,60.187932,24.830315,19.116617,14.891687,0.0,-1.0,102.067596,-1.167904,-3.118767,-0.005442,-1.328809
275989.498883,-0.23785326,0.05463189,9.80041563,0.003008,-0.002351,0.00469,-64.474808,111.917892,-105.47937,60.187932,24.830315,19.116617,14.891687,0.0,-1.0,102.067726,-1.178474,-3.118777,-0.005442,-1.328839
275989.498883,-0.23785326,0.05463189,9.80041563,0.003008,-0.002351,0.00469,-64.474808,111.917892,-105.47937,60.187932,24.830315,19.116617,14.891687,0.0,-1.0,102.067726,-1.178474,-3.118777,-0.005442,-1.328839
275989.518866,-0.22947552000000002,0.04311495,9.775419750000001,0.00403,-0.001162,0.005554,-64.837891,111.463837,-104.898346,60.187932,24.830315,19.116617,14.891687,0.0,-1.0,102.067726,-1.178474,-3.118787,-0.005442,-1.328841
275989.53885,-0.21420135,0.04909905,9.78605379,0.003825,-0.000203,0.003459,-64.548264,111.611313,-105.072098,60.187932,24.830315,19.116617,14.891687,0.0,-1.0,102.067726,-1.178474,-3.118783,-0.005449,-1.328844
275989.53885,-0.21420135,0.04909905,9.78605379,0.003825,-0.000203,0.003459,-64.548264,111.611313,-105.072098,60.187932,24.830315,19.116617,14.891687,0.0,-1.0,102.067726,-1.178474,-3.118783,-0.005449,-1.328844
275989.578816,-0.23815737,0.04999176,9.78679935,0.002554,-5e-05,0.003377,-64.528641,111.676285,-105.087616,60.187932,24.830315,19.116617,14.891687,0.0,-1.0,102.067726,-1.178474,-3.118775,-0.005456,-1.328855
275989.618783,-0.22348161,0.05223825,9.78574968,0.003271,0.000992,0.003646,-64.682938,111.576584,-105.053909,60.187932,24.830315,19.116617,14.891687,0.0,-1.0,102.067726,-1.178474,-3.118775,-0.00545,-1.328849
275989.618783,-0.22348161,0.05223825,9.78574968,0.003271,0.000992,0.003646,-64.682938,111.576584,-105.053909,60.187932,24.830315,19.116617,14.891687,0.0,-1.0,102.067726,-1.178474,-3.118775,-0.00545,-1.328849
275989.658749,-0.22782744000000002,0.04011309,9.784101600000001,0.001537,-0.00118,0.00322,-64.632614,111.550034,-105.256409,60.187932,24.830315,19.116617,14.891687,0.0,-1.0,102.067726,-1.178474,-3.118756,-0.00544,-1.328843
275989.658749,-0.22782744000000002,0.04011309,9.784101600000001,0.001537,-0.00118,0.00322,-64.632614,111.550034,-105.256409,60.187932,24.830315,19.116617,14.891687,0.0,-1.0,102.067726,-1.178474,-3.118756,-0.00544,-1.328843
275989.698716,-0.2311236,0.04281084,9.78290478,0.003452,-0.000604,0.003458,-64.77861,111.431549,-104.984299,60.187932,24.830315,19.116617,14.891687,0.0,-1.0,102.067726,-1.178474,-3.118761,-0.005432,-1.328847
275989.698716,-0.2311236,0.04281084,9.78290478,0.003452,-0.000604,0.003458,-64.77861,111.431549,-104.984299,60.187932,24.830315,19.116617,14.891687,0.0,-1.0,102.067726,-1.178474,-3.118761,-0.005432,-1.328847
275989.698716,-0.2311236,0.04281084,9.78290478,0.003452,-0.000604,0.003458,-64.77861,111.431549,-104.984299,60.187932,24.830315,19.116617,14.891687,0.0,-1.0,102.067726,-1.178474,-3.118761,-0.005432,-1.328847
275989.758666,-0.22992678000000003,0.04027005,9.77960862,0.002165,0.000831,0.005152,-64.798035,111.506607,-104.928497,60.187932,24.830315,19.116617,14.891687,0.0,-1.0,102.067726,-1.178474,-3.118757,-0.00544,-1.328832
275989.778649,-0.22588506000000003,0.05673123,9.77407578,0.003847,-0.001071,0.005005,-64.87352,111.313889,-104.382233,60.187932,24.830315,19.116617,14.891687,0.0,-1.0,102.067726,-1.178474,-3.118746,-0.005438,-1.328824
275989.798632,-0.22199049,0.03907323000000001,9.78245352,0.003277,-0.000302,0.003945,-64.87352,111.313889,-104.382233,60.187932,24.830315,19.116617,14.891687,0.0,-1.0,102.067726,-1.178474,-3.118736,-0.005441,-1.328817
275989.818615,-0.21884148000000003,0.059428980000000006,9.77886306,0.003476,-0.002075,0.00317,-64.826447,111.47937,-104.876053,60.187932,24.830315,19.116617,14.891687,0.0,-1.0,102.067726,-1.178474,-3.118737,-0.005437,-1.328829
275989.838599,-0.21749751,0.05478885,9.78485697,0.002822,-0.00128,0.004274,-64.608185,111.401855,-104.945297,60.187932,24.830315,19.116617,14.891687,0.0,-1.0,102.067726,-1.178474,-3.118733,-0.005455,-1.328832
275989.838599,-0.21749751,0.05478885,9.78485697,0.002822,-0.00128,0.004274,-64.608185,111.401855,-104.945297,60.187932,24.830315,19.116617,14.891687,0.0,-1.0,102.067726,-1.178474,-3.118733,-0.005455,-1.328832
275989.838599,-0.21749751,0.05478885,9.78485697,0.002822,-0.00128,0.004274,-64.608185,111.401855,-104.945297,60.187932,24.830315,19.116617,14.891687,0.0,-1.0,102.067726,-1.178474,-3.118733,-0.005455,-1.328832
275989.878565,-0.22363857000000004,0.05014872000000001,9.76508982,0.003799,-0.000127,0.003611,-64.939072,111.197403,-104.868286,60.187932,24.830315,19.116617,14.891687,0.0,-1.0,102.067726,-1.178474,-3.118732,-0.005467,-1.328834
275989.898549,-0.22079367,0.043860510000000005,9.7866522,0.003313,0.00108,0.004611,-64.532242,111.495773,-105.097778,60.187932,24.830315,19.116617,14.891687,0.0,-1.0,102.067726,-1.178474,-3.118727,-0.005467,-1.328829
275989.938515,-0.22737618,0.046107,9.78589683,0.004225,0.000244,0.003984,-64.346558,111.582977,-105.224487,60.187932,24.830315,19.116617,14.891687,0.0,-1.0,102.067726,-1.178474,-3.118713,-0.005445,-1.328824
275989.958498,-0.21465261000000002,0.04625415,9.77991273,0.003023,-0.000716,0.005497,-64.46051,111.552719,-105.137619,60.187932,24.830315,19.116617,14.891687,0.0,-1.0,102.067726,-1.178474,-3.118712,-0.005445,-1.328826
275989.978482,-0.22333446,0.05044302,9.78036399,0.001636,0.000231,0.005091,-64.962189,111.258804,-104.939453,60.187932,24.830315,19.116617,14.891687,0.0,-1.0,102.067726,-1.178474,-3.118707,-0.005446,-1.328821
275989.978482,-0.22333446,0.05044302,9.78036399,0.001636,0.000231,0.005091,-64.962189,111.258804,-104.939453,60.187932,24.830315,19.116617,14.891687,0.0,-1.0,102.067726,-1.178474,-3.118707,-0.005446,-1.328821
275990.018448,-0.22304016000000002,0.05538726,9.779167170000001,0.002502,-0.001132,0.004277,-64.55481,111.438446,-104.982559,60.187932,24.830315,19.116617,14.891687,0.0,-1.0,102.067726,-1.178474,-3.118702,-0.005422,-1.328812
275990.058415,-0.22976981999999999,0.05089428,9.77287896,0.003154,0.000585,0.002785,-64.6689,111.382019,-104.537476,60.187932,24.830315,19.116617,14.891687,0.0,-1.0,102.067726,-1.178474,-3.11871,-0.005414,-1.328832
275990.058415,-0.22976981999999999,0.05089428,9.77287896,0.003154,0.000585,0.002785,-64.6689,111.382019,-104.537476,60.187932,24.830315,19.116617,14.891687,0.0,-1.0,102.067726,-1.178474,-3.11871,-0.005414,-1.328832
275990.098381,-0.21989115,0.05463189,9.77452704,0.003798,-8.7e-05,0.00472,-64.503632,111.573639,-105.129288,60.187932,24.830315,19.116617,14.891687,0.0,-1.0,102.067726,-1.178474,-3.11869,-0.005431,-1.328821
275990.118365,-0.2282787,0.048049379999999996,9.771829290000001,0.003562,0.000235,0.002666,-64.604233,111.610641,-104.877396,60.187932,24.830315,19.116617,14.891687,0.0,-1.0,102.067726,-1.178474,-3.118703,-0.005442,-1.328842
275990.138348,-0.22603221,0.04116276,9.78170796,0.003487,-0.000243,0.005308,-65.113052,111.307281,-104.562088,60.187932,24.830315,19.116617,14.891687,0.0,-1.0,102.067726,-1.178474,-3.118698,-0.005438,-1.32885
275990.158331,-0.21959685,0.044007660000000004,9.77946147,0.003099,0.000388,0.004686,-64.664291,111.609009,-104.812988,60.187932,24.830315,19.116617,14.891687,0.0,-1.0,102.067726,-1.178474,-3.118699,-0.005426,-1.328856
275990.158331,-0.21959685,0.044007660000000004,9.77946147,0.003099,0.000388,0.004686,-64.664291,111.609009,-104.812988,60.187932,24.830315,19.116617,14.891687,0.0,-1.0,102.067726,-1.178474,-3.118699,-0.005426,-1.328856
275990.158331,-0.21959685,0.044007660000000004,9.77946147,0.003099,0.000388,0.004686,-64.664291,111.609009,-104.812988,60.187932,24.830315,19.116617,14.891687,0.0,-1.0,102.067726,-1.178474,-3.118699,-0.005426,-1.328856
275990.198298,-0.23336028,0.04371336,9.780658290000002,0.003124,-4.5e-05,0.004044,-64.5121,111.622406,-105.231155,60.187932,24.830315,19.116617,14.891687,0.0,-1.0,102.067726,-1.178474,-3.118686,-0.005422,-1.328869
275990.238264,-0.2314179,0.04984461,9.78829047,0.003075,-0.000372,0.003147,-64.810745,111.507675,-104.943863,60.187932,24.830315,19.116617,12.792213,0.0,232.692303,102.067726,-1.178474,-3.118694,-0.005421,-1.328892
275990.258247,-0.22019526000000003,0.04955031,9.78814332,0.003507,0.00083,0.0051,-64.650452,111.543289,-105.020477,60.187932,24.830315,19.116617,12.792213,0.0,232.692303,102.067726,-1.178474,-3.118678,-0.005422,-1.328893
275990.258247,-0.22019526000000003,0.04955031,9.78814332,0.003507,0.00083,0.0051,-64.650452,111.543289,-105.020477,60.187932,24.830315,19.116617,12.792213,0.0,232.692303,102.067726,-1.178474,-3.118678,-0.005422,-1.328893
275990.298215,-0.21510387,0.05163984,9.78874173,0.004022,-0.000119,0.003951,-64.681961,111.333359,-105.126984,60.187932,24.830315,19.116617,12.792213,0.0,232.692303,102.067726,-1.178474,-3.118687,-0.005409,-1.328891
275990.318198,-0.22737618,0.05044302,9.7929306,0.004342,-0.000473,0.003785,-65.144318,111.197067,-104.821213,60.187932,24.830315,19.116617,12.792213,0.0,232.692303,102.067726,-1.178474,-3.118681,-0.005416,-1.328898
275990.338182,-0.21615354000000003,0.04864779,9.79203789,0.003042,-0.00146,0.003448,-64.735367,111.551514,-105.097366,60.187932,24.830315,19.116617,12.792213,0.0,232.692303,102.067726,-1.178474,-3.118677,-0.00542,-1.328898
275990.358165,-0.23081949000000002,0.05299362,9.78201207,0.0033,-0.000468,0.004314,-64.636322,111.534607,-105.0354,60.187932,24.830315,19.116617,12.792213,0.0,232.692303,102.067726,-1.178474,-3.118692,-0.005432,-1.328898
275990.378148,-0.2225889,0.044007660000000004,9.77646942,0.003359,-0.000195,0.003514,-64.642792,111.72998,-105.300415,60.187932,24.830315,19.116617,12.792213,0.0,232.692303,102.067726,-1.178474,-3.118684,-0.00544,-1.328916
275990.39813,-0.21780162,0.05343507,9.77317326,0.003281,-0.000623,0.004309,-65.044083,111.237305,-104.869766,60.187932,24.830315,19.116617,12.792213,0.0,232.692303,102.067726,-1.178474,-3.118695,-0.005428,-1.328912
275990.418115,-0.237402,0.042065280000000004,9.78305193,0.002535,-0.000594,0.003522,-64.568024,111.499649,-105.307968,60.187932,24.830315,19.116617,12.792213,0.0,232.692303,102.067726,-1.178474,-3.118695,-0.005413,-1.328919
275990.438098,-0.22572810000000001,0.05044302,9.78649524,0.001982,-0.00043,0.004882,-64.653778,111.482452,-105.292816,60.187932,24.830315,19.116617,12.792213,0.0,232.692303,102.067726,-1.178474,-3.118698,-0.005393,-1.328913
275990.438098,-0.22572810000000001,0.05044302,9.78649524,0.001982,-0.00043,0.004882,-64.653778,111.482452,-105.292816,60.187932,24.830315,19.116617,12.792213,0.0,232.692303,102.067726,-1.178474,-3.118698,-0.005393,-1.328913
275990.438098,-0.22572810000000001,0.05044302,9.78649524,0.001982,-0.00043,0.004882,-64.653778,111.482452,-105.292816,60.187932,24.830315,19.116617,12.792213,0.0,232.692303,102.067726,-1.178474,-3.118698,-0.005393,-1.328913
275990.498048,-0.23516532,0.046548450000000005,9.7692885,0.003307,-0.000929,0.002211,-64.848022,111.286255,-105.630173,60.187932,24.830315,19.116617,12.792213,0.0,232.692303,102.067726,-1.178474,-3.118698,-0.005366,-1.328918
275990.518031,-0.2200383,0.04266369,9.78156081,0.002592,-9e-05,0.003833,-64.846725,111.426392,-105.074127,60.187932,24.830315,19.116617,12.792213,0.0,232.692303,102.067726,-1.178474,-3.1187,-0.005356,-1.328921
275990.538014,-0.22947552000000002,0.05627997,9.7812567,0.003743,-0.001091,0.004043,-64.477356,111.617493,-105.083298,60.187932,24.830315,19.116617,12.792213,0.0,232.692303,102.067726,-1.178474,-3.118707,-0.005361,-1.328913
275990.557998,-0.21943989,0.04445892,9.78574968,0.002257,-0.001916,0.003403,-64.534393,111.519638,-105.272186,60.187932,24.830315,19.116617,12.792213,0.0,232.692303,102.067726,-1.178474,-3.118704,-0.005357,-1.328923
275990.577981,-0.22273605000000002,0.045204480000000005,9.780962400000002,0.003998,-0.000166,0.003323,-64.694473,111.49028,-104.96022,60.187932,24.830315,19.116617,12.792213,0.0,232.692303,102.067848,-1.189045,-3.118714,-0.005356,-1.328912
275990.597964,-0.21345579,0.04879494,9.791586630000001,0.002952,-0.00048,0.003583,-64.591751,111.509171,-105.306793,60.187932,24.830315,19.116617,12.792213,0.0,232.692303,102.067848,-1.189045,-3.118726,-0.005339,-1.328901
275990.617948,-0.22708187999999999,0.03322647,9.78170796,0.002332,0.000442,0.003535,-64.367111,111.698059,-105.304718,60.187932,24.830315,19.116617,12.792213,0.0,232.692303,102.067848,-1.189045,-3.118725,-0.005335,-1.328892
275990.637931,-0.22677777,0.04355640000000001,9.7866522,0.003191,0.000182,0.004049,-64.718597,111.545914,-105.452225,60.187932,24.830315,19.116617,12.792213,0.0,232.692303,102.067848,-1.189045,-3.118736,-0.005336,-1.328895
275990.657914,-0.23620518,0.054190440000000006,9.78634809,0.00445,0.001307,0.003251,-64.376343,111.601089,-105.1716,60.187932,24.830315,19.116617,12.792213,0.0,232.692303,102.067848,-1.189045,-3.118738,-0.005336,-1.328885
275990.677897,-0.20013381,0.05703534,9.780815250000002,0.001917,-0.000187,0.003613,-64.911682,111.401306,-104.738968,60.187932,24.830315,19.116617,12.792213,0.0,232.692303,102.067848,-1.189045,-3.118746,-0.005338,-1.328892
275990.69788,-0.22423698,0.0520911,9.78934014,0.002796,0.00015,0.003779,-64.445053,111.695724,-105.465363,60.187932,24.830315,19.116617,12.792213,0.0,232.692303,102.067848,-1.189045,-3.118744,-0.005336,-1.328882
275990.737847,-0.23440995,0.04311495,9.775723860000001,0.002298,0.00056,0.005576,-64.532333,111.795731,-105.159454,60.187932,24.830315,19.116617,12.792213,0.0,232.692303,102.067848,-1.189045,-3.11873,-0.005319,-1.328892
275990.737847,-0.23440995,0.04311495,9.775723860000001,0.002298,0.00056,0.005576,-64.532333,111.795731,-105.159454,60.187932,24.830315,19.116617,12.792213,0.0,232.692303,102.067848,-1.189045,-3.11873,-0.005319,-1.328892
275990.737847,-0.23440995,0.04311495,9.775723860000001,0.002298,0.00056,0.005576,-64.532333,111.795731,-105.159454,60.187932,24.830315,19.116617,12.792213,0.0,232.692303,102.067848,-1.189045,-3.11873,-0.005319,-1.328892
275990.757831,-0.21840003000000002,0.04984461,9.78529842,0.003403,-0.002394,0.004732,-64.885696,111.361221,-105.257416,60.187932,24.830315,19.116617,12.792213,0.0,232.692303,102.067848,-1.189045,-3.118723,-0.005319,-1.328894
275990.817781,-0.22139208000000002,0.054484740000000004,9.79069392,0.002931,0.001582,0.003466,-64.616287,111.619522,-105.208786,60.187932,24.830315,19.116617,12.792213,0.0,232.692303,102.067848,-1.189045,-3.118727,-0.005307,-1.328894
275990.837763,-0.23036823,0.06691401,9.7784118,0.003409,0.000149,0.00356,-64.529175,111.564072,-105.178757,60.187932,24.830315,19.116617,12.792213,0.0,232.692303,102.067848,-1.189045,-3.118728,-0.005314,-1.328905
275990.857746,-0.22947552000000002,0.03951468,9.76284333,0.003017,-0.000483,0.004923,-64.837982,111.27832,-105.023529,60.187932,24.830315,19.116617,12.792213,0.0,232.692303,102.067848,-1.189045,-3.118721,-0.005302,-1.328896
275990.877731,-0.22079367,0.053739180000000004,9.77677353,0.000211,-0.000771,0.005005,-64.617752,111.534592,-105.294815,60.187932,24.830315,19.116617,12.792213,0.0,232.692303,102.067848,-1.189045,-3.118711,-0.005291,-1.32889
275990.897714,-0.22902426,0.06196977,9.78005988,0.003759,-0.000774,0.003256,-64.603806,111.523911,-105.414581,60.187932,24.830315,19.116617,12.792213,0.0,232.692303,102.067848,-1.189045,-3.118703,-0.005289,-1.32889
275990.917697,-0.22632651000000004,0.0344331,9.78874173,0.004444,-0.000385,0.0036,-64.727875,111.53624,-105.603745,60.187932,24.830315,19.116617,12.792213,0.0,232.692303,102.067848,-1.189045,-3.11871,-0.005287,-1.328887
275990.93768,-0.22378572,0.03951468,9.78245352,0.002764,0.000149,0.005996,-64.63797,111.531219,-104.938171,60.187932,24.830315,19.116617,12.792213,0.0,232.692303,102.067848,-1.189045,-3.118696,-0.005279,-1.3289
275990.957664,-0.21555513,0.06556023,9.79248915,0.003385,-0.000663,0.004094,-64.47319,111.640656,-105.4048,60.187932,24.830315,19.116617,12.792213,0.0,232.692303,102.067848,-1.189045,-3.118694,-0.00529,-1.328896
275990.977646,-0.23172201,0.03951468,9.775871010000001,0.003479,-4.7e-05,0.003877,-64.30336,111.792999,-105.266068,60.187932,24.830315,19.116617,12.792213,0.0,232.692303,102.067848,-1.189045,-3.118705,-0.005295,-1.328899
275990.997629,-0.22543380000000002,0.05343507,9.787692060000001,0.001878,0.000863,0.003352,-64.625977,111.429428,-105.224731,60.187932,24.830315,19.116617,12.792213,0.0,232.692303,102.067848,-1.189045,-3.118704,-0.005306,-1.328906
275991.017614,-0.23321313,0.04460607,9.77257485,0.001878,0.000863,0.003352,-64.699387,111.334579,-105.410034,60.187932,24.830315,19.116617,12.792213,0.0,232.692303,102.067848,-1.189045,-3.118706,-0.005298,-1.328898
275991.037597,-0.23007393000000004,0.04355640000000001,9.78500412,0.00213,-0.000116,0.004516,-64.186539,111.96228,-105.187393,60.187932,24.830315,19.116617,12.792213,0.0,232.692303,102.067848,-1.189045,-3.118704,-0.005278,-1.328912
275991.05758,-0.22663062000000003,0.05583852,9.787093650000001,0.004675,0.000376,0.00505,-64.187317,111.832382,-105.126389,60.187932,24.830315,19.116617,12.792213,0.0,232.692303,102.067848,-1.189045,-3.118703,-0.005269,-1.328909
275991.077564,-0.22228479,0.04415481,9.77991273,0.002298,-0.000247,0.00452,-64.297546,111.869537,-105.551331,60.187932,24.830315,19.116617,12.792213,0.0,232.692303,102.067848,-1.189045,-3.118704,-0.005286,-1.328912
275991.097547,-0.22423698,0.047902230000000004,9.7866522,0.003082,-0.00068,0.005225,-64.837204,111.490723,-105.164444,60.187932,24.830315,19.116617,12.792213,0.0,232.692303,102.067848,-1.189045,-3.1187,-0.005289,-1.32892
275991.11753,-0.2225889,0.04415481,9.775566900000001,0.003857,-0.001547,0.005062,-64.479446,111.843079,-105.320572,60.187932,24.830315,19.116617,12.792213,0.0,232.692303,102.067848,-1.189045,-3.118703,-0.005297,-1.328916
275991.137513,-0.23860863000000002,0.04475322,9.78844743,0.002709,-0.001074,0.003988,-64.381485,111.90834,-105.283508,60.187932,24.830315,19.116617,12.792213,0.0,232.692303,102.067848,-1.189045,-3.118707,-0.00529,-1.328919
275991.157497,-0.21225897000000002,0.04999176,9.78245352,0.002625,0.000579,0.00405,-64.381485,111.90834,-105.283508,60.187932,24.830315,19.116617,12.792213,0.0,232.692303,102.067848,-1.189045,-3.118714,-0.005289,-1.328946
275991.197463,-0.22752333,0.052395210000000005,9.775723860000001,0.002102,-0.002307,0.002741,-64.451797,111.94548,-105.495789,60.187932,24.830315,19.116617,12.792213,0.0,232.692303,102.067848,-1.189045,-3.118723,-0.005286,-1.328952
275991.217447,-0.21824307,0.055083150000000004,9.78814332,0.001668,-0.000704,0.004867,-64.605637,111.664169,-105.22049,60.187932,24.830315,19.116617,12.792213,0.0,232.692303,102.067848,-1.189045,-3.118729,-0.005275,-1.328947
275991.23743,-0.23096664,0.05852646,9.78574968,0.003221,-0.000729,0.002541,-64.130249,111.851089,-105.635757,60.187932,24.830315,19.116617,12.988765,0.0,232.692303,102.067848,-1.189045,-3.118736,-0.005277,-1.328946
275991.257413,-0.21989115,0.04146687,9.78305193,0.001533,0.000311,0.004828,-64.255844,111.734909,-105.284332,60.187932,24.830315,19.116617,12.988765,0.0,232.692303,102.067848,-1.189045,-3.118728,-0.005269,-1.328949
275991.277396,-0.21899844000000002,0.03637548,9.78634809,0.001993,-0.001766,0.003744,-64.52417,111.768784,-105.27124,60.187932,24.830315,19.116617,12.988765,0.0,232.692303,102.067848,-1.189045,-3.118721,-0.00526,-1.328933
275991.29738,-0.22692492,0.05718249,9.784248750000001,0.003873,0.001039,0.004373,-64.478546,111.8078,-105.058563,60.187932,24.830315,19.116617,12.988765,0.0,232.692303,102.067848,-1.189045,-3.118733,-0.005275,-1.328928
275991.317363,-0.22962267000000003,0.04355640000000001,9.78230637,0.004188,-0.000547,0.002834,-64.369171,111.660309,-105.107788,60.187932,24.830315,19.116617,12.988765,0.0,232.692303,102.067848,-1.189045,-3.118746,-0.005277,-1.328926
275991.337347,-0.22617936000000002,0.03876912,9.78844743,0.004953,0.000647,0.005709,-64.33046,111.501831,-105.246506,60.187932,24.830315,19.116617,12.988765,0.0,232.692303,102.067848,-1.189045,-3.118748,-0.005281,-1.328923
275991.337347,-0.22617936000000002,0.03876912,9.78844743,0.004953,0.000647,0.005709,-64.33046,111.501831,-105.246506,60.187932,24.830315,19.116617,12.988765,0.0,232.692303,102.067848,-1.189045,-3.118748,-0.005281,-1.328923
275991.337347,-0.22617936000000002,0.03876912,9.78844743,0.004953,0.000647,0.005709,-64.33046,111.501831,-105.246506,60.187932,24.830315,19.116617,12.988765,0.0,232.692303,102.067848,-1.189045,-3.118748,-0.005281,-1.328923
275991.377313,-0.21675195,0.059576130000000005,9.78230637,0.003882,-0.001697,0.002645,-64.85997,111.681381,-104.87323,60.187932,24.830315,19.116617,12.988765,0.0,232.692303,102.067848,-1.189045,-3.118747,-0.005284,-1.32893
275991.41728,-0.21135645000000003,0.04041720000000001,9.77452704,0.00288,-0.001294,0.003926,-64.485031,111.685333,-105.005585,60.187932,24.830315,19.116617,12.988765,0.0,232.692303,102.067848,-1.189045,-3.11877,-0.00527,-1.328921
275991.437263,-0.22094082,0.06571719000000001,9.79682517,0.00194,-0.001012,0.005372,-64.491913,111.848618,-105.315598,60.187932,24.830315,19.116617,12.988765,0.0,232.692303,102.067848,-1.189045,-3.118768,-0.005283,-1.328906
275991.457247,-0.22737618,0.038621970000000005,9.78859458,0.001749,-0.001201,0.004778,-64.710556,111.53772,-104.818497,60.187932,24.830315,19.116617,12.988765,0.0,232.692303,102.067848,-1.189045,-3.118767,-0.005285,-1.328908
275991.457247,-0.22737618,0.038621970000000005,9.78859458,0.001749,-0.001201,0.004778,-64.710556,111.53772,-104.818497,60.187932,24.830315,19.116617,12.988765,0.0,232.692303,102.067848,-1.189045,-3.118767,-0.005285,-1.328908
275991.497213,-0.21959685,0.045802890000000006,9.796530870000002,0.004262,0.00042,0.005999,-64.382492,111.734726,-105.528122,60.187932,24.830315,19.116617,12.988765,0.0,232.692303,102.067848,-1.189045,-3.118767,-0.005257,-1.328919
275991.53718,-0.22123512,0.0577809,9.791586630000001,0.002921,-0.000116,0.004729,-64.526047,111.635696,-105.437103,60.187932,24.830315,19.116617,12.988765,0.0,232.692303,102.067848,-1.189045,-3.118771,-0.005239,-1.328937
275991.557163,-0.23127075,0.058232160000000005,9.77317326,0.00424,-0.000107,0.003107,-65.06926,111.399521,-104.807922,60.187932,24.830315,19.116617,12.988765,0.0,232.692303,102.067848,-1.189045,-3.118774,-0.005241,-1.328938
275991.577146,-0.23201631,0.039367530000000005,9.77737194,0.001701,0.00075,0.003487,-64.748566,111.703369,-105.567978,60.187932,24.830315,19.116617,12.988765,0.0,232.692303,102.067848,-1.189045,-3.118774,-0.005251,-1.328945
275991.577146,-0.23201631,0.039367530000000005,9.77737194,0.001701,0.00075,0.003487,-64.748566,111.703369,-105.567978,60.187932,24.830315,19.116617,12.988765,0.0,232.692303,102.067848,-1.189045,-3.118774,-0.005251,-1.328945
275991.617113,-0.22976981999999999,0.05478885,9.780658290000002,0.003529,-0.000594,0.002815,-64.564926,111.722458,-105.502213,60.187932,24.830315,19.116617,12.988765,0.0,232.692303,102.067848,-1.189045,-3.118771,-0.005239,-1.328937
275991.617113,-0.22976981999999999,0.05478885,9.780658290000002,0.003529,-0.000594,0.002815,-64.564926,111.722458,-105.502213,60.187932,24.830315,19.116617,12.988765,0.0,232.692303,102.067848,-1.189045,-3.118771,-0.005239,-1.328937
275991.637096,-0.21824307,0.044007660000000004,9.772280550000001,0.00252,-0.000955,0.005119,-65.083878,111.213791,-105.032898,60.187932,24.830315,19.116617,12.988765,0.0,232.692303,102.067848,-1.189045,-3.118749,-0.005235,-1.328924
275991.637096,-0.21824307,0.044007660000000004,9.772280550000001,0.00252,-0.000955,0.005119,-65.083878,111.213791,-105.032898,60.187932,24.830315,19.116617,12.988765,0.0,232.692303,102.067848,-1.189045,-3.118749,-0.005235,-1.328924
275991.697046,-0.22887711000000002,0.04266369,9.77946147,0.003276,0.000531,0.00497,-64.698334,111.589554,-105.426025,60.187932,24.830315,19.116617,12.988765,0.0,232.692303,102.067894,-1.189045,-3.118747,-0.005245,-1.328892
275991.71703,-0.22947552000000002,0.03771945,9.79024266,0.00312,7e-06,0.002901,-64.693954,111.706635,-105.456207,60.187932,24.830315,19.116617,12.988765,0.0,232.692303,102.067894,-1.189045,-3.118742,-0.005234,-1.328899
275991.737013,-0.2282787,0.047902230000000004,9.79069392,0.003117,-0.000735,0.003919,-64.62204,111.673019,-105.183105,60.187932,24.830315,19.116617,12.988765,0.0,232.692303,102.067894,-1.189045,-3.118727,-0.005245,-1.328893
275991.756996,-0.21151341,0.051796800000000004,9.78230637,0.003058,0.000864,0.002989,-64.536133,111.563843,-105.453644,60.187932,24.830315,19.116617,12.988765,0.0,232.692303,102.067894,-1.189045,-3.118726,-0.005249,-1.328901
275991.77698,-0.23022108,0.03307932,9.78874173,0.003629,0.001845,0.004118,-64.51767,111.699875,-105.293442,60.187932,24.830315,19.116617,12.988765,0.0,232.692303,102.067894,-1.189045,-3.118721,-0.005237,-1.328906
275991.796963,-0.21899844000000002,0.055083150000000004,9.7869465,0.003059,0.000506,0.004188,-64.749527,111.532349,-104.95607,60.187932,24.830315,19.116617,12.988765,0.0,232.692303,102.067894,-1.189045,-3.118718,-0.00523,-1.328902
275991.816946,-0.22199049,0.04850064,9.78814332,0.002041,-0.000344,0.006028,-64.483368,111.681915,-105.273315,60.187932,24.830315,19.116617,12.988765,0.0,232.692303,102.067894,-1.189045,-3.118711,-0.005222,-1.328894
275991.83693,-0.23276187000000004,0.043860510000000005,9.77407578,0.003604,0.001769,0.002717,-64.483368,111.681915,-105.273315,60.187932,24.830315,19.116617,12.988765,0.0,232.692303,102.067894,-1.189045,-3.118712,-0.005222,-1.328905
275991.856913,-0.2314179,0.04879494,9.77991273,0.003207,-0.000179,0.004107,-64.597183,111.615265,-105.016068,60.187932,24.830315,19.116617,12.988765,0.0,232.692303,102.067894,-1.189045,-3.11872,-0.005217,-1.328888
275991.876896,-0.23127075,0.050590170000000004,9.79742358,0.003079,0.000425,0.005922,-64.735565,111.490311,-105.154053,60.187932,24.830315,19.116617,12.988765,0.0,232.692303,102.067894,-1.189045,-3.118703,-0.005223,-1.328889
275991.89688,-0.22887711000000002,0.05029587,9.787996170000001,0.002993,0.000711,0.002637,-64.598053,111.571899,-105.319733,60.187932,24.830315,19.116617,12.988765,0.0,232.692303,102.067894,-1.189045,-3.118706,-0.005227,-1.32889
275991.916863,-0.23381154,0.04984461,9.780815250000002,0.003218,0.001673,0.002644,-65.067245,111.367996,-104.89183,60.187932,24.830315,19.116617,12.988765,0.0,232.692303,102.067894,-1.189045,-3.118699,-0.005231,-1.328891
275991.936846,-0.22692492,0.040711500000000005,9.78844743,0.00287,5.1e-05,0.005893,-64.346771,111.893829,-105.60202,60.187932,24.830315,19.116617,12.988765,0.0,232.692303,102.067894,-1.189045,-3.118678,-0.005232,-1.328902
275991.95683,-0.22872015,0.049246200000000004,9.80026848,0.001944,-0.001784,0.003722,-64.662979,111.602341,-105.523087,60.187932,24.830315,19.116617,12.988765,0.0,232.692303,102.067894,-1.189045,-3.118668,-0.005234,-1.32892
275991.976813,-0.22872015,0.04775508,9.78215922,0.001806,-0.000685,0.004145,-64.407639,111.544464,-105.50885,60.187932,24.830315,19.116617,12.988765,0.0,232.692303,102.067894,-1.189045,-3.118677,-0.00526,-1.328944
275992.01678,-0.23052519,0.05598567000000001,9.779010210000001,0.003164,-0.001038,0.003587,-64.625748,111.696671,-105.366898,60.187932,24.830315,19.116617,12.988765,0.0,232.692303,102.067894,-1.189045,-3.118667,-0.005251,-1.328934
275992.036763,-0.23081949000000002,0.0489519,9.78874173,0.003058,0.00019,0.004828,-64.45018,111.652725,-105.343262,60.187932,24.830315,19.116617,12.988765,0.0,232.692303,102.067894,-1.189045,-3.118661,-0.005248,-1.328925
275992.056746,-0.22034241,0.04984461,9.77692068,0.003307,0.000997,0.005051,-64.55098,111.486481,-105.367523,60.187932,24.830315,19.116617,12.988765,0.0,232.692303,102.067894,-1.189045,-3.118651,-0.005238,-1.328928
275992.07673,-0.23576373,0.05223825,9.78574968,0.00336,-0.000377,0.003277,-64.683609,111.506439,-105.303116,60.187932,24.830315,19.116617,12.988765,0.0,232.692303,102.067894,-1.189045,-3.118643,-0.005238,-1.328919
275992.07673,-0.23576373,0.05223825,9.78574968,0.00336,-0.000377,0.003277,-64.683609,111.506439,-105.303116,60.187932,24.830315,19.116617,12.988765,0.0,232.692303,102.067894,-1.189045,-3.118643,-0.005238,-1.328919
275992.116696,-0.22153923,0.03652263,9.77737194,0.002858,0.000503,0.003829,-64.459473,111.486557,-105.620987,60.187932,24.830315,19.116617,12.988765,0.0,232.692303,102.067894,-1.189045,-3.118673,-0.005234,-1.328933
275992.13668,-0.22244175000000002,0.04086846000000001,9.774968490000001,0.003444,-0.001437,0.00336,-64.476974,111.590378,-105.441162,60.187932,24.830315,19.116617,12.988765,0.0,232.692303,102.067894,-1.189045,-3.118677,-0.005234,-1.328931
275992.156663,-0.22543380000000002,0.05627997,9.77467419,0.003239,-0.00056,0.002713,-64.678299,111.459976,-104.853836,60.187932,24.830315,19.116617,12.988765,0.0,232.692303,102.067894,-1.189045,-3.118686,-0.005243,-1.328932
