timestamp,time_rel,x,y,theta,vx,vy,bias_accel_x,bias_accel_y,bias_angular_velocity,accel_x,accel_y,accel_z,gyro_x,gyro_y,gyro_z
880260.202149,0.0,0.0,0.0,-0.7603811828292133,0.08176383012541082,-0.2219816349556281,0.0,0.0,0.005048931202082052,-9.41272443,0.4252635,-3.07535652,0.002747,-0.025133,0.003743
880260.242121,0.03997199994046241,-0.6738079320409659,-0.33803499465143866,-1.145644346250107,0.2302105392699295,-0.5757008615786365,-0.0002184879412494026,-0.000309527589009051,0.0041945397852789605,-9.358533990000002,0.30955455,-2.89617687,0.000973,-0.004891,0.002929
880260.262107,0.05995799996890128,-1.013146327161543,-0.518096506712045,-1.3773507617624545,0.12835260506069918,-0.9111878872132025,-0.00042828722599686127,-0.0004942760403893785,0.003696660934053472,-9.41871834,0.36823797,-2.8472249700000005,0.002,-0.004968,0.002434
880260.282092,0.07994299998972565,-1.2185440961023144,-0.6363414629441133,-1.5381047766763494,-0.018548339708749577,-1.2255638615412392,-0.0006679819642915351,-0.0007415196794072128,0.004341765440373457,-9.39012219,0.42317397,-2.8548669600000003,0.000555,0.007405,0.006018
880260.282092,0.07994299998972565,-1.3587067479213937,-0.6999760024211216,-1.6476478412137137,-0.12090188813934541,-1.271421020030288,-0.0006978191490986431,-0.0006955635966434821,0.004707101177866085,-9.39012219,0.42317397,-2.8548669600000003,0.000555,0.007405,0.006018
880260.322064,0.11991499993018806,-1.4628993035728066,-0.7955816509165814,-1.7379510421739168,-0.399208872661012,-1.6863053471102276,-0.0010253873088533962,-0.001632970653576494,0.004729805443085617,-9.446255010000002,0.36299943,-2.84198643,-0.000543,0.005311,0.004544
880260.362035,0.1598859999794513,-1.5527658282754206,-0.8929611074815604,-1.8191987593297467,-0.6937213488697527,-2.0754594065601015,-0.0015630770814930531,-0.0036567563980587745,0.004441351860979081,-9.370512000000002,0.40445649,-2.88644535,0.001947,-0.002293,0.002443
880260.382021,0.17987200000789016,-1.6247213469036237,-0.950354704549705,-1.884357168323542,-0.8917919798774696,-2.2680769245510812,-0.0020716893029914456,-0.004992398260397222,0.00485309965295091,-9.44132058,0.39548034,-2.8620478800000004,0.003913,0.005047,0.00692
880260.402007,0.19985800003632903,-1.688174896636995,-1.002930952604335,-1.936829461167446,-1.0917987616947802,-2.4336920884489364,-0.002593150294008825,-0.0061472727368098974,0.0048874495075853066,-9.36961929,0.32557428,-2.88405171,0.006806,-0.004004,0.004733
880260.402007,0.19985800003632903,-1.7261372667946915,-1.0076222488619266,-1.9740643496927692,-1.157994246657448,-2.4513612598316152,-0.002917241820460664,-0.006387562518022336,0.0048924334693673166,-9.36961929,0.32557428,-2.88405171,0.006806,-0.004004,0.004733
880260.441978,0.23982899996917695,-1.8001870316821742,-1.1038992956690725,-2.014425278568094,-1.494226742173318,-2.714618263468173,-0.003565291944653005,-0.008361447486465308,0.005063163912593375,-9.414823770000002,0.40296537,-2.8827077400000003,0.010974,-0.001809,0.005846
880260.461964,0.2598149999976158,-1.8517184114610326,-1.151376494673663,-2.048499130275533,-1.6767601021031797,-2.8514695898085978,-0.004179187941677228,-0.010085585606810494,0.004875297983198921,-9.36018207,0.33081282,-2.8957256100000004,-0.000742,0.000136,0.00281
880260.48195,0.2798010000260547,-1.9015666506529714,-1.1980028364855193,-2.077919005733605,-1.8582639662104152,-2.977380038553936,-0.004782826924139269,-0.01178976350754069,0.0048758564726434925,-9.41407821,0.38560167,-2.86518708,0.003103,-0.001009,0.004369
880260.48195,0.2798010000260547,-1.9169681652772175,-1.1894831165474047,-2.0981587047306123,-1.8946203512480815,-2.99120119605167,-0.0051954514096428225,-0.012410860537058657,0.004853212855369669,-9.41407821,0.38560167,-2.86518708,0.003103,-0.001009,0.004369
880260.521921,0.3197719999589026,-1.9999887522940016,-1.2943960932903762,-2.125155447235604,-2.220438909484961,-3.204220190160263,-0.005835394501757525,-0.014992020316308391,0.005021926716500808,-9.35659161,0.36374499,-2.90516283,-0.002382,0.001043,0.0059
880260.541907,0.33975799998734146,-2.0480719736301896,-1.3409062329266297,-2.147682436094922,-2.385193616795301,-3.318128309467601,-0.006416577127642502,-0.017189416017746942,0.005085641728753231,-9.42754734,0.36688419,-2.8515708,0.009316,-0.002671,0.005078
880260.561893,0.35974400001578033,-2.0961589347045053,-1.3874354416588006,-2.1675430317906756,-2.548084010335581,-3.4239517538262616,-0.0069459841444928505,-0.019277716273139824,0.005106884362293519,-9.3730626,0.36164565,-2.8880934300000005,-0.001936,0.003472,0.004714
880260.581878,0.3797290000366047,-2.144366080398051,-1.434227304008167,-2.185386048899198,-2.708315580581472,-3.524239077309375,-0.00742442042645952,-0.021364521839423122,0.005166411028878954,-9.37156167,0.39952206,-2.88929025,0.004335,-0.003071,0.005172
880260.601864,0.39971499994862825,-2.1929049664677573,-1.4813338792010944,-2.201804027866552,-2.8663367079927444,-3.620963337770722,-0.007848388015190184,-0.023480576651971452,0.005210243475752578,-9.4169133,0.38185425,-2.86803198,0.006505,0.00013,0.005059
880260.62185,0.4197009999770671,-2.241883634641513,-1.528794544237483,-2.2170074817530705,-3.0206249741261937,-3.714121000386988,-0.008210669642560724,-0.025628234175000153,0.005229314549813659,-9.38368683,0.34353639,-2.88225648,-0.001328,0.001503,0.004819
880260.641836,0.439687000005506,-2.291383162015931,-1.5766475235910347,-2.2312904714573643,-3.1729236545074766,-3.8027272703381265,-0.008509081378748338,-0.02781884586660499,0.005054560120409656,-9.39970656,0.40026762,-2.87327052,0.009193,-0.006003,0.002547
880260.66182,0.45967100001871586,-2.3413799067024206,-1.6248854150899905,-2.2445976361329647,-3.3221380385384114,-3.8879696719159775,-0.00873461838670782,-0.030055397945028435,0.005148293709532369,-9.40074642,0.40296537,-2.86279344,5e-05,0.005334,0.005553
880260.681806,0.4796569999307394,-2.3919608847595826,-1.6734483404117506,-2.2571252812519913,-3.467818937194292,-3.9701680463853934,-0.008879862571049646,-0.03232907954332265,0.005167706773304867,-9.36842247,0.35625996,-2.883159,0.006173,-0.006295,0.004762
880260.701792,0.49964299995917827,-2.443143898004297,-1.7222757751822237,-2.2690532891744146,-3.612048218486623,-4.048394180872397,-0.008939929683694262,-0.03464832578657214,0.005214773727564384,-9.41422536,0.38574882,-2.8692288,0.000749,0.001626,0.005119
880260.721778,0.5196289999876171,-2.4949542073470012,-1.771297467083337,-2.2804717348751318,-3.7536265275749408,-4.122283966949044,-0.00890884718075116,-0.03701533395804762,0.005235959405091437,-9.39731292,0.40715424,-2.8886918400000003,0.001799,0.00203,0.004853
880260.741763,0.5396140000084415,-2.5473094602958493,-1.8204614792914677,-2.291334236541007,-3.8918462073141527,-4.193209161146038,-0.008777721372098198,-0.03942923965408378,0.0050531041313746266,-9.37859544,0.36104724,-2.90156256,0.007603,-0.006387,0.002364
880260.761749,0.5596000000368804,-2.6002135772078554,-1.8696249339831092,-2.301765241761174,-4.028311048796953,-4.259839306293494,-0.008537234778676161,-0.04189708511480483,0.005148237849126019,-9.41616774,0.38096154,-2.8678848300000004,-0.001515,0.005458,0.005617
880260.781735,0.5795859999489039,-2.6536308618928173,-1.9187135401791782,-2.3118311930432593,-4.161349063737442,-4.32235601487886,-0.00818154243825389,-0.04442182133421438,0.005034034495167825,-9.38009637,0.36898353,-2.90605554,0.006299,-0.004509,0.003115
880260.801721,0.5995719999773428,-2.7074265897459315,-1.9676515777433188,-2.3214885153873737,-4.291382122058327,-4.3807101875670185,-0.007700493600110836,-0.04701232886379091,0.004971793568506796,-9.38084193,0.37811664,-2.88615105,0.000702,0.000197,0.003649
880260.821706,0.6195569999981672,-2.7615609529208185,-2.016266129493759,-2.330827542504149,-4.418910384197097,-4.43485015971873,-0.007085003887396219,-0.049673807840761225,0.00516481440899205,-9.40987953,0.38020617,-2.8551612600000005,0.003913,0.000588,0.006787
880260.841692,0.639543000026606,-2.815935680321415,-2.0645275976140214,-2.3398690118968974,-4.542439433375031,-4.485138079168629,-0.00632894429483192,-0.052411534059262126,0.005003186281225639,-9.379341,0.35880075,-2.89347912,0.004216,-0.002026,0.002534
880260.861678,0.6595289999386296,-2.8705679399742214,-2.1121484239760453,-2.3487708835217807,-4.663494743031689,-4.529959097761747,-0.0054226559249513796,-0.05522488840866359,0.004937670097896146,-9.39521358,0.38844657,-2.8689345,-0.001811,0.002726,0.003581
880260.881663,0.6795139999594539,-2.925275943570629,-2.159059588579599,-2.357409536241558,-4.780856361027894,-4.570650026075112,-0.004356207519910503,-0.0581185541759133,0.005174176147415131,-9.3904263,0.35730963,-2.8827077400000003,0.004292,0.001038,0.007331
880260.901649,0.6994999999878928,-2.9799170822360206,-2.205243931856473,-2.3657960435695484,-4.894049795960927,-4.60849667033205,-0.003123332935701981,-0.061096295184640034,0.004890281228747336,-9.38548206,0.27453285,-2.98688994,-0.005318,0.010569,0.001001
880260.901649,0.6994999999878928,-2.9472937497800267,-2.166294078264757,-2.368704029371058,-4.850373089083939,-4.590735257712374,-0.00189357801721429,-0.0631090209448484,0.00462320343634119,-9.38548206,0.27453285,-2.98688994,-0.005318,0.010569,0.001001
880260.961606,0.7594569999491796,-3.1834182331179237,-2.3904434214438566,-2.3900098160740306,-5.293731055175184,-4.705114375812111,-3.845893681025426e-05,-0.06847418874369174,0.0032139036435342855,-9.49370598,0.74485368,-3.09631068,-0.006574,0.0164,-0.013047
880260.981592,0.7794429999776185,-3.235028680402164,-2.4301344566456597,-2.4007781685329395,-5.3793828717262215,-4.71866210681795,0.0018744632473390954,-0.07232557091441931,0.00446462388368672,-9.02847654,0.8155053,-3.0942113400000006,0.002303,-0.006622,0.017318
880260.981592,0.7794429999776185,-3.1909059364657173,-2.381567791557392,-2.404209143644297,-5.31631550128016,-4.687073730627413,0.003807717337819447,-0.07489914052111563,0.005490547233035168,-9.02847654,0.8155053,-3.0942113400000006,0.002303,-0.006622,0.017318
880261.001578,0.7994290000060573,-3.2440092321736205,-2.4215461609575897,-2.4099600584061003,-5.416734729700134,-4.697270827265269,0.005944612008218331,-0.07810154793846547,0.005818366194833971,-9.53562411,0.33215679,-3.1448113200000005,0.025558,-0.009367,0.009226
880261.041549,0.8393999999389052,-3.396375155835945,-2.549085590209411,-2.423215856204425,-5.660611001553518,-4.754694713787294,0.008679910514768319,-0.08278551315765989,0.00576644671343757,-9.27725814,0.08427771,-2.75277429,-0.021919,-0.026165,0.004335
880261.061535,0.8593859999673441,-3.444272057980323,-2.5812533607677284,-2.432242207175375,-5.737311741693701,-4.75312446234646,0.011573612327648274,-0.08686568477740808,0.004894624071007174,-9.49281327,0.32482872,-2.92880493,-0.013305,0.011973,-0.005363
880261.081521,0.879371999995783,-3.4911866487021794,-2.6113902520567094,-2.440155445967592,-5.807858214556106,-4.740630886903034,0.01470798551549528,-0.09090692469193427,0.004766238573496462,-9.28923615,0.45520362,-2.87342748,5.4e-05,-0.005536,0.002761
880261.081521,0.879371999995783,-3.434961943183619,-2.5541039614640515,-2.4425649501910396,-5.722639227592691,-4.690956033761031,0.017704643207850694,-0.09395286833751616,0.004631567162846635,-9.28923615,0.45520362,-2.87342748,5.4e-05,-0.005536,0.002761
880261.121492,0.9193429999286309,-3.5881024499751524,-2.6751477635535577,-2.453574526065065,-5.9543999464956805,-4.712044734627777,0.021346098099330014,-0.09887748270106926,0.005133398411542939,-9.32276673,0.41029344,-2.97041895,0.00914,0.002629,0.009955
880261.141478,0.9393289999570698,-3.6305656158758297,-2.7000519555238887,-2.461695692743799,-6.007975137216592,-4.693666401740721,0.02515157861702577,-0.10333405686140731,0.005305139849277613,-9.28744092,0.29084688,-2.8711809900000005,0.00709,-0.022515,0.006644
880261.161464,0.9593149999855086,-3.671715191081818,-2.7230165847610297,-2.4691218913676316,-6.060342829828672,-4.668252651304126,0.029171198393633614,-0.10777666847287484,0.004602626382282301,-9.34895943,0.36389214,-2.8689345,0.00706,-0.014046,-0.003905
880261.18145,0.9793010000139475,-3.7112092573332887,-2.7442871859057303,-2.4761931545945224,-6.1149208701207485,-4.639744846706831,0.033409317557344734,-0.1123016802742572,0.005365304747117324,-9.68905251,0.41373675,-2.75188158,0.020599,0.01509,0.0135
880261.201435,0.9992860000347719,-3.7493732813883343,-2.763559653421544,-2.4829818506556283,-6.153296402528285,-4.60928619488683,0.03786109358504493,-0.11686191576868728,0.0056288895836364965,-9.07427943,0.19938825,-2.9713214700000004,0.003899,-0.001052,0.008115
880261.221421,1.0192719999467954,-3.785842629124872,-2.781233257158053,-2.4897824538598665,-6.192327305339436,-4.575435113201738,0.042508096753072884,-0.12150241351584103,0.004610958099321164,-9.29956608,0.27572967,-2.9440791,-0.00423,-0.023781,-0.007611
880261.241407,1.0392579999752343,-3.820533576570831,-2.797323114740322,-2.4963902597815326,-6.232581859919409,-4.538838924107935,0.047355600685028414,-0.1262293263216607,0.0051365825948197575,-9.57678687,0.34547877,-2.90770362,0.011398,-0.001399,0.01067
880261.261393,1.0592440000036731,-3.8536982468665806,-2.811751933218413,-2.5029048985249895,-6.26533088216461,-4.5013907501934085,0.05239015992591449,-0.13101696509471875,0.005618496023333871,-9.39461517,0.24055101,-2.88419886,0.011398,-0.001399,0.01067
880261.281378,1.0792290000244975,-3.885281044604558,-2.824546895790231,-2.509352243106376,-6.293948671641148,-4.462551585084073,0.05760470947714914,-0.13585483340164933,0.0056284092516221155,-9.36108459,0.18322137,-2.9624924700000004,0.00818,-0.002565,0.005229
880261.301364,1.099214999936521,-3.9153580764655023,-2.8354900099379754,-2.515633350643936,-6.318566560192941,-4.422095032427002,0.06300259334983326,-0.1407168618849848,0.006334746469939329,-9.31348647,0.09415638,-3.0108361500000003,0.03367,-0.014755,0.014038
880261.32135,1.11920099996496,-3.9439088036584513,-2.844798073934165,-2.521939409275055,-6.337766515422024,-4.375798703416081,0.0685672352620172,-0.14562195602693576,0.007120048425295152,-9.17233038,0.25896438,-3.22878492,0.049067,-0.071067,0.015759
880261.341336,1.1391869999933988,-3.970904236894232,-2.8526156216039635,-2.5283831855168626,-6.352146031308792,-4.326280918185732,0.07428123301917844,-0.1505737939402886,0.006642855634804696,-9.06380235,0.33365772,-3.1841788500000003,0.048617,-0.179162,0.000578
880261.361322,1.1591730000218377,-3.9962837812091854,-2.8588614936846133,-2.5348009472569353,-6.367093265598104,-4.275482806755051,0.08014708041008417,-0.15556262575071395,0.006646800568374718,-9.23190651,0.32901759,-3.1542387300000003,-0.000692,-0.250379,0.006192
880261.381307,1.1791579999262467,-4.020158638195311,-2.863715192785495,-2.5413158816152133,-6.379854353226436,-4.223685498857086,0.08614836248448567,-0.16059039236442732,0.005916409605274699,-9.25076133,0.32407335,-2.91339342,-0.040355,-0.317922,-0.003121
880261.401293,1.1991439999546856,-4.042636537551844,-2.866880199575909,-2.5476064996856516,-6.388365007106105,-4.175101444574795,0.0922949661773821,-0.16560127272448508,0.00534217893257996,-9.15196482,0.02185668,-2.8744771500000006,-0.076567,-0.401088,-0.00186
880261.421279,1.2191299999831244,-4.063942434888667,-2.8681292234227307,-2.554364471324826,-6.395863542148317,-4.12763514459369,0.09857986626084234,-0.17051714039775048,0.0053772879263150105,-9.14538231,-0.25492266,-2.8868966100000004,-0.131797,-0.489866,-0.046268
880261.441265,1.2391160000115633,-4.082917492898776,-2.8695948164901046,-2.560013784811487,-6.40887669640801,-4.076147079047276,0.1049908268682977,-0.17558368855770795,0.005633597379174934,-9.63964935,0.18710613,-2.5896143700000005,-0.147619,-0.524302,0.007946
880261.46125,1.2591010000323877,-4.099907485672447,-2.871176929834743,-2.565513364088383,-6.4175276142666755,-4.028430875031876,0.11151262684181999,-0.18076599163400459,0.004707004310460497,-9.62588592,0.18590931,-2.6048787300000003,-0.156172,-0.484008,-0.005956
880261.481236,1.2790869999444112,-4.115365374008637,-2.8720572704504512,-2.570773029672621,-6.424483918277805,-3.984629771009458,0.1181533085268501,-0.18598108817098288,0.004215460707636908,-9.67558338,0.01511721,-2.83480551,-0.126358,-0.543642,-0.001715
880261.501222,1.29907299997285,-4.129890925958119,-2.871532577086013,-2.5761359323988473,-6.421880971302089,-3.9336188860517796,0.12490168506206378,-0.1911814451385793,0.004567715800229286,-9.23983299,0.25657074,-3.0726587700000003,-0.087253,-0.61887,0.008041
880261.521208,1.319059000001289,-4.143699506834497,-2.869145743094858,-2.5819011173866095,-6.417064934083842,-3.8738195810891916,0.1317410858500666,-0.19636038786680668,0.006876441580124577,-9.14103648,0.55713933,-2.99198133,-0.028004,-0.676226,0.03244
880261.561179,1.3590299999341369,-4.2698992650992915,-2.9387015832625427,-2.5930683685369957,-6.567687673607609,-3.8379464611581504,0.1394217254379382,-0.2029116753453729,0.010332164189220078,-9.37650591,0.25177365,-2.20192317,0.006781,-0.853289,0.045964
880261.581165,1.3790159999625757,-4.2725302544434784,-2.929838925180633,-2.5998493209233935,-6.54644470806534,-3.7841649097263055,0.14700687662014275,-0.20864387879763985,0.012581671361725022,-9.34013043,0.27453285,-2.22257322,-0.01273,-0.967694,0.036162
880261.581165,1.3790159999625757,-4.1632179724503,-2.8527934090499687,-2.6009974373128406,-6.379433252930663,-3.7166004469382257,0.1539761937801871,-0.21307182995671828,0.014455161937377099,-9.34013043,0.27453285,-2.22257322,-0.01273,-0.967694,0.036162
880261.601151,1.3990019999910146,-4.171897063628624,-2.8495296890275825,-2.6038420068103014,-6.37138702264072,-3.6610461898134217,0.16104498547461998,-0.21808654047442744,0.01663746235306884,-9.13684761,0.49083354,-2.10941487,-0.050493,-1.111492,0.041805
880261.641122,1.4389729999238625,-4.292136975703505,-2.9143878161828893,-2.6142785706794998,-6.504662520999292,-3.602999500575252,0.16896040634570275,-0.22474300913710182,0.020461912128208925,-9.08116605,0.91175121,-1.71887877,-0.057728,-1.42889,0.061153
880261.661109,1.4589599999599159,-4.2906566035057185,-2.9037257334941757,-2.621237434828939,-6.477320262365792,-3.54369034756646,0.17672101875433474,-0.23054231105159254,0.024627037276016228,-9.20510559,0.8313680700000001,-1.30917393,-0.038005,-1.528396,0.069823
880261.681095,1.4789459999883547,-4.2882332715667335,-2.8937539236608547,-2.6264093409517373,-6.448129477185027,-3.4845877419900217,0.18448057840699816,-0.23629729098013771,0.024672119987190294,-9.09702882,0.94393782,-1.14496434,-0.012881,-1.660123,0.079871
880261.701081,1.4989320000167936,-4.284701398117418,-2.8842624255284703,-2.63122515693211,-6.417723248755278,-3.4231140930503816,0.19226439635465273,-0.24208176043678215,0.02472054624813053,-9.08370684,1.2328325100000002,-1.1587375800000002,0.020274,-1.796551,0.07935
880261.721066,1.518917000037618,-4.288550384912491,-2.8661087747165457,-2.6454155471074148,-6.517935170523136,-3.305436689156239,0.1997062504941432,-0.2477073661267913,0.026740687159439728,-15.034737330000002,3.09272022,0.00658251,0.26033,-0.72288,0.045406
880261.741052,1.5389029999496415,-4.28629356688953,-2.861457711638392,-2.6521487851049916,-6.511389350737801,-3.2711893373278675,0.20717529557158,-0.25392853468811477,0.022378778829844487,-10.30591512,0.97851807,1.2410729100000002,0.345483,-0.749617,-0.021743
880261.761038,1.5588889999780804,-4.283977894005113,-2.8543340705638185,-2.65793189216587,-6.489499892212058,-3.2209513693358502,0.21478931148052263,-0.2598987598766047,0.024442024889118896,-9.48966426,1.37503827,1.94056515,0.433828,-0.835481,0.044923
880261.781024,1.5788750000065193,-4.281526495107541,-2.8466559050632996,-2.663936116105464,-6.4792703793724495,-3.170580110138953,0.22241174247393408,-0.2658233985940747,0.02409624928814713,-10.02525102,1.3392612000000002,1.7604927900000005,0.485031,-0.686723,0.019894
880261.801009,1.5988600000273436,-4.279702095314679,-2.8380008337709586,-2.670526406346006,-6.473745091463614,-3.120395455675496,0.23001056695281105,-0.27166286512967375,0.019921593540825646,-10.15323228,1.22625,1.12596237,0.516085,-0.67239,-0.025036
880261.820995,1.6188459999393672,-4.278452655807673,-2.82744855752872,-2.6773200071680754,-6.4652176613114385,-3.0712025169035617,0.2376479012558318,-0.27725432517606063,0.019967119332908585,-9.85804938,0.8584632900000001,0.7896069000000001,0.506414,-0.627488,-0.031137
880261.840981,1.638831999967806,-4.277458548169243,-2.8161802560226596,-2.6837912510982695,-6.455765312047257,-3.0220593509057943,0.24529149838295783,-0.28271872897317024,0.020013581057876307,-9.72677196,0.7414103700000001,0.86070978,0.488085,-0.634335,-0.030457
880261.860967,1.658817999996245,-4.275979460653537,-2.805316206022152,-2.6893937900698686,-6.447164937269449,-2.981227108608668,0.25295975129661236,-0.28811934350345864,0.020059376848347885,-9.73396269,0.36059598,1.0529073,0.462041,-0.689946,-0.030949
880261.880953,1.6788040000246838,-4.274246763180745,-2.794704628323436,-2.6946356089231984,-6.438993399238459,-2.9416513206425265,0.2606471692025466,-0.2934573364038857,0.02010522561661006,-9.73186335,0.31045707,1.49748669,0.422808,-0.74486,-0.04181
880261.900938,1.6987889999290928,-4.272940683378931,-2.783098327972058,-2.699855098833297,-6.430788114836559,-2.9019514038195138,0.26834625791421685,-0.2986631900392824,0.020152395485238884,-9.64414233,0.15971661,1.7893832400000005,0.332559,-0.833754,-0.03921
880261.920924,1.7187749999575317,-4.271848109766099,-2.771505455102467,-2.704338864657169,-6.419597313767963,-2.8640559835368156,0.27603136555639723,-0.3038730851007328,0.015179259799294655,-9.46720917,0.12813822,1.93621932,0.220569,-0.930732,-0.024762
880261.94091,1.7387609999859706,-4.270835930787708,-2.7591768567327417,-2.708848240110406,-6.407678663544484,-2.8229350018103476,0.28374410487884627,-0.3089843239774077,0.01307076935405803,-9.40314987,0.18546786,2.3571468,0.105415,-1.037648,-0.005167
880261.960896,1.7587470000144094,-4.26973360807751,-2.746775226403984,-2.7132696881505356,-6.3965604022562585,-2.780973215462862,0.2914656845014693,-0.31405405158225924,0.013374701325730615,-9.43458111,0.23246757,2.23545375,0.037259,-1.009966,0.015631
880261.980881,1.7787320000352338,-4.268626054817319,-2.734048151674478,-2.7174145390447286,-6.381191975977824,-2.741695086876346,0.2991993824610679,-0.3190427535081261,0.016504895622738623,-9.17756892,0.07499745,2.786756130000001,-0.054862,-1.065452,0.045093
880262.000867,1.7987179999472573,-4.267140677232999,-2.7222808459701318,-2.72056860178449,-6.3641848109145425,-2.7077742364961694,0.30692082424620787,-0.32410785965044725,0.01654570752448574,-9.11589345,0.01227231,2.79005229,-0.153699,-1.165084,0.076249
880262.020853,1.8187039999756962,-4.265687023799918,-2.7109844249088124,-2.72483841537685,-6.360175532886681,-2.6763669544056508,0.31460870297321614,-0.32914583901512484,0.014702279328727334,-9.71344998,-0.10269108,3.48535566,-0.269642,-1.227416,-0.002377
880262.040839,1.838690000004135,-4.268345965816973,-2.6851407342388365,-2.7205218736559376,-6.354111221581896,-2.5597737286709346,0.32256208674315334,-0.3320104673060385,0.014696892287261266,-8.895855150000001,1.11233628,3.11292882,-0.222738,-1.222509,0.186498
880262.060825,1.858676000032574,-4.261469837472505,-2.684720178943975,-2.729389820517575,-6.329217949690717,-2.5737154749097737,0.33029084109551493,-0.338912520669599,0.016831997272204677,-9.67886973,0.35595585,2.4667245,-0.202898,-1.215028,0.03488
880262.08081,1.878660999936983,-4.258605856724806,-2.6784738299609234,-2.733748742950783,-6.302000164308591,-2.54703144552657,0.3378752114121223,-0.34462861474606615,0.016889253054877238,-8.90662653,0.93750246,3.25078875,-0.147993,-1.25888,0.105356
880262.100796,1.8986469999654219,-4.256868520279783,-2.669042211754995,-2.7387591707145584,-6.28086147243158,-2.5132947698314965,0.345455079734025,-0.34983043026050553,0.020310814915219577,-8.922195,0.62330778,2.16988371,-0.106942,-1.070861,0.049611
880262.120782,1.9186329999938607,-4.255110611912956,-2.6598746046076727,-2.743662474375073,-6.271660739000252,-2.4705314869536554,0.3530041403639515,-0.35501732126163765,0.022982549082783233,-9.5413041,1.06249167,2.97386226,-0.05693,-1.119594,0.046856
880262.140768,1.9386190000222996,-4.253741030097027,-2.6495231426532566,-2.748082127220328,-6.243321941720586,-2.436242951458591,0.36055900856334927,-0.36001722578952505,0.02552292414580922,-8.4334608,0.56641959,3.95792298,-0.056666,-1.020405,0.049159
880262.180739,1.9785899999551475,-4.363581822058005,-2.684780184193938,-2.7581438805893095,-6.336668118041516,-2.3887158199244967,0.3688381053375006,-0.36609568857846775,0.02521195863568088,-8.144566110000001,0.56552688,4.8975149700000005,0.023111,-1.042319,0.021606
880262.180739,1.9785899999551475,-4.245536323284928,-2.6259772107385237,-2.758974198812586,-6.1691206770142815,-2.364582766103906,0.37630515059109265,-0.37020812793165053,0.024904967318233405,-8.144566110000001,0.56552688,4.8975149700000005,0.023111,-1.042319,0.021606
880262.200725,1.9985759999835864,-4.243284395794286,-2.6158828709080506,-2.7615393630321385,-6.1534172900258755,-2.3234497624587602,0.38378883551793,-0.3748762962458814,0.021879592872910882,-8.89121502,0.7024842900000001,4.5870579000000005,0.049181,-1.069066,-0.009859
880262.240697,2.038547999924049,-4.349986187216849,-2.650140171299195,-2.77016402118015,-6.266496049683089,-2.275417315245513,0.3920475027229767,-0.3808737531938116,0.021978095648592155,-8.6389803,0.54950715,4.72177863,0.041485,-1.102659,0.022278
880262.260683,2.0585339999524876,-4.338951042640196,-2.6350420835209105,-2.7746864899484187,-6.219884366743412,-2.246178213209359,0.4001648498959212,-0.3859493051160112,0.023648226712414417,-8.069117400000001,0.27123669,5.132827440000001,-0.000186,-1.135311,0.040177
880262.280668,2.078518999973312,-4.327877123637286,-2.620417385043564,-2.77804819389568,-6.180457006226059,-2.211914488896937,0.40823967261440475,-0.39086147064093374,0.02507467525113009,-8.35008561,0.40835106,5.42801034,-0.016887,-1.149967,0.039513
880262.300654,2.098505000001751,-4.316702300077623,-2.6062058970059723,-2.780649107145929,-6.128771152734886,-2.1776988708954015,0.4162910465622664,-0.3956862146555837,0.02721566156116402,-7.691452020000001,0.5117877000000001,5.52800367,-0.027203,-1.171853,0.049528
880262.32064,2.1184910000301898,-4.305153256317066,-2.592940645156116,-2.782967573460643,-6.084039634921827,-2.144300199361495,0.42429899561373263,-0.40052675535677185,0.028738187170971267,-8.02017531,0.55728648,5.6118301200000005,-0.017322,-1.15194,0.044776
880262.340626,2.1384769999422133,-4.2935928821203015,-2.5798866869353474,-2.7850373312216794,-6.034231110248077,-2.1137271198627055,0.4322658902523116,-0.4053089992010649,0.030211917095036435,-7.69324725,0.4830444,5.77469574,-0.010832,-1.146714,0.045956
880262.360612,2.158462999970652,-4.282118661944785,-2.5663493886868833,-2.786903407202729,-5.98246385414825,-2.084894008383061,0.44019640263823,-0.4099651655316922,0.03285709231498622,-7.491171060000001,0.32467176,6.10056432,-0.009464,-1.132223,0.061716
880262.380597,2.1784479999914765,-4.27086419015635,-2.552309662015843,-2.7888224620362947,-5.935668703778654,-2.060001722675305,0.44807106426491405,-0.41448621104076633,0.03458846467957391,-7.591017240000001,-0.00404172,6.44739687,-0.023998,-1.101279,0.053576
880262.400583,2.1984340000199154,-4.2600367606899905,-2.5372361480763854,-2.790675695109362,-5.883020883949225,-2.0359017545015585,0.45589946494802763,-0.4187975769012782,0.03657176579966499,-7.148085930000001,-0.19564083,6.56115363,-0.041132,-1.083283,0.05857
880262.420569,2.218419999931939,-4.249030030246802,-2.522642189700838,-2.7922026696327813,-5.834440804136941,-2.012418244419169,0.46367833673257464,-0.4230372000033634,0.0379700554181856,-7.28310096,-0.23935419,6.51384981,-0.031462,-1.033865,0.053533
880262.440555,2.238405999960378,-4.237458772168614,-2.509865992250155,-2.79299871022245,-5.7826157996829375,-1.9930886186973926,0.47141019086551605,-0.4273080866264134,0.03740812766527986,-7.097044500000001,-0.21450546,6.19381818,-0.004992,-1.001778,0.030805
880262.460541,2.2583919999888167,-4.226130374384396,-2.496585457552379,-2.7950787292061,-5.740250012585477,-1.9670933777596777,0.4790810014539264,-0.43144098038723233,0.03742463909198408,-7.5077892,-0.06780672,6.4553233500000005,-0.003292,-0.867984,-0.024391
880262.480526,2.278377000009641,-4.214317594348957,-2.4855985618519596,-2.796790172421685,-5.668225689501901,-1.9094406757099844,0.48668359392034033,-0.43589528131058347,0.035853513203539085,-6.47493354,2.23005825,5.720358150000001,0.229437,-0.755046,0.018892
880262.500512,2.29836300003808,-4.201696248090787,-2.4760651357094026,-2.7997638493032304,-5.598798693789206,-1.8545339456296865,0.4941986476133128,-0.4405273083298262,0.035878069081955115,-6.627920490000001,2.42585604,6.82535655,0.313279,-0.929998,-0.043043
880262.520498,2.3183489999501035,-4.188663907624579,-2.466719977121746,-2.802487198264852,-5.518725162811749,-1.810482807594153,0.5016351698930994,-0.4451482428591512,0.03590300741109234,-5.948784000000001,2.08157409,7.1934375600000005,0.327595,-1.000576,-0.052304
880262.540484,2.3383349999785423,-4.1748956220863285,-2.4574433600106524,-2.8044893761677927,-5.451102837279279,-1.7724569669421084,0.5090179135809025,-0.44978118412440093,0.035929707998104764,-6.480172080000001,1.75420458,6.51415392,0.40879,-1.013678,-0.020058
880262.56047,2.358321000006981,-4.160540068680926,-2.4485369881115893,-2.8053328913029594,-5.37780684040087,-1.7447499446539694,0.5163523965618347,-0.45443658741161436,0.031867009026807516,-6.086339820000001,1.40287905,6.38197398,0.490596,-1.031739,-0.004458
880262.580455,2.3783060000278056,-4.145554951351616,-2.4384998585704944,-2.8058404197115046,-5.295765833597505,-1.7127503434512314,0.5236881544678348,-0.45894062421190274,0.033399914672168914,-5.62844826,1.52922204,6.953494770000001,0.529102,-1.06155,0.047347
880262.600441,2.398291999939829,-4.129963505722411,-2.4275265350859474,-2.8060482504905715,-5.2118923086810405,-1.684229448508055,0.5309958654126891,-0.4633030221905692,0.03796245585206146,-5.41903419,1.2478025700000002,7.158710160000001,0.519523,-1.182366,0.081564
880262.620427,2.418277999968268,-4.116876005103416,-2.4047697371819923,-2.8001570633137094,-5.145400324749311,-1.5994554955980425,0.5382949016002182,-0.46546794647429474,0.03794830785881903,-5.57575875,1.29795129,7.27696971,0.500973,-1.264703,0.164269
880262.640413,2.438263999996707,-4.103616142749339,-2.380750512813905,-2.7946484964886595,-5.08023204493547,-1.5157585790722519,0.5455306026891924,-0.46749399076160403,0.03793203945817587,-5.52216672,1.20379491,7.4904255,0.471875,-1.370317,0.140386
880262.660399,2.4582500000251457,-4.077685233133552,-2.387229919403787,-2.7987670268300224,-4.9639726027084015,-1.5741211506724646,0.5530358607624493,-0.47532748986931006,0.038013007463289665,-5.178777480000001,1.3681516500000002,8.108337780000001,0.415581,-1.451526,0.137476
880262.680384,2.4782349999295548,-4.063112549514583,-2.3634750650280454,-2.7925813198481517,-4.874981621616161,-1.4959665683635834,0.560140121295881,-0.4772446471401296,0.03799441545106133,-4.17721572,1.17520857,9.82646118,0.128597,-1.648535,0.179923
880262.700369,2.498219999950379,-4.047956173203014,-2.338702870244742,-2.7862694659453675,-4.787933900812345,-1.412934107453316,0.5671750679506533,-0.4790346294907376,0.037973378748725646,-4.2081957,1.3793841000000002,9.41346999,0.128597,-1.648535,0.179923
880262.720355,2.518205999978818,-4.032294484693064,-2.3128205346292217,-2.778184001967168,-4.70436371183179,-1.3201032761471923,0.5741384037772922,-0.48069797783669177,0.03794989335606334,-4.35025431,1.81811673,8.931779370000001,-0.195329,-1.749353,0.26298
880262.760327,2.5581780000356957,-4.100437919038559,-2.3057785629795218,-2.7579150460852384,-4.630813695518699,-1.150575636198013,0.581654873998721,-0.4821214775021786,0.03792350293460498,-3.30722568,2.5255452600000003,8.47866528,-0.071028,-1.280799,0.468043
880262.780313,2.5781639999477193,-4.079451672171904,-2.2533551734907595,-2.753432963460521,-4.533978526007429,-1.0021336588049337,0.58903767759559,-0.4823406407992631,0.03793283287712252,-3.94145199,2.30715504,9.15600654,-0.081865,-1.078355,0.578203
880262.800298,2.5981489999685436,-4.058385428882179,-2.200636178477628,-2.746457204650234,-4.440515451040039,-0.8638161714229229,0.5962742270667881,-0.4825024794481749,0.03794185613493774,-3.90402684,1.97034831,9.107957160000002,-0.17282,-0.838013,0.684762
880262.820284,2.6181349999969825,-4.037284167690709,-2.1478376078806583,-2.7475801774817192,-4.359424365762086,-0.7535313004527232,0.603367452129588,-0.48261573789219275,0.03795056603315168,-4.194128160000001,0.69575463,12.85167879,-0.313112,-1.230219,0.261164
880262.84027,2.6381210000254214,-4.012476817245325,-2.1114991156275056,-2.7405838942273424,-4.25990697670688,-0.6758795389672714,0.6103212184307893,-0.4836915016178527,0.03791158172843244,-3.24734544,1.09377576,8.386461090000001,-0.357715,-1.271456,0.154074
880262.860256,2.658106999937445,-3.9109415319278713,-2.225437546896333,-2.771683375127548,-3.8866370341740604,-1.1553234766188651,0.6202312263860706,-0.5110094053899287,0.04006824649793661,-1.91676609,2.4379812,9.27575721,-0.147296,-1.456622,0.048832
880262.880242,2.678092999965884,-3.8752763354202147,-2.2392897914843948,-2.7747848779152284,-3.7389838049702386,-1.2089239803657348,0.6261603474228573,-0.5187975111638621,0.03878973599817584,-2.43558756,2.68841088,6.72401925,0.118268,-1.182945,0.030234
880262.900228,2.6980789999943227,-3.842107742713819,-2.2348401611816637,-2.774997983696441,-3.6092072641053807,-1.2103663180911048,0.6322638514266724,-0.5238645860903599,0.03546762324481108,-2.4896210400000003,2.0122664400000003,9.95325543,0.148153,-1.205785,0.012233
880262.920213,2.718064000015147,-3.8087209073992216,-2.22406447794289,-2.7735349520747827,-3.4648975246069558,-1.1968369710930515,0.6384439134347697,-0.5279075778729055,0.03191643460671555,-1.43581122,1.7341431300000003,8.988804900000002,0.182334,-1.174063,0.005099
880262.940199,2.7380499999271706,-3.774545528666256,-2.209919773720449,-2.771129443562881,-3.3247533703507504,-1.1771809204079444,0.6446223186002598,-0.5313404115581319,0.030689728182268325,-1.39330449,1.3681516500000002,10.85602068,0.021499,-1.230887,0.020787
880262.960185,2.7580359999556094,-3.739909877362234,-2.193349718109527,-2.768753682757813,-3.1916104749778205,-1.1468135972899387,0.6507308855722278,-0.5343784870369601,0.031888637626896296,-1.5908877,1.45556856,9.11395107,0.019775,-1.161919,0.042163
880262.980171,2.7780219999840483,-3.711052642824117,-2.1532938648067512,-2.7787173631468116,-3.1081019252852995,-1.0614626134252945,0.6566602663632939,-0.5344938021687785,0.031896387725123584,-3.07580778,0.38080458,12.64509981,-0.510315,-1.299475,-0.169118
880263.000157,2.798008000012487,-3.6824646973644675,-2.1135260998310845,-2.7884108970791814,-2.995248063965102,-0.9389316801732993,0.6624536085232885,-0.5345578563023327,0.031903991997466366,-1.80374508,2.55114936,17.437834170000002,-1.307119,-1.904293,-0.167348
880263.000157,2.798008000012487,-3.60345958186072,-2.0593303093922195,-2.793776311623634,-2.8834869875039293,-0.8714953541726377,0.667690984170212,-0.5346133884134181,0.03191087981760046,-1.80374508,2.55114936,17.437834170000002,-1.307119,-1.904293,-0.167348
880263.040128,2.837978999945335,-3.6299817635935274,-2.0591678288429125,-2.799141827360393,-2.7659618733740627,-0.8773665595418026,0.6727240753988076,-0.538555289854129,0.03472564098044986,-1.31441247,0.56072979,17.56028259,-0.913618,-0.718106,0.055742
880263.060114,2.857964999973774,-3.599420471488337,-2.0213421282103177,-2.798907702376604,-2.6206559950680335,-0.7919534606273543,0.6781506801172423,-0.5386634394056132,0.034733587808620764,0.32796792,1.50302934,3.29165721,-0.300338,-0.285341,0.308365
880263.0801,2.877951000002213,-3.567976762339906,-1.9837492006428463,-2.7997231171685124,-2.502550452655935,-0.724073248335029,0.6834391479941642,-0.538730157215669,0.03474131061636038,-0.71805276,0.51762465,12.56891535,-0.468275,-0.500828,0.244147
880263.100086,2.8979370000306517,-3.529045310324397,-1.9789397404496707,-2.792919162624186,-2.351503608307151,-0.7676101822186878,0.6885132200659143,-0.5430302761123899,0.03627112280755907,0.17094906,0.23022108,9.45763461,-0.388917,-0.719179,0.047568
880263.120072,2.9179229999426752,-3.490142545722274,-1.9673461651756123,-2.785497416838413,-2.232645268253802,-0.7757002839068676,0.6935884724590844,-0.5457223160117918,0.031124718145774204,-0.93181266,0.00194238,8.28362286,-0.361857,-0.569577,-0.009325
880263.140058,2.937908999971114,-3.451566368986469,-1.9533212897465848,-2.779789697406644,-2.105840549380131,-0.7582593311684602,0.6985685174717945,-0.5477656294894696,0.031099730254311512,-0.36823797,0.71460945,10.10324052,-0.352108,-0.604964,-0.054543
880263.160043,2.9578939999919385,-3.4128544460087156,-1.9387080934083318,-2.7721669445931303,-1.9809816681499086,-0.7405128418029681,0.7034143157431497,-0.5495412031959003,0.027382178209202652,-0.22034241,0.5063922000000001,10.04127075,-0.336325,-0.586841,-0.001937
880263.180029,2.9778800000203773,-3.37449283999568,-1.9220332289134339,-2.76380752917052,-1.8614605002766418,-0.7211905217416936,0.7081205734558487,-0.5509281474269272,0.02735681811762826,-0.21420135,0.21046374,9.81299205,-0.307836,-0.476549,0.115321
880263.200015,2.997865999932401,-3.3369916719894857,-1.9034955485751894,-2.7555284881381192,-1.7468586376376432,-0.6914384079700193,0.7126365009011545,-0.5518570929377712,0.027330963801513706,-0.16165899,0.31898196,9.24552279,-0.235261,-0.405194,0.158284
880263.220001,3.0178519999608397,-3.2989363991860996,-1.8856063415897883,-2.7487822376984163,-1.6405622503843351,-0.6730280845996389,0.7170499929331686,-0.5528798591823846,0.027304820178987735,-0.46238454,-0.14250006,10.023455790000002,-0.267906,-0.403275,0.082421
880263.239987,3.0378379999892786,-3.260996893741228,-1.8686665236246733,-2.742433419345402,-1.5341197133736386,-0.6454257489018129,0.7213058070468555,-0.5538183908790776,0.02301421133867894,-0.32557428,0.3198844799999999,9.1854954,-0.229254,-0.382599,-0.007763
880263.259973,3.0578240000177175,-3.222597158020324,-1.8518608238709886,-2.7364836824333043,-1.4438002819726998,-0.6020184835572107,0.7254863556706307,-0.5548370905729991,0.02695921693828325,-1.21218246,1.14871176,11.97195723,-0.052424,-0.299357,0.057974
880263.279958,3.077809000038542,-3.1851523703101203,-1.834926161793623,-2.7322751823024687,-1.3373356770733902,-0.5941182199457404,0.7294725224707571,-0.5555811324967848,0.02693172724361081,0.12558762,-0.68752404,10.38794634,-0.092521,-0.374645,-0.090157
880263.299944,3.0977949999505654,-3.1514790104122423,-1.8062980220072926,-2.736078347347411,-1.2217663979231461,-0.5483965444273949,0.7332429120744884,-0.555001298931309,0.02985289590214585,1.02297699,-0.00643536,6.05431017,-0.003824,0.013582,0.052859
880263.31993,3.1177809999790043,-3.115062933450807,-1.7884513983816988,-2.7296037217387616,-1.115262650045786,-0.5170290388235288,0.736896656054273,-0.5550419156760581,0.03359581840378881,0.64710684,-0.01661814,8.22883401,0.01588,0.047506,0.065253
880263.339916,3.137767000007443,-3.078188858989389,-1.7713701723981996,-2.7230106507028196,-1.0300350800758502,-0.4837034260683974,0.7404387886189707,-0.5552115546598378,0.03206437352574481,-0.38560167,0.13531914,9.71285157,0.006664,0.029763,0.018804
880263.359902,3.157753000035882,-3.04154021949216,-1.754401103718387,-2.7166625608073454,-0.9390958432415584,-0.44670491796611783,0.7438636240782238,-0.5554074258692882,0.029787471634246002,-0.02963601,0.43574058,9.832602240000002,0.012873,-0.003954,0.009026
880263.379888,3.1777389999479055,-3.005258948287459,-1.7371875577657891,-2.710569100552395,-0.8526474045346074,-0.41566385177367143,0.7471564574474221,-0.5555147371688898,0.028391229093757478,-0.05823216,0.10119015,10.126588320000002,-0.003611,-0.019692,0.015259
880263.399873,3.19772399996873,-2.969451189276017,-1.7198199330192516,-2.70470921597644,-0.7681355761993581,-0.38487018409279045,0.7503169809256822,-0.5555160970906179,0.02854880957936101,0.02125827,0.04879494,9.74638215,-0.001188,-0.01537,0.030332
880263.419859,3.217709999997169,-2.934019383590137,-1.7024763910534795,-2.6989513036887596,-0.6862498109647731,-0.35239843927994063,0.7533534773488451,-0.5554504068913366,0.029942659723460833,0.03367773,0.12214431,9.63172287,0.003447,-0.015588,0.0443
880263.459831,3.257681999937631,-2.9097569973287194,-1.6902904317067702,-2.69235786718209,-0.585896162984578,-0.3121603843357507,0.7564470897338788,-0.5551422411901713,0.033817035177211935,0.02350476,0.21135645,9.75132639,5.2e-05,-0.008967,0.071627
880263.459831,3.257681999937631,-2.8633458036684365,-1.667109920141192,-2.6874269275901685,-0.5267267186147839,-0.280774748280542,0.7592535133000107,-0.5550855184856769,0.037041213116414506,0.02350476,0.21135645,9.75132639,5.2e-05,-0.008967,0.071627
880263.499803,3.297653999994509,-2.8355019015028917,-1.6548652578363048,-2.6785143784090284,-0.4247904662155166,-0.24933202344384633,0.7621813949349276,-0.5553266244594581,0.037023842895942835,0.01092834,0.28874754,9.87720831,-0.004096,-0.001317,0.10969
880263.499803,3.297653999994509,-2.7918390466709773,-1.6337489175218118,-2.6726766154983426,-0.366236814568513,-0.22532517484945652,0.7648201228809084,-0.5555717423908977,0.03700718257882166,0.01092834,0.28874754,9.87720831,-0.004096,-0.001317,0.10969
880263.539774,3.337624999927357,-2.7617933203678144,-1.6207108095397966,-2.6599791183021884,-0.27153075987556946,-0.18574446063441122,0.76749531270448,-0.5557741905898056,0.03698888745448131,-0.0489519,0.51148359,9.67154166,-0.000129,0.005742,0.212737
880263.55976,3.3576109999557957,-2.724755273749026,-1.6032110818383443,-2.6504406200614072,-0.19736636517159206,-0.1541520057350701,0.7700373714676412,-0.5559607150426827,0.03696999284804886,-0.01586277,0.5089428,9.75011976,-0.001787,-0.002903,0.236307
880263.579746,3.3775969999842346,-2.6884021844512707,-1.585896360171321,-2.6410973296243214,-0.12605142126139302,-0.12082411718079365,0.7724499776905669,-0.5561313972803769,0.03695049583756018,-0.01766781,0.62914473,9.71524521,0.000625,0.001378,0.232502
880263.599732,3.3975830000126734,-2.65271688443475,-1.5688008859496443,-2.631874281699527,-0.05432658533605287,-0.08641836271033812,0.7747368793163074,-0.5562914409225269,0.036929992609978805,0.14340258,0.72105462,9.79024266,-0.00094,0.008766,0.225538
880263.619718,3.417568999924697,-2.6167281102179967,-1.5432650728379527,-2.6250409941257615,0.002503712716292036,-0.006161837013779349,0.7774316891934531,-0.5541891656881323,0.03691120149041093,0.08128566,0.6224052600000001,9.84876912,-0.00094,0.008766,0.225538
880263.639704,3.437554999953136,-2.603149998202943,-1.5353366782896911,-2.6170403042382917,0.0090920299885246,0.0009138045729715199,0.7768040518476159,-0.5542572850113058,0.03688811630808726,0.03382488,0.49861287,9.63860949,-0.000646,0.009183,0.142479
880263.659689,3.45753999997396,-2.589351457056466,-1.527335356231224,-2.611465965697581,0.013800497217091657,0.0028817822004672286,0.7759829320438214,-0.5543042677641622,0.04102555431826159,0.14369688,0.35401347,9.63935505,0.010844,-0.004922,0.068311
880263.679675,3.477526000002399,-2.5756248313920813,-1.5191370774634247,-2.6069360589514514,0.01798314643748093,0.0024388238442608055,0.7749987566940443,-0.5542110979562449,0.04100419523009096,0.35281665,0.19264878,9.74563659,0.005394,-0.010945,-0.016482
880263.699661,3.497512000030838,-2.5620993904333056,-1.5109055857503664,-2.6037603405940937,0.018613334149005407,0.0023850807926503416,0.7739913800444257,-0.5540806024109016,0.04098285978572181,0.21166056,0.20597076,9.78170796,0.003451,0.009302,-0.068509
880263.719647,3.5174979999428615,-2.549025067621215,-1.5027568563245999,-2.6015936819057495,0.01880262234640928,0.00044120999848853374,0.7730295321381847,-0.5538438143631665,0.040960946531361814,0.19908414,-0.00913311,9.7582032,-0.001414,-0.004885,-0.112786
880263.739633,3.5374839999713004,-2.5364602318080784,-1.494820673434002,-2.599862288320917,0.017762877714994265,-0.00038361752753166293,0.7721376660755482,-0.5535890248173218,0.04093836660833738,0.07559586,-0.00224649,9.63801108,-0.000605,-0.003565,-0.12972
880263.759619,3.5574699999997392,-2.524442470241343,-1.487116381259147,-2.5980450279293192,0.016882857178924033,-0.0013959182451030573,0.7713138892500705,-0.5533067579060876,0.04091475776735796,0.02948886,-0.07320222,9.6827643,0.001448,-0.00305,-0.125267
880263.779605,3.577456000028178,-2.5129488872448014,-1.4796629227480615,-2.5953993854969326,0.01594545291547564,-0.0022268434940906946,0.7705557909280953,-0.55300845103636,0.040889915252963725,-0.03083283,-0.11451213,9.74443977,0.001823,0.006181,-0.085787
880263.79959,3.597440999932587,-2.501986819214771,-1.4724575854939437,-2.591342273039283,0.01563057719901555,-0.0016714487553911917,0.7697971328890426,-0.5527390875801299,0.04086412734404792,-0.01571562,-0.01362609,9.73530666,0.001134,-0.003833,-0.013238
880263.819576,3.617426999961026,-2.491549463229403,-1.4654296961092252,-2.5860124019217916,0.015875626017990512,-0.0003729505824220951,0.7689898988483347,-0.5525187896636952,0.038630008470073154,0.03143124,0.09700128,9.708809850000002,0.003328,0.000264,0.026769
880263.839562,3.637412999989465,-2.481581027012807,-1.4585614386688828,-2.5805320791859097,0.015967826831845635,0.0001538079631255353,0.7681635955874188,-0.5523162449273661,0.03466373147736803,0.03039138,0.08487612,9.749227050000002,0.00256,0.001851,0.010538
880263.859548,3.6573990000179037,-2.4720318320726635,-1.4518952398866767,-2.5749715905492394,0.015514276445541519,0.001042475230502669,0.7673334368236508,-0.5521623345275252,0.029704348678121426,-0.02035575,0.15387966,9.7320105,0.005635,-0.000249,-0.003865
880263.879534,3.6773849999299273,-2.4629033521735715,-1.4454567317234859,-2.5695927505597487,0.015947011175431743,0.002155393794050616,0.7664569863727958,-0.5520385672330488,0.02606215597622696,0.05553441,0.22512969,9.76733631,0.001766,0.003935,-0.00079
880263.89952,3.697370999958366,-2.4541722450849766,-1.4392390987055796,-2.5642768854009192,0.016894059137936183,0.003790364813039649,0.7654955377451148,-0.5519552337917955,0.022942839599267205,0.1474443,0.34114275,9.74188917,0.00025,0.000957,-0.00176
880263.919506,3.717356999986805,-2.4457626224738402,-1.4331940911585161,-2.5591675734689887,0.016081041425674156,0.005425083719150376,0.7645266219317208,-0.5519584931126906,0.020611873223891793,0.01856052,0.44352972,9.77482134,0.001546,0.002755,0.001033
880263.939491,3.7373420000076294,-2.437703687240979,-1.4273271920623383,-2.5541652408910123,0.015907448037305146,0.007067474932777758,0.7635211779797404,-0.5520320747467653,0.018777504215611755,0.04939335,0.53843166,9.77856876,0.000627,-0.003994,0.002592
880263.959477,3.7573280000360683,-2.4300037466224165,-1.4215763138302373,-2.5492672082511834,0.01696429133634793,0.0071855641170282935,0.7624694175781438,-0.5520725805580086,0.017079694949212493,0.173637,0.45670455,9.69653754,0.004567,4.5e-05,0.001447
880263.979463,3.777313999948092,-2.422578807979013,-1.4159710064956545,-2.544517954704605,0.016685700643975367,0.0074227645001944224,0.7614263321661588,-0.5521226059965323,0.01593204508855511,0.09415638,0.47855142,9.70282575,0.002471,0.011914,0.005014
880263.999449,3.7972999999765307,-2.415423759789327,-1.410482427300084,-2.5399402976625187,0.015668288470684816,0.007677239004951728,0.7604224996302505,-0.5522040644329431,0.014725636426518345,-0.00045126,0.49861287,9.67303278,0.004006,0.008142,0.002876
880264.039421,3.8372720000334084,-2.4089118912102756,-1.4052532003365754,-2.5354985748148864,0.01865149713604078,0.00885794013423498,0.7586773195215143,-0.5521515839826737,0.013849655250985596,0.05029587,0.46029501,9.73126494,0.001513,0.003208,0.005617
880264.059407,3.857257999945432,-2.402423344347655,-1.4000443011054453,-2.5310011556154683,0.016578454833051006,0.0075520767239196296,0.7575628384921795,-0.5521736092189469,0.012847188970836887,0.08981055,0.43679025,9.73215765,0.004661,0.000337,0.003093
880264.079392,3.8772429999662563,-2.3961128707359247,-1.3949056451097654,-2.5266631509416886,0.01609568666377773,0.006777461542032869,0.75655985133025,-0.5521787455072796,0.011831611364904801,0.06765957,0.38290392,9.7866522,0.000187,-0.001151,0.001669
880264.099378,3.897228999994695,-2.390011046309406,-1.389871015525147,-2.522468923926832,0.016172776038070425,0.006286470350910292,0.7555833607195505,-0.5521540022651791,0.011243016702683701,0.08726976,0.35671122,9.74698056,0.002045,0.000429,0.005257
880264.119364,3.917215000023134,-2.384120656567587,-1.3849317395027103,-2.518449022557612,0.01625882046460182,0.006005072095974463,0.7546170026508795,-0.5521060765514968,0.010569214464487902,0.09145863,0.34533162,9.70851555,0.004846,0.00083,0.003559
880264.119364,3.917215000023134,-2.378385156534152,-1.3801015084194976,-2.5145407580528847,0.010906117350412825,0.004072216282366932,0.7542400292701359,-0.5522104604040724,0.010001266207986642,0.09145863,0.34533162,9.70851555,0.004846,0.00083,0.003559
880264.119364,3.917215000023134,-2.3727754438853474,-1.3753542269650791,-2.510864914848498,0.008491808507005144,0.0031977490366687225,0.7539942304328642,-0.552342787725957,0.009515958957532296,0.09145863,0.34533162,9.70851555,0.004846,0.00083,0.003559
880264.179322,3.9771729999920353,-2.3684472516497035,-1.3709493784030002,-2.507504352712382,0.020161596645936346,0.0061887625920303575,0.751961023667652,-0.5518425989083274,0.009043759284958378,0.05883057,0.27662238,9.74279169,0.002853,0.004228,0.004119
880264.199308,3.997159000020474,-2.36348679801842,-1.3664268576812502,-2.50407942131021,0.016871594014559958,0.004787922842217608,0.7509133212795716,-0.5516526016040805,0.008595827606929032,0.0782838,0.23755896,9.74518533,0.001686,0.001549,0.003849
880264.219294,4.017144999932498,-2.358599059266305,-1.3619769723010462,-2.5007830567398552,0.016293298671308135,0.004423074223150978,0.7499869992197931,-0.5514888480357601,0.008237967271282553,0.07948062,0.23665644,9.75176784,0.003861,0.001162,0.004406
880264.239279,4.037129999953322,-2.353830044137575,-1.357605145868185,-2.4976210871057942,0.016122626218009327,0.00421063751135279,0.7490920494132192,-0.5513201260626215,0.007810660202199238,0.07155414,0.22498254,9.74817738,0.001626,0.002791,0.003164
880264.259265,4.057115999981761,-2.349197790233764,-1.3533232639202222,-2.4945665158230037,0.016122363835091507,0.004099170873051493,0.7482064686091208,-0.5511411245401094,0.007620389999336906,0.07739109,0.21929274,9.74982546,0.004476,0.000518,0.005567
880264.279251,4.0771020000102,-2.3447076213404494,-1.3491228619628355,-2.491679921340081,0.016112539110192173,0.004109083551537455,0.7473245342980644,-0.5509555446675352,0.007260029229302939,0.07768539,0.22348161,9.74384136,0.00176,0.002292,0.003274
880264.299237,4.097088000038639,-2.340345723912383,-1.3450132865890208,-2.4888595949917827,0.015875868381392027,0.004064500325402442,0.7464565931109209,-0.5507700417938709,0.00706798272870674,0.0525423599999999,0.21899844,9.77587101,0.001816,0.003484,0.004956
880264.319223,4.117073999950662,-2.3361187746586265,-1.3410077629495003,-2.4860617792796678,0.0158482545606573,0.004443321988988507,0.7455801267211359,-0.5505974044764451,0.006691120732913984,0.06825798,0.25925868,9.73755315,0.002844,0.000424,0.002462
880264.339209,4.137059999979101,-2.3320142546279254,-1.3371019387416345,-2.4832372201377737,0.01579477417738404,0.0048050115510685975,0.7446967121388406,-0.5504383347990738,0.0065258508115423304,0.06795387,0.27841761,9.73934838,0.004087,0.001478,0.004695
880264.359195,4.15704600000754,-2.3280349061387007,-1.3332787089377351,-2.48051096189672,0.015794067445479065,0.0051795549636602075,0.7438040976504366,-0.5502892731872366,0.006221118522803855,0.0751446,0.29893032,9.77048532,0.003999,0.001896,0.002778
880264.379181,4.177032000035979,-2.3241717580791903,-1.3295403902243614,-2.4778246087843856,0.015784876218576094,0.005492167374886721,0.7429043895444452,-0.5501490580482254,0.0059567577697906765,0.0778423499999999,0.3125466,9.75626082,0.001207,0.001182,0.002965
880264.399166,4.197016999940388,-2.320419016764086,-1.3258882874486628,-2.4752096138926074,0.01571497078900822,0.005950836250132745,0.7419957427212553,-0.5500244307437708,0.0060332569224033706,0.07708698,0.34638129,9.72363276,0.005477,0.002342,0.006971
880264.419152,4.217002999968827,-2.316772285546928,-1.3223090438616845,-2.4726279656042816,0.015623315449510764,0.006126628855529937,0.7410872067846163,-0.5499065287864864,0.005719191671475932,0.07155414,0.34159401,9.76345155,0.003537,0.000611,0.002131
880264.439138,4.236988999997266,-2.3132283386101133,-1.3188097032063075,-2.4700603115267237,0.015599092450480884,0.0063012745980119585,0.7401763618794991,-0.5497928336870125,0.005537240789818656,0.07648857,0.34967745,9.75850731,0.001185,0.000674,0.003475
880264.459124,4.2569750000257045,-2.3097829781516896,-1.3153863086521982,-2.467552623637667,0.01556080647659155,0.0065694738864044665,0.7392608898237426,-0.5496867407442181,0.005370122809156183,0.07813665,0.36883638,9.70971237,0.001185,0.000674,0.003475
880264.47911,4.276960999937728,-2.30643337987948,-1.3120324578418745,-2.465118663374235,0.015541280401228276,0.006783032150431073,0.738341873360868,-0.5495850243944094,0.005276324468535294,0.08098155,0.37706697,9.71823726,0.00248,0.002218,0.004231
880264.499096,4.296946999966167,-2.3031723780036466,-1.3087428632122886,-2.4627527753959315,0.015428369455161087,0.006843948836030108,0.7374277742497939,-0.5494848787301797,0.005117809989063781,0.07050447,0.37302525,9.76464837,0.003926,0.001907,0.003314
880264.519082,4.316932999994606,-2.300000924037352,-1.3055123381709846,-2.460501756446184,0.015362774518962978,0.006801931022041477,0.7365202421754833,-0.5493796333902077,0.004858162856141209,0.0691605,0.36389214,9.72407421,0.003103,0.001173,0.001868
880264.539068,4.336919000023045,-2.2969147374919916,-1.3023476821175495,-2.4582731342607222,0.015393257450498656,0.006720404488568265,0.7356164598843244,-0.5492662248164268,0.004905071372440093,0.07603731,0.3543175799999999,9.75431844,0.003036,0.004684,0.005497
880264.559054,4.356904999935068,-2.2939099037861417,-1.2992352439671608,-2.456128380709358,0.015404478857189865,0.006387202786658882,0.7347254229347154,-0.549134427431872,0.004855372099406136,0.07184844,0.32018859,9.7784118,0.003306,0.001649,0.004315
880264.579039,4.376889999955893,-2.2909836670830264,-1.2961816421752643,-2.4540952429195317,0.015392344663888278,0.006212707080215668,0.7338431270785285,-0.5489906631386957,0.0048139607287871165,0.07079877,0.31629402,9.77407578,0.00161,0.002983,0.004368
880264.599025,4.396875999984331,-2.2881355888923536,-1.2931859757692399,-2.4521692249770255,0.015447130045151787,0.00615786929718471,0.732962907449099,-0.5488379255297196,0.004705566038652855,0.07903917,0.31629402,9.75536811,0.004728,0.003229,0.003472
880264.619011,4.41686200001277,-2.2853570640299665,-1.290240181559699,-2.4503098677951956,0.015396092409896032,0.005866575257287986,0.7320964509010969,-0.5486710556034563,0.0046512618281036285,0.06706116,0.28709946,9.74712771,0.002164,-0.001342,0.00405
880264.638997,4.436847999924794,-2.2826517760966847,-1.2873499151052357,-2.4484989900127245,0.015490278335167789,0.005628669992651514,0.7312361518591955,-0.5484882009078221,0.004563157521576739,0.07903917,0.2718351,9.76164651,0.002662,0.00306,0.003564
880264.678968,4.476818999974057,-2.28034205122296,-1.2846349410155502,-2.4467213596973316,0.018199388641114273,0.006728460605067858,0.729728659842317,-0.5480785531188767,0.004569225195536179,0.06137136,0.28874754,9.75072798,0.00291,0.000581,0.004669
880264.698955,4.49680600001011,-2.2778681137635903,-1.2818910315908407,-2.4450104170774356,0.015885921136002366,0.005864442006501888,0.7287794407372189,-0.5478610198336824,0.00442624632672891,0.07065162,0.28410741,9.76060665,0.004714,0.001609,0.002884
880264.718941,4.516792000038549,-2.275396764682607,-1.279182328001038,-2.443327222551546,0.01543301772798493,0.00575857447242157,0.7279090470672128,-0.5476712920521776,0.004338304551289872,0.07155414,0.29024847,9.73306017,0.001433,0.002342,0.003392
880264.738927,4.536777999950573,-2.272959735340478,-1.276516427901324,-2.4417283234286593,0.01536541912144741,0.005869254885964469,0.7270501981180684,-0.5474878239161646,0.004279322001106334,0.07768539,0.30147111,9.76913154,0.003102,0.002218,0.003648
880264.738927,4.536777999950573,-2.270524590473018,-1.2738832972336822,-2.440212608454416,0.010302682061556571,0.003964394863604764,0.7267271178197118,-0.5474861870503673,0.004229222245099192,0.07768539,0.30147111,9.76913154,0.003102,0.002218,0.003648
880264.758913,4.556763999979012,-2.2681263328977335,-1.271290635022978,-2.43873391260909,0.014058995791742445,0.005526423675690555,0.7260430107657178,-0.5473627100806816,0.004034264313145107,0.06196977,0.30386475,9.76599234,0.001089,-0.000307,0.001702
880264.798884,4.596735000028275,-2.266137804893991,-1.2688934435939334,-2.4371832613263495,0.018063425197453773,0.007413943774578041,0.7245548031627648,-0.5469894134946998,0.0040359846083653115,0.08412075,0.3239262,9.76090095,0.00297,0.00097,0.004084
880264.81887,4.6167209999402985,-2.263975126157486,-1.2664556311811588,-2.4356143835675654,0.01568002581026351,0.0066022620406238335,0.7236015977459545,-0.5467958656744556,0.00417071325518953,0.06601149,0.32976315,9.75326877,-0.000392,0.003125,0.005715
880264.838856,4.636706999968737,-2.261816539761898,-1.2640448593934819,-2.4341453804102677,0.015130932973397819,0.006604294311667348,0.7227254057258935,-0.54663382329511,0.004079415639584547,0.06511878,0.3441348,9.72647766,0.003758,0.002368,0.003073
880264.838856,4.636706999968737,-2.2596427372626176,-1.261652539698563,-2.43274591079487,0.010117547096037972,0.004446748404365386,0.7224011092842589,-0.5466353454047665,0.004001660570402276,0.06511878,0.3441348,9.72647766,0.003758,0.002368,0.003073
880264.878828,4.676679000025615,-2.2578462333388116,-1.259431614162255,-2.431383426005974,0.017383725265602477,0.007579090530087202,0.7210573511923336,-0.5463239661477065,0.0039052143745201234,0.0811287,0.33380487,9.75551526,0.003592,0.003124,0.002843
880264.898814,4.696664999937639,-2.255851526534055,-1.257154550656885,-2.4300031693335917,0.015519909997804596,0.0067886693680776905,0.7201228520909909,-0.5461363410761104,0.0038436273505611167,0.07349652,0.33260805,9.75745764,0.003519,0.001878,0.00317
880264.9188,4.7166509999660775,-2.25386864134143,-1.2549023373346042,-2.4287199346366686,0.015138508204048494,0.006636409113337666,0.7192539786267773,-0.5459646648302262,0.003950538209861068,0.07469334,0.3324609,9.73829871,0.002541,0.003358,0.005194
880264.938786,4.736636999994516,-2.2519135266615784,-1.252675311041836,-2.427460248601705,0.015104383747170455,0.00635720273376709,0.7184055229610798,-0.5457838647000299,0.003968217531005321,0.07619427,0.3034233,9.78829047,0.004173,0.000795,0.004194
880264.958772,4.756623000022955,-2.2499881988128974,-1.2504879511785156,-2.426205612398079,0.01499803366208105,0.006298821905851397,0.7175661045949561,-0.5456033355734893,0.003923503737920794,0.06675705,0.31134978,9.76404996,0.002888,0.002558,0.003432
880264.978757,4.776607999927364,-2.2481000833080276,-1.2483366843207406,-2.4250279283478036,0.01492845306933472,0.0063022842621858295,0.716731509144714,-0.5454220376341674,0.0038968693352856407,0.06571719,0.31419468,9.76688505,0.004202,0.002587,0.003611
880264.998743,4.796593999955803,-2.246253079673304,-1.2462176754214365,-2.423912527763271,0.014984377402886112,0.0062001696387458324,0.7159000834161798,-0.5452321106599635,0.0038644811500110304,0.07394778,0.30027429,9.77601816,0.003027,0.000233,0.00351
880264.998743,4.796593999955803,-2.244404199205957,-1.2441265655194216,-2.422856095800225,0.010054145213675085,0.004174556496382858,0.7155908829731212,-0.5452144361047191,0.0038368516512916717,0.07394778,0.30027429,9.77601816,0.003027,0.000233,0.00351
880265.038715,4.836566000012681,-2.242915726021422,-1.2421963730347685,-2.4217574869905474,0.017248162143344976,0.0071790117022438584,0.7142910853184703,-0.5448655853540789,0.0038513225524777848,0.0778423499999999,0.30821058,9.76195062,0.004521,0.001945,0.004037
880265.058701,4.856551999924704,-2.241238051003045,-1.2402057549102452,-2.420760796229282,0.01553172586541339,0.006392743247467563,0.7133839989944141,-0.5446404527152704,0.003718452137587925,0.08502327,0.29952873,9.77287896,0.002014,0.001933,0.002208
880265.078687,4.876537999953143,-2.239556334683559,-1.2382404710532569,-2.4197426141459166,0.015006226237503393,0.006296867016829912,0.7125437476972221,-0.5444427509828919,0.0037567260796591766,0.06466752,0.31134978,9.76224492,0.003541,0.003401,0.004217
880265.098672,4.896522999973968,-2.2378938617704143,-1.236306415964713,-2.4186997490107953,0.014868913278490764,0.006416862189389902,0.7117137688446555,-0.5442563338947471,0.0037767149633049645,0.07005321,0.3242303099999999,9.75236625,0.003734,-6.6e-05,0.004027
880265.118659,4.916510000010021,-2.236262226651234,-1.2344015820970233,-2.4176854630955513,0.014980163376992435,0.006525469842718539,0.7108791347770883,-0.5440689175166745,0.0038793805830461495,0.08906499,0.32527017,9.76704201,0.005084,0.001525,0.005089
880265.138645,4.93649600003846,-2.234652687133372,-1.2325217974138247,-2.4167959290722205,0.014819852036156999,0.006523859140640237,0.710052934588809,-0.5438830407372578,0.0038200959858305135,0.06571719,0.32377905,9.7812567,0.003963,0.000915,0.003147
880265.158631,4.956481999950483,-2.2330761085089708,-1.2306742346596757,-2.415927009317475,0.014825906280429296,0.006596664813929154,0.709225563631991,-0.5436981773036998,0.0037656237886115533,0.07679268,0.32946885,9.73380573,0.003963,0.000915,0.003147
880265.178617,4.976467999978922,-2.2315280274906284,-1.2288555930493739,-2.4150215160686477,0.014810589173190527,0.006577964365650761,0.708400372282867,-0.5435129671468095,0.0036894198821529095,0.07469334,0.3236319,9.76404996,0.003826,0.001239,0.002817
880265.198603,4.996454000007361,-2.230009261422368,-1.227061799070617,-2.4142328176398813,0.014780965805275638,0.006489768274061832,0.7075813320422913,-0.543321492130346,0.0037039505904835966,0.07139718,0.3150972,9.752670360000002,0.001614,0.001206,0.003888
880265.218588,5.0164390000281855,-2.2285179785563245,-1.2253023229044804,-2.413433517451455,0.014733720595895705,0.006602244101988349,0.7067614043541811,-0.5431352279831334,0.003654823434641571,0.07215255,0.33186249,9.737101890000002,0.003444,0.003899,0.003095
880265.238574,5.036424999940209,-2.227058236960022,-1.2235629063370417,-2.412711107402007,0.01481084138137635,0.006449627991686682,0.7059454255082884,-0.5429379590896855,0.0035771180033714075,0.0791863199999999,0.30716091,9.780962400000002,0.00306,0.001542,0.002681
880265.25856,5.056410999968648,-2.22562281437637,-1.2218558364491847,-2.411958767778424,0.014781070904132183,0.006482066759797417,0.7051304323755311,-0.5427426577477715,0.003532762843908986,0.0754389,0.31913892,9.746235,0.002056,0.000598,0.003027
880265.278546,5.076396999997087,-2.2242140479841015,-1.2201756468276304,-2.4112100649625985,0.014772055149114085,0.006499009204717641,0.704316401543285,-0.5425472971939893,0.003515359699506891,0.07693983,0.31883481,9.72691911,0.004434,0.002945,0.003325
880265.298532,5.096383000025526,-2.2228295634262842,-1.2185163961015522,-2.410557156068157,0.014702662957630412,0.006382651598788263,0.7035106377084264,-0.542346753160916,0.0035179347033435534,0.06795387,0.3065625,9.76329459,0.00213,0.001041,0.00356
880265.318518,5.116368999937549,-2.2214711354572363,-1.2168827550123662,-2.409885918973552,0.014698941258245475,0.006282909475744358,0.7027093587291943,-0.5421421138046884,0.003582498104320869,0.07079877,0.30042144,9.76508982,0.003095,0.003088,0.004352
880265.338504,5.136354999965988,-2.2201363751874554,-1.2152777534538026,-2.4092197199058902,0.014673257373802465,0.006330401056446685,0.7019085619490403,-0.5419392528841727,0.0036244646678813934,0.07125003,0.31060422,9.75640797,0.002381,0.002296,0.004129
880265.35849,5.156340999994427,-2.218827031460828,-1.213697727244811,-2.408579446042377,0.014705547958675945,0.0063839749291928274,0.7011060434429129,-0.5417360615605872,0.003612370002472214,0.07768539,0.31270356,9.74384136,0.003208,0.003088,0.003482
880265.35849,5.156340999994427,-2.2175035870717363,-1.212129501805796,-2.4079741001383685,0.009866692784691692,0.004297158587620251,0.7008126931215268,-0.5417008404478321,0.003602048473236803,0.07768539,0.31270356,9.74384136,0.003208,0.003088,0.003482
880265.398462,5.196312999934889,-2.2165177698094687,-1.2107202672076347,-2.407405203224395,0.01688787416403234,0.00752083952331022,0.6995487330266336,-0.5413526377415682,0.0035997991737762537,0.08023599,0.32258223,9.75716334,0.004124,0.001247,0.003584
880265.418448,5.216298999963328,-2.215326323197109,-1.2092327604320934,-2.4068515601721847,0.014978314221280988,0.006687528559769651,0.6986781033655065,-0.5411310667525993,0.0036207671614871904,0.06122421,0.31689243,9.77496849,0.002919,0.003425,0.003874
880265.438434,5.236284999991767,-2.2141303715981864,-1.2077560427145497,-2.406398131041061,0.014631118641173474,0.006572054791570062,0.6978670300707523,-0.5409272045292034,0.0036339949061065754,0.07139718,0.32213097,9.76060665,0.002214,0.001687,0.003796
880265.478406,5.2762569999322295,-2.2132775482188527,-1.2064318828197589,-2.405838421117089,0.01754364236588853,0.007739783470738345,0.6964288392449554,-0.5405128045815927,0.0036895639121992526,0.08786817,0.31404753,9.78230637,0.003715,0.003815,0.0043
880265.498392,5.296242999960668,-2.2121940308225834,-1.2050299618482723,-2.4053371949334426,0.015115091395467895,0.006732251892094287,0.6955395031356317,-0.5402806142413137,0.003627398967738357,0.06571719,0.31808925,9.765246780000002,0.002039,-0.00014,0.002956
880265.498392,5.296242999960668,-2.2110278877898537,-1.2036075441935232,-2.4048544246893133,0.009986689402248818,0.004462722434168884,0.695235447611432,-0.5402380408583087,0.0035746903413480693,0.06571719,0.31808925,9.765246780000002,0.002039,-0.00014,0.002956
880265.518376,5.316226999973878,-2.2098546634199643,-1.2021925264344124,-2.404364806402126,0.013526920069431939,0.00608188476525646,0.6945914389931742,-0.5400861969581457,0.0035859109590810267,0.07409493,0.3210813,9.749227050000002,0.003139,0.004128,0.003728
880265.558349,5.3562000000383705,-2.209020557003349,-1.2009227330688146,-2.40382189428154,0.017156362825284526,0.007507563026821563,0.6932223499046442,-0.5396843311244757,0.0037616191870719724,0.07125003,0.30506157,9.76300029,0.00217,0.002509,0.005702
880265.578335,5.376185999950394,-2.207992551223283,-1.1995906335911468,-2.4033482433203734,0.014961599767932541,0.006560997255489099,0.6923520885181206,-0.5394488500997296,0.0038159647601654512,0.06511878,0.30806343,9.78021684,0.003328,0.004333,0.004428
880265.598321,5.396171999978833,-2.20693612660843,-1.198262988781372,-2.4028782089670226,0.014516674222071103,0.006519319024942975,0.6915504132677472,-0.5392429665746287,0.0038356793446903447,0.06960195,0.32407335,9.75805605,0.004148,0.002643,0.004065
880265.618307,5.416158000007272,-2.2058767139074895,-1.19693967888743,-2.4024501372127784,0.014459706647602058,0.006434083082093302,0.6907643393276582,-0.5390372712964845,0.003981363048330775,0.07244685,0.31090833,9.77137803,0.002902,0.002396,0.005633
880265.638293,5.436144000035711,-2.2048253817984644,-1.1956350033356282,-2.402056921159998,0.014495439867966505,0.0065572986340674535,0.6899758693616022,-0.5388345239207504,0.003957848916343493,0.08143281,0.32631984,9.79368597,0.002223,0.00157,0.003698
880265.658279,5.456129999947734,-2.2037845487055545,-1.1943450750860491,-2.401640334261591,0.01447773181302988,0.006585955167825767,0.6891882279038715,-0.5386336512956543,0.003910212943447012,0.07753824,0.3239262,9.77751909,0.003892,0.002819,0.003374
880265.678265,5.476115999976173,-2.2027588771679785,-1.1930745696744383,-2.401242798475521,0.014487424250265401,0.00669292326541987,0.6883978028679584,-0.5384356541607632,0.0037800695664399427,0.08248248,0.33351057,9.77182929,0.004273,0.000751,0.002295
880265.698251,5.496102000004612,-2.201745721961524,-1.1918154303180006,-2.4008425420899506,0.014405660720120108,0.00656957830344592,0.687615419848005,-0.5382352273336068,0.003811938307135991,0.06990606,0.31689243,9.7781175,0.002545,0.001592,0.004186
880265.698251,5.496102000004612,-2.20071467020789,-1.1905639742276846,-2.400472510087818,0.009662048424234838,0.004412920511197524,0.6873312555358883,-0.5381936345300644,0.0038392283450403883,0.06990606,0.31689243,9.7781175,0.002545,0.001592,0.004186
880265.698251,5.496102000004612,-2.199636026480648,-1.1893015653883348,-2.400123209490645,0.0075210089069739985,0.0034382899648343177,0.6871568228610668,-0.5381861951374224,0.0038628703435089184,0.06990606,0.31689243,9.7781175,0.002545,0.001592,0.004186
880265.758209,5.556059999973513,-2.1995535640848582,-1.1885051579032335,-2.3996694228961664,0.018181660164305048,0.008496389513480428,0.6853569192985324,-0.5376744579301251,0.003974945226160701,0.07469334,0.33170553,9.77916717,0.003251,0.000861,0.005235
880265.778195,5.576046000001952,-2.198748108496763,-1.1873840354838416,-2.3992800419613656,0.015029371727110476,0.007047392535570789,0.6844453143364821,-0.5374403306186675,0.003965096511149379,0.07110288,0.33110712,9.77766624,0.001638,-0.000218,0.003861
880265.798181,5.596032000030391,-2.197874512639063,-1.1862342076426227,-2.398952192420819,0.01449349761853639,0.006639440133130216,0.6836434945866531,-0.5372307330052265,0.003952217985909029,0.07679268,0.31479309,9.77871591,0.002653,0.00203,0.003812
880265.818167,5.6160179999424145,-2.1969729433671326,-1.1850849035524293,-2.3986236400166066,0.014277299680884196,0.006562909967274834,0.6828663389594414,-0.5370294757158128,0.00396842013597184,0.06556023,0.32213097,9.76823883,0.002374,0.000146,0.004159
880265.838153,5.636003999970853,-2.1960702997948887,-1.1839433641514114,-2.3982767728938343,0.014267720999501979,0.006543921529196245,0.6820936110710178,-0.5368285831398207,0.004106787364638049,0.07289811,0.32093415,9.7493742,0.00079,0.001691,0.005698
880265.858139,5.655989999999292,-2.195172691282679,-1.182813014642351,-2.3979513193174116,0.014247073470583353,0.006532783116653871,0.6813234596225257,-0.5366275966683277,0.004053943685236631,0.07125003,0.320787,9.76374585,0.004396,0.000555,0.003452
880265.878124,5.675975000020117,-2.1942841200107646,-1.181693940214666,-2.397665364309556,0.014204017108946771,0.006476055426149654,0.6805580269468815,-0.5364247201305621,0.004050588988632773,0.06706116,0.31598991,9.77092677,0.000487,-0.000475,0.004017
880265.89811,5.69596099993214,-2.1934087091040553,-1.1805879945902333,-2.397337699797219,0.014232290389288945,0.00640258677426944,0.6797946344309151,-0.5362187624833956,0.00411267246745227,0.07184844,0.30955455,9.75850731,0.002879,0.000755,0.004837
880265.918096,5.715946999960579,-2.192545191674706,-1.1794977207863586,-2.397030629002068,0.014236663472498428,0.006415556510988135,0.6790316166150449,-0.5360125336916612,0.004057822213091811,0.07289811,0.31464594,9.76000824,0.003759,0.0013,0.003427
880265.938082,5.735932999989018,-2.1916950528768693,-1.1784261391925959,-2.39670788151746,0.014271184952932982,0.006580450566709229,0.6782626746520066,-0.5358111895964622,0.0039959928876126104,0.0811287,0.33095997,9.752817510000002,0.003056,0.002004,0.003283
880265.958068,5.755919000017457,-2.19085374079187,-1.177361073325626,-2.3964212859265883,0.014177333153226444,0.006461660951881866,0.6775021028398267,-0.5356074996794166,0.003951064995939184,0.06541308,0.31270356,9.76300029,0.003519,0.001611,0.003433
880265.978054,5.77590499992948,-2.1900261727329,-1.176314595190918,-2.396191674202795,0.014160501990246363,0.006568623631718579,0.6767398198041529,-0.5354067592114371,0.0038533597966709503,0.07289811,0.32946885,9.749227050000002,0.003002,0.001423,0.002718
880265.99804,5.795890999957919,-2.1892073255037627,-1.1752788286223974,-2.395919234515142,0.014049408855513394,0.006545227948232778,0.6759828267777848,-0.5352092926524549,0.0038931751877281603,0.06077295,0.3242303099999999,9.76778757,0.005146,0.003798,0.004363
880266.018026,5.815876999986358,-2.1884056792943,-1.1742524195774817,-2.39575269290415,0.01414451143350205,0.0064358230048213744,0.6752277232688662,-0.5350020226032428,0.0040303538432516234,0.07484049,0.31015296,9.77587101,0.003037,-5e-05,0.005637
880266.038012,5.835863000014797,-2.187616255558615,-1.1732429277451812,-2.3955223848377387,0.014237110481054086,0.006481776713023866,0.6744681209703205,-0.5347948025240133,0.004006063905622503,0.08337519,0.31913892,9.75386718,0.003643,0.003292,0.003726
880266.057998,5.85584899992682,-2.1868333713142234,-1.1722460518720486,-2.395302749293135,0.014141952163682902,0.00651833698807121,0.6737115706780824,-0.5345914889995586,0.004031633313691532,0.06975891,0.3242303099999999,9.75671208,0.003434,0.002264,0.004335
880266.09797,5.895820999983698,-2.186390600071537,-1.1714021967857067,-2.395047108049998,0.017094814305684474,0.007806283327862605,0.6723399914787255,-0.5341839255530658,0.004179360304014531,0.09445068,0.320787,9.75731049,0.003791,0.002655,0.005789
880266.117956,5.915807000012137,-2.1857246916906536,-1.1704707420016573,-2.3948671452822046,0.01472447375453482,0.0067611435511627386,0.6714933055633974,-0.5339484994669551,0.004266229445826199,0.0694548,0.3204828899999999,9.76554108,0.001462,0.002007,0.005225
880266.117956,5.915807000012137,-2.184975278814672,-1.1695112929568425,-2.3947145368776983,0.009728562435626791,0.0044760198110318115,0.6712064184351934,-0.5338944442285929,0.004340020749417208,0.0694548,0.3204828899999999,9.76554108,0.001462,0.002007,0.005225
880266.157928,5.955778999952599,-2.1845350752072066,-1.1686945870537564,-2.3946047656298806,0.01640330275604731,0.007552167625256792,0.6700055050706206,-0.5335441115264629,0.0041841330339532756,0.08696565,0.32347494,9.74099646,0.005947,0.004141,0.002465
880266.157928,5.955778999952599,-2.183832198431733,-1.1677698346026009,-2.3944366817594815,0.010384082469381073,0.004789307256397811,0.6696759353253542,-0.5334756797992771,0.004051669658442581,0.08696565,0.32347494,9.74099646,0.005947,0.004141,0.002465
880266.1979,5.995751000009477,-2.183412653247493,-1.1669720663038528,-2.3942425894381913,0.016477340976033646,0.007514037306689019,0.6684587974116348,-0.5331154691044366,0.004062507847739106,0.08547453,0.31808925,9.77960862,0.002319,0.000484,0.004186
880266.217886,6.015737000037916,-2.1827638763556134,-1.1660830040106378,-2.3941175980235707,0.01448966591949605,0.006674064163776402,0.6676385690274486,-0.5328870490304914,0.004001270806760021,0.06331374,0.32138541,9.77737194,0.003574,0.001252,0.003319
880266.237872,6.0357229999499395,-2.182089571389883,-1.1651870867816359,-2.393969108181971,0.01410164861715056,0.006478639464299103,0.6668801286422752,-0.5326776252672573,0.004268547370510339,0.06975891,0.31763799,9.77661657,0.004779,0.002011,0.007282
880266.237872,6.0357229999499395,-2.1813700268924463,-1.1642804975019039,-2.393881674983722,0.009436417816796404,0.00434081303058642,0.6666082874790334,-0.5326261937467872,0.004496394623691991,0.06975891,0.31763799,9.77661657,0.004779,0.002011,0.007282
880266.277844,6.075695000006817,-2.1809492634211347,-1.1635172470040493,-2.393762524486654,0.015992050662932054,0.007473292819732722,0.6654409988814768,-0.5322914181635908,0.004428003138480946,0.06840513,0.32602554,9.75147354,0.003065,0.001135,0.003662
880266.29783,6.095681000035256,-2.1803286868204492,-1.1626662824985454,-2.393647782957475,0.014421909073196078,0.006746910515772404,0.6646258023595727,-0.532068256331595,0.004408424292213763,0.08172711,0.32766381,9.76374585,0.005321,0.002585,0.004189
880266.317816,6.11566699994728,-2.1796827037631976,-1.1618050502147756,-2.393485771618539,0.014045788529707155,0.006415962861620887,0.6638740149889396,-0.5318588460839735,0.004396766220159014,0.06720831,0.30806343,9.79967007,0.001267,-0.001611,0.004267
880266.337802,6.135652999975719,-2.1790300217615926,-1.160951969947404,-2.393351393609621,0.01394305907583055,0.006441254788256947,0.6631332425849236,-0.5316552617890434,0.004474102920341699,0.06990606,0.32347494,9.76913154,0.00261,0.002573,0.005361
880266.357788,6.155639000004157,-2.178379466385098,-1.1601068320156382,-2.393262366061312,0.01392818408974263,0.006531231171340277,0.6623925724327135,-0.531454719843482,0.004570399704512904,0.07409493,0.33095997,9.76972995,0.003776,0.000353,0.005678
880266.357788,6.155639000004157,-2.1777014211719923,-1.1592558378236872,-2.3931979488337247,0.009343663534652692,0.004389748881788025,0.6621247031449085,-0.5314040286360927,0.004652737795604915,0.07409493,0.33095997,9.76972995,0.003776,0.000353,0.005678
880266.397759,6.195609999937005,-2.177320068322331,-1.1585437363708622,-2.393061062257312,0.015904818570310227,0.007460278372817492,0.6609689149317055,-0.5310724867654515,0.004657646491308324,0.06856209,0.32527017,9.76508982,0.004638,0.00207,0.004716
880266.417745,6.215595999965444,-2.176745265675233,-1.1577476133338203,-2.392934896722105,0.01435917701700871,0.006701713381111386,0.6601617424526325,-0.5308496614277155,0.0045705732231847785,0.08248248,0.32437746,9.77392863,0.002623,0.001248,0.003576
880266.437731,6.235581999993883,-2.1761495804332687,-1.1569445642060125,-2.392841065058998,0.014085408286077555,0.0064680420316263615,0.6594112129942155,-0.5306387788575408,0.004617290185317664,0.08098155,0.31494024,9.79413723,0.004725,0.000643,0.005156
880266.457717,6.255568000022322,-2.1755461797143996,-1.1561416289400082,-2.3927404285760194,0.014026129320583338,0.006306731828851417,0.658675881717793,-0.5304267731768586,0.00451484419692187,0.07768539,0.30536568,9.80071974,0.001606,-0.000528,0.003335
880266.477703,6.2755539999343455,-2.1749402556538837,-1.1553514382471188,-2.3926014609215094,0.013914699896341757,0.006438574387952779,0.6579420719720882,-0.5302240572076781,0.004561839866401387,0.07244685,0.32931189,9.75940983,0.003267,0.002842,0.005108
880266.497689,6.295539999962784,-2.174339780955977,-1.1545654001577668,-2.3925021079828825,0.013879201955928334,0.006429878783375016,0.6572109219324895,-0.5300217547146486,0.004325307255188993,0.07275096,0.32153256,9.765246780000002,0.003096,0.000795,0.001584
880266.517675,6.315525999991223,-2.1737465617920777,-1.1537825450923105,-2.3924483077568883,0.013889973312324728,0.006277191745297523,0.6564856021108731,-0.5298122440879277,0.004401579064948402,0.07260381,0.30506157,9.79892451,0.002126,0.000162,0.005289
880266.537661,6.335512000019662,-2.173162566179179,-1.1530167268398581,-2.392390223567802,0.013974109394239216,0.006466531096328577,0.6557518790112722,-0.529606847895338,0.0043959893318135075,0.08831943,0.33110712,9.76838598,0.003749,0.003936,0.004332
880266.557647,6.355497999931686,-2.172582518524008,-1.1522568101537274,-2.3923051245954463,0.013929119173755646,0.006508519598368886,0.6550188535794829,-0.5294049237527967,0.004381965458969428,0.07903917,0.32856633,9.78170796,0.00322,0.000237,0.00422
880266.577633,6.3754839999601245,-2.1720093766365154,-1.151498961993112,-2.3922588943353627,0.013891216251477202,0.006338943206949297,0.6542936061379353,-0.5291973743616774,0.004375666529360096,0.07320222,0.30880899,9.7812567,0.004305,0.00173,0.004303
880266.597619,6.395469999988563,-2.1714415086836425,-1.1507508092677012,-2.392181280603697,0.013810646839920282,0.0062730242487972565,0.6535737704338421,-0.5289906273336064,0.0044413105919243485,0.06735546,0.31165389,9.75147354,0.001972,-0.00094,0.00521
880266.617605,6.415456000017002,-2.1708821017888402,-1.1500158190266516,-2.3920387916852923,0.013810073260344774,0.006388445239843857,0.6528504430200146,-0.5287893009789159,0.004491088130700837,0.07559586,0.32646699,9.76224492,0.00316,0.001583,0.005076
880266.637591,6.435441999929026,-2.1703299398778566,-1.1492883825499878,-2.3919709425502798,0.013814821354855532,0.0064668199435891525,0.6521255544411658,-0.5285891394974362,0.004402380376135387,0.07753824,0.32931189,9.76718916,0.004606,0.002692,0.003365
880266.657577,6.455427999957465,-2.169785231585842,-1.1485633033794798,-2.3919382703639327,0.01383805904602144,0.006344606292949778,0.6514047569885074,-0.528383136867945,0.004327121844783495,0.07663572,0.31194819,9.78859458,0.001396,0.001416,0.003446
880266.677564,6.475414999993518,-2.1692468490407393,-1.1478530614554112,-2.391905515638129,0.013839858828914971,0.0065033368592471935,0.6506794484833182,-0.5281825181520451,0.004313936215444688,0.08172711,0.33545295,9.74159487,0.004247,0.003049,0.00416
880266.69755,6.495401000021957,-2.168715430061413,-1.147148712810953,-2.3917926955395736,0.013859283410825101,0.0065410244286092465,0.6499524460043072,-0.5279840913580407,0.004413163030805576,0.0836793,0.33141123,9.79218504,0.00331,0.001891,0.005579
880266.717536,6.51538699993398,-2.1681863396801133,-1.146444231826374,-2.3917219782719985,0.013737033660991148,0.006320536753826231,0.6492376313274871,-0.5277811970082882,0.004348966194391081,0.06436341,0.30910329,9.77632227,0.002022,0.000292,0.003597
880266.737522,6.535372999962419,-2.1676645438157625,-1.145756227941771,-2.3916134983547646,0.013688848673401194,0.006473879565914972,0.6485199567844174,-0.5275858507972018,0.004359649341813979,0.07215255,0.33634566,9.75132639,0.004299,0.00186,0.004487
880266.757508,6.555358999990858,-2.167152242956917,-1.1450718489020089,-2.391534096320417,0.013760670436736523,0.006462122832283253,0.6478010984956872,-0.5273870629393356,0.00441921247819465,0.08098155,0.32542713,9.77766624,0.001705,0.000689,0.00512
880266.777494,6.575345000019297,-2.1666447007030722,-1.1443920826638383,-2.3914443257432385,0.013763111977081476,0.006370940823118779,0.6470857456970251,-0.5271850130995132,0.00459758132342198,0.07634142,0.31703958,9.80012133,0.004252,0.001512,0.006694
880266.817466,6.615316999959759,-2.1664541943360014,-1.1438606228716162,-2.391365960834825,0.016545730884814824,0.007648423963732886,0.6457911912623487,-0.5267936754013919,0.004605570418597548,0.09100737,0.3236319,9.75970413,0.004824,0.001341,0.004694
880266.837452,6.635302999988198,-2.166048919251076,-1.1432395375712028,-2.3912878423903705,0.014269049105524725,0.006657462136439379,0.6449904606003503,-0.5265662382043294,0.004555491113794975,0.07139718,0.32602554,9.77108373,0.004203,0.001745,0.004005
880266.837452,6.635302999988198,-2.1655597719946598,-1.142585255554584,-2.391205002192698,0.009427687661320554,0.004406577958500906,0.6447199534898848,-0.5265093823651388,0.004512954615726856,0.07139718,0.32602554,9.77108373,0.004203,0.001745,0.004005
880266.857438,6.655289000016637,-2.1650481080394863,-1.1419198452692947,-2.391124407540238,0.012726697365563786,0.005821638527543652,0.644147427479507,-0.5263503728745706,0.004595145281996205,0.06975891,0.31134978,9.80416305,0.002803,0.003158,0.005578
880266.89741,6.6952609999571,-2.164840741317661,-1.141402012394242,-2.391061314361761,0.016153842559274947,0.007505993303486327,0.6429090469696475,-0.5259791350346219,0.004548084108385634,0.07589016,0.32452461,9.7929306,0.001368,0.002044,0.00403
880266.917396,6.715246999985538,-2.1644419785228344,-1.1407964486830788,-2.3909882838038024,0.014069059426078473,0.0064992965713790525,0.6421261176646216,-0.5257533534425003,0.004559414046192471,0.06481467,0.31569561,9.78769206,0.004145,0.001706,0.004687
880266.917396,6.715246999985538,-2.1639679379731676,-1.1401638905126035,-2.3909218036346873,0.009303456272973923,0.004301810502272294,0.6418604058554369,-0.5256962837835338,0.004569062226919501,0.06481467,0.31569561,9.78769206,0.004145,0.001706,0.004687
880266.957368,6.755218999926001,-2.1637834044090285,-1.1396613831281603,-2.390820733241461,0.015727985009328743,0.007211227605417938,0.6407452083589379,-0.5253591741450611,0.004523704639492848,0.07873506,0.31734369,9.77601816,0.002558,0.003429,0.00402
880266.957368,6.755218999926001,-2.1633482165650593,-1.139053750879759,-2.3907066337110296,0.009956375785411602,0.004570955976835929,0.6404391471111369,-0.5252888988169189,0.0044851119904311025,0.07873506,0.31734369,9.77601816,0.002558,0.003429,0.00402
880266.99734,6.795190999982879,-2.1631778794930057,-1.1385751318693722,-2.3906596195672716,0.015806304400460557,0.007425142245631545,0.6392973027226064,-0.5249530727019499,0.004413173779779972,0.08128566,0.32976315,9.77287896,0.002462,0.001913,0.003612
880267.017326,6.815177000011317,-2.1627899929942767,-1.1379932856765025,-2.390539524579604,0.014027839975189199,0.0065168978067476555,0.6385252911839385,-0.5247330082840302,0.004411025400694402,0.07139718,0.31703958,9.77871591,0.004188,0.00181,0.004389
880267.037312,6.835162999923341,-2.1623718614642393,-1.1374007542621203,-2.390487342657817,0.013683128791967276,0.00630299252228094,0.6378115370023759,-0.5245277622403631,0.004350959208694897,0.07424208,0.31598991,9.78529842,0.00163,-0.002209,0.003672
880267.037312,6.835162999923341,-2.1619069535252025,-1.1367939131753175,-2.3904263979844456,0.009156687848926457,0.0042209428386676,0.6375561597220387,-0.5244727923582995,0.004299722985973994,0.07424208,0.31598991,9.78529842,0.00163,-0.002209,0.003672
880267.077284,6.875134999980219,-2.161728575018204,-1.1363221272988644,-2.3903335537508914,0.015601784918943921,0.007267272858561948,0.6364528357306064,-0.5241457998118926,0.004207769243991435,0.07708698,0.3242303099999999,9.77182929,0.001509,0.0015,0.003173
880267.09727,6.895121000008658,-2.1613469113007944,-1.1357582036908958,-2.390262744574896,0.013962433990491517,0.006489196100972849,0.6356888595529553,-0.5239266965196164,0.004200800614620347,0.07499745,0.32093415,9.77032836,0.001368,6.3e-05,0.004123
880267.117256,6.915107000037096,-2.1609415599046806,-1.1351880853367016,-2.3901930571276258,0.01365695762572821,0.00637306358061372,0.6349760525238146,-0.5237251505871205,0.004209902478626409,0.07903917,0.32527017,9.764942670000002,0.004932,0.003225,0.004315
880267.137242,6.93509299994912,-2.16052353981306,-1.1346139077918531,-2.3900946933380833,0.01352732444387547,0.006272303822142045,0.6342781761179188,-0.5235271209866607,0.0041816819292553745,0.07005321,0.3179421,9.75626082,0.004084,0.000119,0.00386
880267.157228,6.955078999977559,-2.1601006754135277,-1.1340408274289404,-2.389979322353301,0.013398023592128485,0.006183692437305342,0.6335894143431858,-0.523330742103771,0.004287494497935487,0.06017454,0.31479309,9.78215922,0.002871,0.002512,0.005507
880267.177214,6.975065000005998,-2.1596829805867452,-1.1334744664299867,-2.3898888275170993,0.01344264997170355,0.006223187858210331,0.6328988908498493,-0.5231340775948369,0.0042355872024639404,0.07364367,0.320787,9.74384136,0.002951,0.00321,0.003638
880267.1972,6.995051000034437,-2.1592698217166597,-1.1329156748969602,-2.3898088869148992,0.013517828305505505,0.006348378172347592,0.632202614125486,-0.5229391099749832,0.004186683445359624,0.08292393,0.33110712,9.74832453,0.003694,0.004465,0.003622
880267.217185,7.015035999938846,-2.1588590536728374,-1.1323575398224603,-2.389791670933871,0.01351446846068881,0.006298719475116098,0.6315090993771242,-0.522741267044679,0.004146058879802294,0.07693983,0.320787,9.77601816,0.004427,0.003517,0.003675
880267.237172,7.035022999974899,-2.1584529119670104,-1.1318037404476724,-2.389766748242191,0.013528031866441814,0.006238430221405792,0.630817550557285,-0.5225411587441826,0.004051697805348886,0.0782838,0.31644117,9.7841016,0.003159,0.001646,0.002955
880267.257157,7.055007999995723,-2.1580510358071545,-1.1312545950491415,-2.389726686002916,0.013536920266840982,0.006181299490077576,0.6301280798658667,-0.5223390629099499,0.004019798880652476,0.07858791,0.31330197,9.780815250000002,0.003345,0.003518,0.003649
880267.277143,7.074994000024162,-2.1576524675634112,-1.1307134825154461,-2.389671613448592,0.013510916303306978,0.006239202888384899,0.6294381027986189,-0.522140180416273,0.003919455111574898,0.07813665,0.32318064,9.76883724,0.003053,-1.6e-05,0.00275
880267.297129,7.094979999936186,-2.157255513672126,-1.1301777154972044,-2.389633714013685,0.013404677076132968,0.0062919041415994475,0.628750703791843,-0.5219461679066063,0.0037853622398630903,0.06930765,0.32856633,9.76584519,0.003785,0.002992,0.00222
880267.297129,7.094979999936186,-2.15683624993139,-1.1296347863085934,-2.3895708127280395,0.008989234801281097,0.004226785426563024,0.6285024459391234,-0.5218931239171578,0.0036704302946842108,0.06930765,0.32856633,9.76584519,0.003785,0.002992,0.00222
880267.337101,7.1349519999930635,-2.156691017813657,-1.1292301285615904,-2.3895255483847317,0.015216952073925576,0.00738389342700698,0.6274246767039691,-0.5215879585291163,0.0037271652722508293,0.0663156,0.33829785,9.7957755,0.002087,0.001195,0.004382
880267.357087,7.154938000021502,-2.1563604981086146,-1.1287310903876817,-2.389469695979053,0.013704835452908886,0.006545974909046624,0.6266761855045745,-0.5213795857355412,0.003648765720682554,0.07424208,0.32557428,9.77632227,0.003288,0.00212,0.002743
880267.377073,7.174923999933526,-2.156007515398691,-1.1282239860576844,-2.3894369607356554,0.013438370594282085,0.0063407763655364815,0.6259796481331268,-0.5211831531909367,0.003731783850561024,0.07559586,0.32332779,9.78859458,0.001546,0.001972,0.004695
880267.397059,7.194909999961965,-2.155644109900444,-1.1277167353900244,-2.389394452769184,0.013388781440898879,0.0063247871624580385,0.6252925067920702,-0.5209902617637491,0.0037124841575269492,0.07663572,0.32796792,9.77781339,0.003368,0.003252,0.003489
880267.417045,7.214895999990404,-2.1552781971136423,-1.1272112366400302,-2.389324564448941,0.013396711363287312,0.006334052623389032,0.6246065841651357,-0.5207983880536059,0.0037272978120609164,0.0791863199999999,0.32871348,9.79368597,0.003388,0.002572,0.003901
880267.437031,7.2348820000188425,-2.1549132109917912,-1.1267066127001695,-2.38931323206535,0.013409694494878416,0.006279482154376697,0.6239232147956643,-0.5206031279667727,0.0037907671657814146,0.07903917,0.32227812,9.76764042,0.003007,9e-06,0.004531
880267.477003,7.274853999959305,-2.154839666321692,-1.1263353682557025,-2.3892650442561534,0.01592399935618598,0.00738860707183631,0.6227044442668453,-0.5202308576905534,0.003855727733205013,0.07603731,0.3198844799999999,9.76764042,0.002591,0.000316,0.00456
880267.477003,7.274853999959305,-2.1545328618929176,-1.125865510324419,-2.3892462858158416,0.009930051953858939,0.004612036621504748,0.6223959987013804,-0.5201559615196644,0.003910765517014369,0.07603731,0.3198844799999999,9.76764042,0.002591,0.000316,0.00456
880267.516975,7.314826000016183,-2.1544700692013583,-1.1255102219376032,-2.389191523764962,0.015440460369209562,0.0072159528002968916,0.6212976683374859,-0.5198270076517908,0.0038690080438723035,0.07589016,0.32437746,9.77901021,0.00277,0.001483,0.003414
880267.536961,7.334811999928206,-2.1541850907773012,-1.125054640834929,-2.3891895530787326,0.013677613464117847,0.006413632193440535,0.6205563933423303,-0.5196130720860385,0.003926776202762678,0.06885639,0.32437746,9.7894971,0.003335,0.000563,0.004565
880267.556947,7.354797999956645,-2.1538690568276757,-1.1245833289240454,-2.3891847629707312,0.013445492131752883,0.006195718876291921,0.6198677124757006,-0.5194113306983655,0.0038621015227993842,0.08248248,0.31494024,9.78589683,0.00431,0.000638,0.003141
880267.556947,7.354797999956645,-2.1535026212227444,-1.124095772840329,-2.389167685544652,0.009000754874884522,0.004147966554986559,0.6196210640894536,-0.519355178269432,0.0038070573510013365,0.08248248,0.31494024,9.78589683,0.00431,0.000638,0.003141
880267.596919,7.394770000013523,-2.1533979011217186,-1.1237354931991848,-2.389191684885172,0.01499995089979778,0.007073116687326547,0.6185753816736611,-0.5190461052071788,0.003607341660264452,0.05703534,0.32512302,9.77197644,0.004931,0.002519,0.00138
880267.616905,7.414755999925546,-2.1531100643677195,-1.1232913477956012,-2.389161542453886,0.013571397339413477,0.00646860897182242,0.6178404571637214,-0.5188394360000945,0.003631932138775714,0.0805302899999999,0.33514884,9.78021684,0.00371,0.000594,0.003909
880267.636891,7.434741999953985,-2.1527909633617734,-1.1228331558095885,-2.389078104826729,0.01316820694538909,0.006255117044070207,0.6171609329294409,-0.518650454215417,0.0035572264709092015,0.06047865,0.32497587,9.763893,0.003537,0.00242,0.002713
880267.656877,7.454727999982424,-2.15271160122129,-1.1223799427531533,-2.3890366196609065,0.013191278133898693,0.006240268668538778,0.6164964179516547,-0.5184718314201125,0.003635540648486133,0.07679268,0.3267711,9.77946147,0.004936,0.002088,0.004528
880267.676863,7.474714000010863,-2.15262507498176,-1.1219265872849915,-2.3890317902961797,0.013185066616185792,0.006226075916181646,0.6158346330191227,-0.5182927192095041,0.003636691706107733,0.07364367,0.32617269,9.79173378,0.002293,0.000714,0.00365
880267.696849,7.494700000039302,-2.152535645815398,-1.1214767376693962,-2.3890260532654652,0.013154988880741554,0.0062595074183777735,0.6151736009770336,-0.5181157693546182,0.003640947641956069,0.07199559,0.33126408,9.78170796,0.003647,0.004407,0.00369
880267.716835,7.514685999951325,-2.1524480189849244,-1.1210252857625538,-2.3890275933450136,0.01320127388930504,0.006125072045594873,0.614515838638617,-0.5179328834575989,0.0035288969491567073,0.07529175,0.31374342,9.77677353,0.001913,0.002202,0.002237
880267.736821,7.534671999979764,-2.152356431567228,-1.120582074583255,-2.3890347954868707,0.013078395711884381,0.006197991213629461,0.6138604724135064,-0.5177560265095424,0.003534243310606206,0.063765,0.33200964,9.77901021,0.002981,-0.000122,0.003596
880267.756807,7.554658000008203,-2.1522666679753333,-1.120140122682712,-2.388985201770441,0.01302748235049748,0.0061613528558272825,0.6132081414731188,-0.5175804912108399,0.0036496051755172125,0.06316659,0.32452461,9.78889869,0.002626,0.000581,0.004988
880267.776793,7.574644000036642,-2.1521839119401607,-1.1197034868484703,-2.388930599232962,0.013185822931218972,0.006190515845527462,0.612550146350972,-0.5174012933433213,0.003626495998924064,0.08457201,0.32497587,9.780658290000002,0.002538,-0.001612,0.003359
880267.796779,7.5946299999486655,-2.1520968133899405,-1.1192698646334276,-2.388890529432029,0.013105541719030955,0.0061919774062669936,0.6118953458853558,-0.5172244225277999,0.0035429327278966743,0.06856209,0.32766381,9.75685923,0.00182,0.003521,0.002571
880267.816765,7.614615999977104,-2.1520125080927883,-1.1188407303885073,-2.3888769338156592,0.013100835792924629,0.00622742059507162,0.6112403045388158,-0.5170483503472121,0.0034730791554491796,0.07349652,0.33081282,9.75776175,0.003797,0.000365,0.002659
880267.836751,7.634602000005543,-2.151930360606818,-1.118413504721426,-2.3888154746287915,0.01312983360937122,0.006190916523049394,0.6105857630126451,-0.5168708159864456,0.0036027812970011288,0.07619427,0.32452461,9.79787484,0.004761,0.002336,0.005118
880267.856737,7.654588000033982,-2.1518475439849745,-1.1179892305613799,-2.388730658736403,0.01308836399025531,0.006143264003106321,0.6099343974032724,-0.5166935593519856,0.0036160778305349053,0.07020036,0.32258223,9.77617512,0.003686,0.001235,0.003773
880267.876723,7.674573999946006,-2.1517666228617647,-1.1175748214575327,-2.3886804180156154,0.013078448344980568,0.006331434267503374,0.609278297116297,-0.5165221088651888,0.0037130224397731782,0.07708698,0.34518447,9.780962400000002,0.003844,0.000797,0.004848
880267.896709,7.6945599999744445,-2.151687489709681,-1.1171535691553627,-2.38869569489117,0.01308803359160621,0.006122480138427791,0.6086292793153459,-0.516342215905366,0.00372610126861132,0.07184844,0.31330197,9.78725061,0.0026,0.001442,0.003879
880267.916695,7.714546000002883,-2.1516101989677137,-1.1167420423550871,-2.388648605441583,0.013118730082991416,0.0061857571403106815,0.6079774449070824,-0.5161646272725183,0.003787131739464195,0.07933347,0.32976315,9.75731049,0.001398,0.001378,0.004503
880267.936681,7.734532000031322,-2.1515330497963365,-1.1163382298619566,-2.3886382624518627,0.013100401837419642,0.006379680491921003,0.6073209566296615,-0.5159933522102074,0.0038681420889800254,0.08067744,0.34862778,9.75147354,0.003856,0.003449,0.004818
880267.956667,7.754517999943346,-2.1514578335752046,-1.1159308754663522,-2.3886714062090975,0.01311206155700401,0.006284496003132684,0.6066677427479027,-0.5158179896802617,0.0037489876314710934,0.07888221,0.32856633,9.78560253,0.004365,0.001878,0.002351
880267.976653,7.774503999971785,-2.151379649874467,-1.1155280664711564,-2.38866121944339,0.012986632315213385,0.006259150167882758,0.6060197045496963,-0.5156463189571021,0.0037667201199316977,0.06586434,0.33395202,9.77512545,0.004149,0.002635,0.003975
880267.996639,7.7944900000002235,-2.151306384563486,-1.11513168668531,-2.388680964439046,0.013025648169090645,0.006352767239081514,0.6053681748638181,-0.5154760748030585,0.003742191879579752,0.07948062,0.34308513,9.76913154,0.005137,0.004551,0.003454
880268.036611,7.834461999940686,-2.1515123963369507,-1.1148569954105978,-2.38872477790344,0.015445330260343627,0.007319596626241655,0.6042087782011852,-0.5151365645009877,0.0036119056659460755,0.0694548,0.32318064,9.80895033,0.003152,0.001596,0.002193
880268.036611,7.834461999940686,-2.1514929111209034,-1.1144895583850984,-2.388712435375731,0.009627432079448928,0.004566152022626674,0.6039210687066606,-0.5150746880633075,0.0035014324571726574,0.0694548,0.32318064,9.80895033,0.003152,0.001596,0.002193
880268.076583,7.874433999997564,-2.151711644350081,-1.1142453363851215,-2.388672471133999,0.01506541603039152,0.007359955899676511,0.6028636184527186,-0.514781544841505,0.00362046582766523,0.07978473,0.34368354,9.77677353,0.004566,0.001984,0.004926
880268.096569,7.8944200000260025,-2.1517121882713575,-1.1138859249111819,-2.3886299606911185,0.013424044875610594,0.006358147761832055,0.6021552445327172,-0.5145865635997181,0.0035797244296003504,0.07484049,0.31778514,9.80670384,0.001831,-0.00019,0.003129
880268.116555,7.914405999938026,-2.1516761125161716,-1.1135162851609686,-2.388598130614465,0.01313538008615751,0.006218825164649609,0.6014974149211106,-0.5144071846655969,0.0035940633596543746,0.08143281,0.32946885,9.77632227,0.002627,0.000807,0.003755
880268.136541,7.934391999966465,-2.151621566003953,-1.1131424733264392,-2.3885946975077434,0.013070540882877275,0.006254839483227944,0.6008481008536561,-0.5142327284399815,0.003565437242818459,0.08203122,0.33664977,9.78919299,0.002507,0.001993,0.003243
880268.156527,7.954377999994904,-2.1515579499523363,-1.1127670556466451,-2.3885643028299,0.013023460951929387,0.006279069213462865,0.6002012911316134,-0.5140614571130774,0.003562275717254866,0.07903917,0.3376994400000001,9.79457868,0.002408,-0.000565,0.003527
880268.156527,7.954377999994904,-2.1514643653974947,-1.11238082449255,-2.3885352011534415,0.008732270780232448,0.004216056999650995,0.5999721972314318,-0.5140200350484028,0.0035595807018542025,0.07903917,0.3376994400000001,9.79457868,0.002408,-0.000565,0.003527
880268.196499,7.994349999935366,-2.151636071596199,-1.1121098805725316,-2.3885707050610256,0.01487728039615117,0.006951605906920348,0.5989684332480018,-0.5137227635091391,0.0035962879948539654,0.07289811,0.3204828899999999,9.78993855,0.002697,-0.000308,0.00401
880268.216485,8.014335999963805,-2.1534681395722663,-1.1048402839843683,-2.3886701137735686,0.013202978764255078,0.006443423482043761,0.5979683074831857,-0.5140955059143976,0.0037392756311788984,0.06706116,0.33155838,9.780658290000002,0.00136,-0.000149,0.005363
880268.216485,8.014335999963805,-2.155231089913166,-1.097603947455039,-2.388794166449558,0.008721645457688602,0.004376450708864993,0.5974282800581362,-0.5146145416487873,0.003861316334291527,0.06706116,0.33155838,9.780658290000002,0.00136,-0.000149,0.005363
880268.256457,8.054308000020683,-2.157245527943211,-1.0905364464582135,-2.388797854445294,0.014687693039885623,0.007522050898420264,0.5961062123580776,-0.5149063964453046,0.0038815319420871693,0.07349652,0.34607718,9.76584519,0.001606,-0.001017,0.004111
880268.276443,8.074293999932706,-2.1590525729936134,-1.0834159853473642,-2.3888224776745655,0.01319558677193609,0.006641349432514939,0.5951018623768759,-0.5152855078184387,0.0040053431503088155,0.07663572,0.32662395,9.77197644,0.003352,0.001689,0.005414
880268.29643,8.09428099996876,-2.160818071447794,-1.0763303733701024,-2.3888556728220243,0.012888541106652444,0.006372984233303687,0.5941511200321162,-0.5156741513413176,0.003993045811481259,0.0722997,0.32272938,9.78485697,0.003133,-6.8e-05,0.003853
880268.316416,8.114266999997199,-2.1625589998106642,-1.0692879813190737,-2.3888990453700827,0.012864000466639533,0.006287128200480216,0.5932119269195931,-0.5160605777420398,0.004077476339325256,0.07708698,0.32332779,9.75970413,0.002319,0.001793,0.005047
880268.336402,8.134253000025637,-2.1642794521343767,-1.0622913789148243,-2.3889189921595566,0.01279925969133965,0.006241154129926011,0.5922790415612027,-0.5164463781419893,0.0040541387116546385,0.06990606,0.32467176,9.76809168,0.00254,0.001984,0.003786
880268.356388,8.154238999937661,-2.16598635474208,-1.0553450513361142,-2.388990551588803,0.012774635999601238,0.0063285044384504135,0.5913465975386899,-0.51683280214358,0.004004287735249928,0.07334937,0.33724818,9.75955698,0.002689,-0.000438,0.003428
880268.376374,8.1742249999661,-2.1676818626376875,-1.048443012902752,-2.3890214452008367,0.012786491201366842,0.006277591958016716,0.5904168873850079,-0.5172158330560686,0.00391619823248277,0.07409493,0.32782077,9.78365034,0.003854,0.002963,0.002896
880268.39636,8.194210999994539,-2.1693658621448937,-1.0415887721252166,-2.38906845590759,0.012781301457167542,0.0062652368007034085,0.5894896535484785,-0.517595962345376,0.003968249814375909,0.07380063,0.33021441,9.75716334,0.00268,0.002779,0.004573
880268.416346,8.214197000022978,-2.1710379148282475,-1.0347827618542584,-2.3891036570644073,0.012736597461979526,0.006298259625544504,0.5885645469768487,-0.5179765584656849,0.004038155665123076,0.07079877,0.33634566,9.76508982,0.004862,0.001391,0.004852
880268.436332,8.234182999935001,-2.1727017529161214,-1.02802232862357,-2.3891976252646456,0.012776371594768033,0.006293960688379357,0.5876402977622719,-0.5183528681529173,0.00386915669351309,0.07739109,0.33365772,9.780815250000002,0.003988,0.001135,0.001899
880268.456318,8.25416899996344,-2.1743537346064814,-1.0213064405974326,-2.3892709513044057,0.012750270795574772,0.006237127693718998,0.5867202523694871,-0.5187262755853498,0.0037732694393569012,0.07184844,0.32976315,9.77287896,0.000786,0.000304,0.002654
880268.476304,8.274154999991879,-2.175995704864747,-1.0146377260578427,-2.3892718350619377,0.01273959425271832,0.006242460080114185,0.5858017519720983,-0.5190991617475494,0.0038780243575632207,0.07334937,0.33395202,9.74757897,0.003645,0.001605,0.005103
880268.49629,8.294141000020318,-2.17763281452767,-1.0080109374905917,-2.389338394640286,0.012897896729805309,0.006145554923047298,0.5848831875312668,-0.5194608969622073,0.003889611673583062,0.08906499,0.32003163,9.80820477,0.002308,-0.000112,0.004025
880268.516276,8.314126999932341,-2.179250228716946,-1.0014297616681698,-2.3893373631489254,0.012683446356689426,0.006102711239561841,0.5839740946462915,-0.5198268523833072,0.00392962221627078,0.05883057,0.32811507,9.77392863,0.002385,0.002048,0.004399
880268.536262,8.33411299996078,-2.1808633743186494,-0.994895672313795,-2.389377031517711,0.01272075069658233,0.006174461311719756,0.5830635325252724,-0.520191287505848,0.003916884392178303,0.07619427,0.33545295,9.74159487,0.005356,0.001353,0.003768
880268.556248,8.354098999989219,-2.18246937422434,-0.988400668121881,-2.389399174808331,0.012830712023625507,0.006062578474408904,0.5821544266806594,-0.5205469787614907,0.003942315121154342,0.08322804,0.31838355,9.80461431,0.002286,0.000962,0.004241
880268.576234,8.374085000017658,-2.184064141005475,-0.9819508370808246,-2.389385015239717,0.012852135015268764,0.006042967788540364,0.5812466279702281,-0.520900157983257,0.0038645618233630968,0.08157996,0.32318064,9.7781175,0.004385,0.001871,0.002954
880268.576234,8.374085000017658,-2.1856209775722975,-0.9755433214034107,-2.389355199674268,0.008598147450328953,0.004133764275194573,0.5807403456961936,-0.52138562801701,0.0037978775238680313,0.08157996,0.32318064,9.7781175,0.004385,0.001871,0.002954
880268.616206,8.41405699995812,-2.187437445707667,-0.9692808044098178,-2.389278923246246,0.014777816979829706,0.006955776239559201,0.579474557285696,-0.5216175256410812,0.003976983733199704,0.08352234,0.32796792,9.81344331,0.004054,0.000734,0.00605
880268.636192,8.43404299998656,-2.189053119690147,-0.9629772702554814,-2.3892716309202475,0.013211797047009042,0.00621341523494445,0.5785129295536554,-0.5219484386254873,0.004141487695115295,0.07963758,0.32287653,9.79952292,0.004054,0.000734,0.00605
880268.676164,8.474014999927022,-2.1909054531410357,-0.9568133096416639,-2.3893266118315566,0.015086451353146136,0.007174499680580774,0.5771145580854933,-0.5221391565688418,0.0039071686409976325,0.06526593,0.32841918,9.7724277,0.004746,0.000315,0.001381
880268.69615,8.49400099995546,-2.1925584665520716,-0.9506034027371766,-2.389338465651552,0.013295218669360993,0.0062689578429943275,0.5761365641933235,-0.5224660477685862,0.003991016529532093,0.0928026,0.32318064,9.8040159,-0.000365,-7.7e-05,0.004908
880268.716136,8.5139869999839,-2.194137221624655,-0.944412104011779,-2.3893635330091465,0.01270590925992976,0.00615418773503375,0.5752249863564909,-0.5228206084508158,0.004197791917597885,0.06211692,0.34024023,9.74398851,0.00529,0.003533,0.006483
880268.716136,8.5139869999839,-2.195652534272365,-0.9382453252881712,-2.389425780293826,0.008465206676035914,0.004205621472887876,0.5747209450865066,-0.5233053818703504,0.004373521657869151,0.06211692,0.34024023,9.74398851,0.00529,0.003533,0.006483
880268.756108,8.553958999924362,-2.197429404112842,-0.9322063363033163,-2.3893978855624973,0.014644609458981809,0.006721461999774223,0.5734756868447254,-0.5235312340814613,0.0043766695735168665,0.07888221,0.31689243,9.81045126,0.001492,0.000986,0.004413
880268.776094,8.5739449999528,-2.1989909488252013,-0.9261336729359732,-2.389426922211052,0.0129904373514005,0.006094490721780382,0.5725295340401856,-0.5238635877933242,0.004307451798751946,0.06526593,0.33021441,9.76300029,0.004246,0.000308,0.003534
880268.79608,8.59393099998124,-2.200521086504219,-0.9200895839079019,-2.389455960754197,0.012770221593801968,0.006049974399539087,0.5716248983280938,-0.5242105900425564,0.0043810723764178385,0.08248248,0.33574725,9.75880161,0.003189,0.001716,0.005211
880268.816066,8.613917000009678,-2.2020298671756744,-0.9140687071549192,-2.3894717889589763,0.012820091378671022,0.005781549531789419,0.5707341790952476,-0.5245481355805647,0.004420070861982835,0.08412075,0.30476727,9.78455286,0.0038,0.001085,0.004863
880268.836052,8.633903000038117,-2.2035173666022274,-0.9080884238606903,-2.3895201938214794,0.01269700129747247,0.0057858653385757875,0.5698500552446326,-0.5248878345806377,0.0042604876000089525,0.07035732,0.32272938,9.76778757,0.001639,-0.000375,0.002441
880268.836052,8.633903000038117,-2.204967441140632,-0.9021437722740493,-2.3895333800182073,0.008489929423895815,0.003959230256203301,0.56935569192848,-0.5253613108108497,0.004124195903930697,0.07035732,0.32272938,9.76778757,0.001639,-0.000375,0.002441
880268.876024,8.67387499997858,-2.206672294790741,-0.8963311492910929,-2.3895738508206286,0.014567155868659478,0.006586152770405155,0.5681290212953722,-0.5255769565942924,0.004142243701070206,0.0754389,0.32033574,9.80236782,0.00244,-0.001241,0.004347
880268.89601,8.693861000007018,-2.2081774268833065,-0.890483576050532,-2.3895812167023216,0.012958953100438054,0.00601013427914248,0.5671937344657142,-0.5259006712036486,0.004202811787546815,0.06825798,0.3324609,9.77587101,0.002948,0.001078,0.004894
880268.915996,8.713847000035457,-2.209652558122501,-0.8846621427214384,-2.389624609762133,0.012706944685758437,0.005947889080499704,0.5663012387224335,-0.5262389271261568,0.004244008591369654,0.07903917,0.33500169,9.77422293,0.004703,0.002369,0.004716
880268.935982,8.73383299994748,-2.2111064488508534,-0.8788667855665858,-2.3896302269498833,0.012688063847876881,0.005807207020715201,0.5654207003667138,-0.5265744340375038,0.004246019463874501,0.0782838,0.32003163,9.81898596,0.00251,-0.000136,0.00427
880268.955968,8.75381899997592,-2.212542881166564,-0.8731069046221698,-2.3896824630640285,0.012609044513002257,0.0057962937429259466,0.5645459167822814,-0.5269098332451683,0.0042611690884885554,0.07079877,0.32827203,9.78395445,0.003665,0.002044,0.004436
880268.975954,8.773805000004359,-2.2139690298064933,-0.8673839946713873,-2.389756001068676,0.012588442142794058,0.005867075169376259,0.5636714815657196,-0.5272461787101765,0.004192847737435179,0.07454619,0.33695388,9.77377167,0.002562,0.001581,0.003402
880268.99594,8.793791000032797,-2.2153853137881283,-0.8616931901075164,-2.3898030139214175,0.012561806533943766,0.005810516978475906,0.5628010012073994,-0.5275800738370784,0.004239916600775317,0.07095573,0.32871348,9.82661814,0.002905,0.000655,0.004786
880269.015926,8.813776999944821,-2.2167938575936157,-0.8560380123202547,-2.389861462071771,0.012571453779045453,0.005788207034802622,0.5619323734170695,-0.5279112015001846,0.00410763479915002,0.07394778,0.32931189,9.77797035,0.003321,0.001616,0.00257
880269.035912,8.83376299997326,-2.2181924183624857,-0.8504184893597945,-2.3898305296511038,0.012521463124174216,0.005786013973035409,0.5610664392629703,-0.5282432502334611,0.004225864478484332,0.06885639,0.33231375,9.76464837,0.003519,0.000233,0.005604
880269.055899,8.853750000009313,-2.2195895935244723,-0.8448323300087499,-2.389811842257435,0.012703687084027939,0.005739735633702431,0.5601976545583144,-0.5285664963809531,0.004262343998042002,0.09040896,0.32302368,9.7926363,0.004909,0.001529,0.004689
880269.075885,8.873736000037752,-2.2209742437285165,-0.8392780624656242,-2.3898269364315965,0.012665310077177952,0.005629324907420975,0.5593350624778622,-0.5288849509236587,0.004316460247490133,0.07574301,0.31718673,9.79233219,0.001986,-0.001523,0.004949
880269.095871,8.893721999949776,-2.2223482121379736,-0.8337633593406785,-2.3898394341878157,0.012540900693139173,0.005736658599625993,0.558474552611397,-0.5292090647017487,0.0041786129484906315,0.06870924,0.33755229,9.75865446,0.002988,0.001158,0.002568
880269.115857,8.913707999978215,-2.2237184912328947,-0.8282802656615882,-2.389868024950378,0.012585734642009414,0.005739620473374602,0.5576141686978855,-0.5295297174217849,0.004217824106519008,0.07903917,0.33095997,9.78156081,0.00472,0.00106,0.004677
880269.135843,8.933694000006653,-2.225079172084481,-0.8228271883854312,-2.3898653900392444,0.012549285649083454,0.005621309444196568,0.5567596891038089,-0.5298465104492849,0.004235782333024913,0.07050447,0.32018859,9.78500412,0.002217,-0.00118,0.004447
880269.155829,8.953680000035092,-2.2264315149070515,-0.8174111036641076,-2.3898608569105444,0.012495165965020082,0.005671210461093565,0.5559068734250543,-0.5301647448765339,0.0043247386254186395,0.06960195,0.33305931,9.76793472,0.00527,0.000747,0.005368
880269.175815,8.973665999947116,-2.227777682902796,-0.8120248989665775,-2.38985152681108,0.01250012417664115,0.005603779671261505,0.555057269188549,-0.5304791352665422,0.004352106570000292,0.07110288,0.32332779,9.7897914,0.00139,-0.001198,0.004674
880269.195801,8.993651999975555,-2.2291155419202373,-0.8066712075733636,-2.3898625226658643,0.012469598619183645,0.005560101971769866,0.5542114360755328,-0.5307910297591691,0.004350316197494306,0.06780672,0.32347494,9.77751909,0.002841,0.000449,0.00433
880269.215787,9.013638000003994,-2.2304469995909506,-0.8013526867253085,-2.389916336218349,0.012474549901867384,0.005634362668633845,0.5533648827924668,-0.5311027997864812,0.004308047442732181,0.07275096,0.33395202,9.79038981,0.002814,-0.000721,0.003812
880269.235773,9.033624000032432,-2.2317700307221267,-0.7960648712257805,-2.3899159837967643,0.012440239951293557,0.00563495830074123,0.5525204279717812,-0.5314149573478169,0.004219814328586587,0.06856209,0.33200964,9.77737194,0.003257,1.1e-05,0.003185
880269.255759,9.053609999944456,-2.2330904688674256,-0.7908092197710995,-2.3899328445405605,0.012565926982039847,0.0056551729904715,0.5516729570948016,-0.5317220453943383,0.0042010275073910645,0.08487612,0.33141123,9.77392863,0.004016,0.001442,0.003981
880269.275745,9.073595999972895,-2.234397797995795,-0.7855824107269852,-2.389982257953637,0.01244780365138619,0.005588755478016839,0.5508326907189298,-0.5320283646972451,0.0041460221857557295,0.06466752,0.32841918,9.78500412,0.002789,0.001735,0.0035
880269.315717,9.113568000029773,-2.2359714911624806,-0.7804792124435697,-2.389913631819819,0.014805501313003115,0.006463000017613897,0.5495373105926601,-0.5321642756730617,0.004140381961869359,0.06825798,0.3179421,9.79323471,0.002997,0.001293,0.004081
880269.335703,9.133553999941796,-2.2373559252014084,-0.7753429644001862,-2.389930424209713,0.012912834010685352,0.005727585219057929,0.5486304545685341,-0.5324445569542339,0.0041141003748518135,0.07439904,0.32871348,9.80311338,0.003337,0.00179,0.003825
880269.355689,9.153539999970235,-2.238689394804678,-0.7702196349831921,-2.389881923538582,0.012620700427144985,0.00566582319450595,0.5477743874484069,-0.5327462855068474,0.004147341955054316,0.0836793,0.33590421,9.77287896,0.003929,0.002708,0.004519
880269.355689,9.153539999970235,-2.2399606762814717,-0.7651123213137263,-2.389842197138438,0.008420029392374486,0.003871289463073832,0.5473053399040765,-0.5331837664971254,0.004175629755705337,0.0836793,0.33590421,9.77287896,0.003929,0.002708,0.004519
880269.395661,9.193512000027113,-2.2414841425140177,-0.7601187435697484,-2.3898239598605335,0.014403104569078097,0.006258831700433234,0.5461350665356277,-0.533360571805154,0.004285496288125281,0.07753824,0.32198382,9.79533405,0.004589,0.000879,0.00551
880269.415647,9.213497999939136,-2.2428016359223744,-0.7550869400541433,-2.389862560891773,0.012730081991536626,0.0057195205032944075,0.5452483101208041,-0.5336478824213253,0.004391323142490428,0.06196977,0.33934752,9.7667379,0.002544,-0.000549,0.00558
880269.435633,9.233483999967575,-2.244092514567527,-0.7500711232219126,-2.3898732025422547,0.012542948017418854,0.005591872928536194,0.5444021648684423,-0.5339470994681456,0.004312197370471398,0.08172711,0.33110712,9.78230637,0.003368,-0.001189,0.003418
880269.435633,9.233483999967575,-2.2453315065886503,-0.7450764991746396,-2.3898671531924562,0.008375206076280317,0.003816967127121445,0.5439371931628094,-0.5343808063123295,0.00424470662094575,0.08172711,0.33110712,9.78230637,0.003368,-0.001189,0.003418
880269.475605,9.273456000024453,-2.246815492210712,-0.7402007580739143,-2.3899557475415882,0.014220029911821584,0.006325104952709677,0.5427765851983446,-0.5345650885031642,0.004194069350059304,0.07005321,0.33320646,9.77182929,0.002401,0.000167,0.003623
880269.495591,9.293441999936476,-2.2481110122322514,-0.7352785341260176,-2.3899909470419303,0.012814919914968862,0.005655321153019019,0.5418921212849891,-0.5348455238912,0.004014967539987995,0.08023599,0.32766381,9.76704201,0.0042,-0.000224,0.001984
880269.515577,9.313427999964915,-2.2493703695577576,-0.7303696758540748,-2.3900129113926125,0.012471082542398053,0.005383891760455143,0.5410576304366267,-0.5351374072365531,0.004080078804141609,0.06751242,0.31749084,9.79473564,0.003416,-0.000754,0.004823
880269.535564,9.333415000000969,-2.2506105701925407,-0.7254864005111482,-2.389986701606703,0.012409492344101412,0.005350515473031444,0.5402325405048222,-0.5354317445200636,0.00412829826892442,0.07184844,0.32452461,9.77541975,0.002898,0.000571,0.004682
880269.55555,9.353401000029407,-2.2518343698360437,-0.7206295944286849,-2.389999291778683,0.012283102294796672,0.0053815201239751425,0.5394129668832073,-0.5357294047958616,0.003922655721795401,0.06122421,0.33260805,9.76718916,0.003906,-0.000223,0.001558
880269.575536,9.373386999941431,-2.2530537813943647,-0.7157965118889936,-2.3899843218435706,0.012369836227224667,0.0053114675747603654,0.5385942523293438,-0.5360209791899201,0.004102335017788629,0.07484049,0.320787,9.77572386,0.003445,0.000443,0.006177
880269.595522,9.39337299996987,-2.254266315829037,-0.710994318363737,-2.3899758710701584,0.012454008528379672,0.005394662470246376,0.5377718080683322,-0.5363113006700433,0.004129431898833145,0.08308089,0.3327552,9.80162226,0.00372,0.002172,0.004444
880269.615508,9.413358999998309,-2.255468858646373,-0.7062170623943911,-2.389958364528927,0.012406699325888278,0.005377071566792469,0.5369525435215943,-0.5366011986866742,0.004059952093538556,0.07304526,0.329616,9.79113537,0.002148,-0.001278,0.003255
880269.635494,9.433345000026748,-2.256665340110752,-0.7014700868470947,-2.389969262034871,0.012384584281349878,0.0054821307456244936,0.5361324177401176,-0.5368928844845842,0.00416033941038716,0.07634142,0.34263387,9.80760636,0.004407,0.001526,0.005328
880269.65548,9.453330999938771,-2.257855584104412,-0.6967453742707854,-2.389969918089551,0.01237086184144528,0.0053977430625269975,0.535316353493284,-0.5371811011165127,0.0041588266719938555,0.07320222,0.32916474,9.77587101,0.004555,0.000479,0.004142
880269.675465,9.473315999959596,-2.259042128905653,-0.6920457252300413,-2.3899584437039496,0.012442403141652238,0.0052880637884432135,0.534502518285567,-0.5374624472256112,0.004211434753797069,0.08038314,0.32018859,9.80385894,0.000901,-0.001648,0.004826
880269.695451,9.493301999988034,-2.2602211248008888,-0.6873773512567026,-2.3899510041703516,0.01243843525380317,0.005379059911928131,0.5336874184127801,-0.5377452479403159,0.004246744069379689,0.0805302899999999,0.33695388,9.7755669,0.004426,0.001097,0.00466
880269.715437,9.513288000016473,-2.261395692319207,-0.6827345995861657,-2.390016907396546,0.012481372081546866,0.00543257091057577,0.5328711610630831,-0.538025716704276,0.004361605316107634,0.08622009,0.33799374,9.78335604,0.002199,0.000903,0.005704
880269.735423,9.533273999928497,-2.2625626165486596,-0.6781111422185304,-2.3900916530277856,0.012453171387862685,0.005245095094558143,0.5320624650806053,-0.5382997002026528,0.004332624534377691,0.07634142,0.31703958,9.80266212,0.004159,0.000373,0.003993
880269.755409,9.553259999956936,-2.2637229582708613,-0.6735181725772442,-2.390103130835736,0.012413867353481779,0.005270381945742296,0.5312550667835196,-0.5385753261112136,0.004246691543814536,0.07679268,0.33021441,9.75236625,0.001935,0.0003,0.003241
880269.775395,9.573245999985375,-2.2648787557683265,-0.668948396448604,-2.3901026931749243,0.01242992493478852,0.005209500044785813,0.5304501554377055,-0.5388472157373275,0.0042924968373599034,0.0791863199999999,0.32227812,9.78275763,0.004408,0.001961,0.00483
880269.795381,9.593232000013813,-2.2660279913176877,-0.6644055467975785,-2.3901450789314644,0.012411442104778259,0.005228976766320871,0.5296466960523427,-0.5391182083904607,0.0042820032032009955,0.07813665,0.32871348,9.78889869,0.004168,-0.000431,0.004159
880269.815367,9.613217999925837,-2.267171225178747,-0.6598886035844211,-2.390183405257072,0.01238903613261584,0.005270630363272417,0.5288439418468824,-0.5393897276109549,0.004369115294704368,0.0779895,0.3333536099999999,9.77646942,0.002927,0.000373,0.005391
880269.835353,9.633203999954276,-2.2683059729678656,-0.6553954406122949,-2.390143953838262,0.012285400852610415,0.005251462333354533,0.5280456031153734,-0.5396636980715996,0.004325881561009578,0.06751242,0.33215679,9.78305193,0.005153,0.001819,0.00382
880269.855339,9.653189999982715,-2.2694385020349137,-0.6509235384933731,-2.3901486918901798,0.012327390995027457,0.005130760937347889,0.5272509494572903,-0.539930547773321,0.004299933071171629,0.07484049,0.31854051,9.80610543,0.002567,-0.000124,0.003996
880269.855339,9.653189999982715,-2.2705401153451166,-0.6464776897965993,-2.3901473575454757,0.008251180578171763,0.003503125903182675,0.5268125041505416,-0.5403326102405097,0.004277674640444317,0.07484049,0.31854051,9.80610543,0.002567,-0.000124,0.003996
880269.895311,9.693161999923177,-2.271893858126614,-0.6421354056807158,-2.3901641338769646,0.014258701019687063,0.0057420732841087065,0.5257028236923684,-0.5404658080180429,0.004287132330839806,0.07978473,0.31584276,9.76749327,0.002883,-0.000773,0.004397
