timestamp,accel_x,accel_y,accel_z,gyro_x,gyro_y,gyro_z,mag_x,mag_y,mag_z,gps_lat,gps_lon,gps_alt,gps_accuracy,gps_speed,gps_course,pressure,altitude,roll,pitch,yaw
275006.153977,-8.108337780000001,-2.55009969,4.953794940000001,-0.041296,-0.046259,0.004728,-78.067123,87.101959,-115.173981,60.187944,24.830465,29.323965,13.197329,0.142754,-1.0,102.064064,-0.871964,-2.12322,0.267642,1.817556
275006.213932,-8.34858468,-2.5210620900000005,5.02429941,0.038308,0.092923,-0.025244,-78.419586,86.803772,-115.087311,60.187944,24.830465,29.323965,13.197329,0.142754,-1.0,102.064064,-0.871964,-2.122403,0.268801,1.817006
275006.253903,-8.1499518,-2.55204207,4.95828792,0.051079,0.118491,-0.026817,-78.304886,86.929031,-115.361237,60.187929,24.830428,29.799816,15.255422,1.803233,48.813015,102.064064,-0.871964,-2.118842,0.268895,1.819058
275006.273888,-8.11896201,-2.58976152,4.900212720000001,0.052876,0.132058,-0.028677,-78.415207,86.736145,-115.303879,60.187929,24.830428,29.799816,15.255422,1.803233,48.813015,102.064064,-0.871964,-2.116709,0.268897,1.820262
275006.293874,-8.036636490000001,-2.64230388,4.90859046,0.048716,0.121801,-0.021286,-78.288254,86.891388,-115.770477,60.187929,24.830428,29.799816,15.255422,1.803233,48.813015,102.064064,-0.871964,-2.114415,0.268926,1.821471
275006.313859,-7.94921958,-2.66236533,4.9370296499999995,0.036864,0.096781,-0.008339,-78.603195,86.786285,-115.44841,60.187929,24.830428,29.799816,15.255422,1.803233,48.813015,102.064064,-0.871964,-2.112231,0.268886,1.822523
275006.333844,-7.93769283,-2.65742109,4.870272600000001,0.024607,0.068398,-0.000556,-78.437439,86.860062,-115.516342,60.187929,24.830428,29.799816,15.255422,1.803233,48.813015,102.064064,-0.871964,-2.110489,0.268763,1.823253
275006.35383,-7.900718940000001,-2.6849675700000004,4.86113949,0.014091,0.02427,-0.005738,-78.594055,86.906754,-115.359375,60.187929,24.830428,29.799816,15.255422,1.803233,48.813015,102.064064,-0.871964,-2.109295,0.268663,1.823683
275006.373814,-7.99607214,-2.72627748,4.88853882,0.000306,0.00132,0.003612,-78.576355,86.932953,-115.256287,60.187929,24.830428,29.799816,15.255422,1.803233,48.813015,102.064064,-0.871964,-2.10882,0.268708,1.823984
275006.3938,-8.09666388,-2.8118991600000003,4.941669780000001,-0.025183,0.001444,0.024431,-78.576355,86.932953,-115.256287,60.187929,24.830428,29.799816,15.255422,1.803233,48.813015,102.064064,-0.871964,-2.108728,0.268767,1.823913
275006.413785,-8.09980308,-2.80277586,4.91832198,-0.04712,0.02407,0.04414,-78.570023,86.938614,-115.449677,60.187929,24.830428,29.799816,15.255422,1.803233,48.813015,102.064064,-0.871964,-2.108394,0.268704,1.823203
275006.433771,-8.05834602,-2.65308507,4.838242950000001,-0.044507,0.043164,0.042322,-78.591339,86.68956,-115.711899,60.187929,24.830428,29.799816,15.255422,1.803233,48.813015,102.064064,-0.871964,-2.10755,0.268548,1.821936
275006.453756,-7.96732884,-2.50025508,4.75949808,-0.014117,0.046041,0.049045,-79.033066,86.700653,-115.202072,60.187929,24.830428,29.799816,15.255422,1.803233,48.813015,102.064064,-0.871964,-2.106352,0.268322,1.820685
275006.473741,-7.973764200000001,-2.3659758,4.7264187600000005,0.025348,0.037304,0.054639,-78.81517,86.969574,-115.668121,60.187929,24.830428,29.799816,15.255422,1.803233,48.813015,102.064064,-0.871964,-2.105237,0.267728,1.819914
275006.493726,-7.8920370900000005,-2.27541969,4.750816230000001,0.060497,0.026591,0.053841,-78.948044,86.969238,-115.744949,60.187929,24.830428,29.799816,15.255422,1.803233,48.813015,102.064064,-0.871964,-2.104412,0.266645,1.819786
275006.513712,-7.813606140000001,-2.2489228800000003,4.71624579,0.088617,0.001687,0.045007,-78.794357,87.323074,-115.792633,60.187929,24.830428,29.799816,15.255422,1.803233,48.813015,102.064064,-0.871964,-2.104,0.265239,1.820305
275006.533697,-7.68681189,-2.21883561,4.724623530000001,0.088617,0.001687,0.045007,-79.060257,86.947815,-115.349884,60.187929,24.830428,29.799816,15.255422,1.803233,48.813015,102.064064,-0.871964,-2.104251,0.263664,1.821382
275006.553682,-7.6495437,-2.2993659,4.72732128,0.088043,-0.062369,0.072564,-78.865936,86.973846,-115.667374,60.187929,24.830428,29.799816,15.255422,1.803233,48.813015,102.064064,-0.871964,-2.105225,0.261882,1.822601
275006.573667,-7.62498927,-2.40145857,4.693339440000001,0.053998,-0.081468,0.120766,-78.540161,87.242645,-115.264648,60.187929,24.830428,29.799816,15.255422,1.803233,48.813015,102.064064,-0.871964,-2.106665,0.259809,1.823344
275006.593653,-7.60688001,-2.56192074,4.7364543900000005,0.001164,-0.078391,0.183212,-78.5728,87.145432,-115.366623,60.187929,24.830428,29.799816,15.255422,1.803233,48.813015,102.064064,-0.871964,-2.108154,0.257292,1.822979
275006.613638,-7.568709300000001,-2.70292968,4.94975322,-0.051499,-0.064733,0.255086,-78.627045,87.315475,-114.898041,60.187929,24.830428,29.799816,15.255422,1.803233,48.813015,102.064064,-0.871964,-2.109224,0.254238,1.82106
275006.633623,-7.694296920000001,-2.6011411200000003,5.08058919,-0.083994,-0.050584,0.329425,-79.037888,87.222672,-114.970612,60.187929,24.830428,29.799816,15.255422,1.803233,48.813015,102.064064,-0.871964,-2.109698,0.250499,1.817429
275006.653608,-7.75582524,-2.36314071,5.1162093,-0.100609,-0.04971,0.374819,-78.803772,87.633926,-115.116272,60.187929,24.830428,29.799816,15.255422,1.803233,48.813015,102.064064,-0.871964,-2.10949,0.245833,1.812477
275006.673593,-7.819590240000001,-2.14323975,4.96517454,-0.114923,-0.058217,0.36759,-79.125183,87.60788,-115.505615,60.187929,24.830428,29.799816,15.255422,1.803233,48.813015,102.064064,-0.871964,-2.109068,0.240566,1.806781
275006.713564,-7.91119602,-2.06959608,4.860541080000001,-0.157159,-0.042345,0.317857,-79.521393,87.787918,-115.596786,60.187929,24.830428,29.799816,15.255422,1.803233,48.813015,102.064064,-0.871964,-2.108243,0.231266,1.795001
275006.713564,-7.91119602,-2.06959608,4.860541080000001,-0.157159,-0.042345,0.317857,-79.521393,87.787918,-115.596786,60.187929,24.830428,29.799816,15.255422,1.803233,48.813015,102.064064,-0.871964,-2.108243,0.231266,1.795001
275006.753534,-7.958048580000001,-1.97962857,4.78749582,-0.189845,-0.031299,0.294293,-79.248093,88.01506,-115.996231,60.187929,24.830428,29.799816,15.255422,1.803233,48.813015,102.063011,-0.787411,-2.106824,0.224166,1.782526
275006.753534,-7.958048580000001,-1.97962857,4.78749582,-0.189845,-0.031299,0.294293,-79.248093,88.01506,-115.996231,60.187929,24.830428,29.799816,15.255422,1.803233,48.813015,102.063011,-0.787411,-2.106824,0.224166,1.782526
275006.793505,-7.71794883,-1.7554014,4.7047190400000005,-0.177691,-0.148685,0.252023,-79.311493,88.044861,-115.871155,60.187929,24.830428,29.799816,15.255422,1.803233,48.813015,102.063011,-0.787411,-2.106314,0.218501,1.770058
275006.793505,-7.71794883,-1.7554014,4.7047190400000005,-0.177691,-0.148685,0.252023,-79.311493,88.044861,-115.871155,60.187929,24.830428,29.799816,15.255422,1.803233,48.813015,102.063011,-0.787411,-2.106314,0.218501,1.770058
275006.833475,-7.63053192,-2.00537982,4.7572614,-0.153119,-0.328925,0.205353,-79.129028,88.18222,-116.042297,60.187929,24.830428,29.799816,15.255422,1.803233,48.813015,102.063011,-0.787411,-2.111579,0.214117,1.759017
275006.833475,-7.63053192,-2.00537982,4.7572614,-0.153119,-0.328925,0.205353,-79.129028,88.18222,-116.042297,60.187929,24.830428,29.799816,15.255422,1.803233,48.813015,102.063011,-0.787411,-2.111579,0.214117,1.759017
275006.873446,-7.71181758,-1.84850811,4.87087101,-0.097359,-0.530706,0.172007,-79.095566,87.990936,-115.430557,60.187929,24.830428,29.799816,15.255422,1.803233,48.813015,102.063011,-0.787411,-2.124876,0.210503,1.749851
275006.893431,-7.7395014,-1.8544922099999999,4.913681850000001,-0.062144,-0.625476,0.139791,-79.088379,87.864563,-115.175079,60.187929,24.830428,29.799816,15.255422,1.803233,48.813015,102.063011,-0.787411,-2.134769,0.208758,1.746336
275006.913416,-7.75537398,-1.80330363,5.0269971600000005,-0.022102,-0.699726,0.122406,-78.702225,87.945038,-114.456085,60.187929,24.830428,29.799816,15.255422,1.803233,48.813015,102.063011,-0.787411,-2.146706,0.207167,1.743738
275006.933402,-7.886200140000001,-1.7444730600000002,5.05259145,0.027667,-0.741533,0.103702,-77.870087,88.230301,-114.519714,60.187929,24.830428,29.799816,15.255422,1.803233,48.813015,102.063011,-0.787411,-2.160289,0.205473,1.742007
275006.953387,-7.7682447,-1.6973163900000001,5.0647166100000005,0.078812,-0.766303,0.087928,-77.879852,88.242172,-114.246231,60.187929,24.830428,29.799816,15.255422,1.803233,48.813015,102.063011,-0.787411,-2.174937,0.203558,1.74128
275006.953387,-7.7682447,-1.6973163900000001,5.0647166100000005,0.078812,-0.766303,0.087928,-77.879852,88.242172,-114.246231,60.187929,24.830428,29.799816,15.255422,1.803233,48.813015,102.063011,-0.787411,-2.174937,0.203558,1.74128
275006.993357,-7.406893350000001,-1.54553607,5.00080446,0.18124,-0.832388,0.069866,-76.801987,88.203964,-113.074738,60.187929,24.830428,29.799816,15.255422,1.803233,48.813015,102.063011,-0.787411,-2.206669,0.198719,1.742854
275006.993357,-7.406893350000001,-1.54553607,5.00080446,0.18124,-0.832388,0.069866,-76.801987,88.203964,-113.074738,60.187929,24.830428,29.799816,15.255422,1.803233,48.813015,102.063011,-0.787411,-2.206669,0.198719,1.742854
275007.013342,-7.160211090000001,-1.54807686,5.18716503,0.237867,-0.860683,0.084132,-76.08284,88.675583,-112.579437,60.187929,24.830428,29.799816,15.255422,1.803233,48.813015,102.063011,-0.787411,-2.223709,0.195512,1.744935
275007.033328,-7.07593338,-1.5989711400000002,5.38026507,0.284493,-0.846648,0.114587,-75.679718,88.702347,-112.153137,60.187929,24.830428,29.799816,15.255422,1.803233,48.813015,102.063011,-0.787411,-2.241395,0.191368,1.747677
275007.073298,-6.90394446,-1.68774183,5.69326293,0.302915,-0.851451,0.236605,-74.973343,88.925735,-111.050262,60.187929,24.830428,29.799816,15.255422,1.803233,48.813015,102.063011,-0.787411,-2.276201,0.179755,1.753092
275007.093283,-6.84526104,-1.6227800100000003,5.92513209,0.296644,-0.868773,0.313538,-74.973343,88.925735,-111.050262,60.187929,24.830428,29.799816,15.255422,1.803233,48.813015,102.063011,-0.787411,-2.293408,0.172306,1.754567
275007.113269,-6.806050470000001,-1.4060280600000001,6.358773330000001,0.288535,-0.848367,0.381059,-74.098984,89.557816,-110.628372,60.187929,24.830428,29.799816,15.255422,1.803233,48.813015,102.063011,-0.787411,-2.31074,0.163811,1.754782
275007.133254,-7.30166148,-1.0931773500000002,6.477032879999999,0.304447,-0.760532,0.389559,-73.447556,89.959091,-110.272995,60.187929,24.830428,29.799816,15.255422,1.803233,48.813015,102.063011,-0.787411,-2.327452,0.154476,1.753853
275007.153239,-7.38325125,-0.86804766,6.73853805,0.336483,-0.65807,0.372777,-73.09552,90.123917,-109.809113,60.187929,24.830428,29.799816,15.255422,1.803233,48.813015,102.063011,-0.787411,-2.342453,0.14476,1.752878
275007.173224,-7.1263764,-1.22265954,7.00438905,0.32893,-0.543281,0.370214,-73.188019,90.109879,-109.124527,60.187929,24.830428,29.799816,15.255422,1.803233,48.813015,102.063011,-0.787411,-2.355426,0.134873,1.752377
275007.19321,-6.52343418,-1.6338555000000001,7.09644609,0.287319,-0.469224,0.374586,-72.836807,90.632004,-108.880539,60.187929,24.830428,29.799816,15.255422,1.803233,48.813015,102.063011,-0.787411,-2.366246,0.125133,1.751696
275007.213195,-6.296058,-1.6543584000000002,7.1021358900000005,0.230614,-0.452122,0.372035,-72.108765,91.037735,-108.678513,60.187929,24.830428,29.799816,15.255422,1.803233,48.813015,102.063011,-0.787411,-2.375551,0.115947,1.75034
275007.23318,-6.265372320000001,-1.68819309,7.32083022,0.147709,-0.440361,0.404747,-71.393311,91.527176,-108.715027,60.187929,24.830428,29.799816,15.255422,1.803233,48.813015,102.063011,-0.787411,-2.384333,0.107564,1.748109
275007.253165,-6.2424659700000005,-1.75390047,7.41138633,0.049214,-0.402223,0.450105,-71.633316,91.198105,-107.921768,60.187931,24.830425,29.691172,11.096733,0.297068,-1.0,102.063011,-0.787411,-2.392738,0.099972,1.744223
275007.273151,-6.16851819,-1.46290644,7.13027097,-0.010464,-0.377366,0.45428,-71.175446,91.60112,-108.237488,60.187931,24.830425,29.691172,11.096733,0.297068,-1.0,102.063011,-0.787411,-2.400249,0.093229,1.738344
275007.293136,-5.995636560000001,-1.3232512800000003,7.07099895,-0.043879,-0.415238,0.428019,-71.020874,91.830917,-107.951752,60.187931,24.830425,29.691172,11.096733,0.297068,-1.0,102.063011,-0.787411,-2.407247,0.087379,1.731531
275007.313121,-5.8444448399999995,-1.43551692,7.146585000000001,-0.096325,-0.483027,0.436334,-70.742172,91.849762,-108.008377,60.187931,24.830425,29.691172,11.096733,0.297068,-1.0,102.063011,-0.787411,-2.41498,0.082422,1.724534
275007.333106,-5.86630152,-1.6039153800000001,7.2507672,-0.167596,-0.547063,0.478625,-70.629517,91.89827,-107.449829,60.187931,24.830425,29.691172,11.096733,0.297068,-1.0,102.063011,-0.787411,-2.423969,0.078203,1.716668
275007.353091,-5.79744513,-1.43267202,7.343275500000001,-0.216568,-0.671157,0.513443,-70.689194,91.708817,-106.787735,60.187931,24.830425,29.691172,11.096733,0.297068,-1.0,102.063011,-0.787411,-2.434286,0.074577,1.707226
275007.373077,-6.001914960000001,-0.8960355900000001,7.36768278,-0.216568,-0.671157,0.513443,-69.790558,91.981445,-107.690598,60.187931,24.830425,29.691172,11.096733,0.297068,-1.0,102.063011,-0.787411,-2.446912,0.071336,1.696671
275007.393062,-6.14741688,-0.8674492500000001,7.40270448,-0.168467,-0.905166,0.454891,-69.465988,92.127243,-107.207687,60.187931,24.830425,29.691172,11.096733,0.297068,-1.0,102.063011,-0.787411,-2.462286,0.068226,1.686428
275007.413047,-6.03245349,-1.2780468,7.73366445,-0.154615,-0.989925,0.417128,-69.039322,92.200851,-106.845261,60.187931,24.830425,29.691172,11.096733,0.297068,-1.0,102.063011,-0.787411,-2.479759,0.065308,1.677189
275007.453018,-5.74805178,-0.71072469,7.5109284,-0.100695,-1.057453,0.313749,-68.123917,91.873138,-106.4935,60.187931,24.830425,29.691172,11.096733,0.297068,-1.0,102.063011,-0.787411,-2.519157,0.060653,1.660892
275007.453018,-5.74805178,-0.71072469,7.5109284,-0.100695,-1.057453,0.313749,-68.123917,91.873138,-106.4935,60.187931,24.830425,29.691172,11.096733,0.297068,-1.0,102.063011,-0.787411,-2.519157,0.060653,1.660892
275007.473003,-5.523363540000001,-0.77733459,7.856858430000001,-0.059687,-1.09017,0.247907,-66.974747,91.881714,-106.050125,60.187931,24.830425,29.691172,11.096733,0.297068,-1.0,102.063011,-0.787411,-2.539903,0.058799,1.654601
275007.492988,-5.29493769,-1.02432096,8.12211102,-0.035323,-1.13288,0.204291,-66.271683,91.975479,-105.638947,60.187931,24.830425,29.691172,11.096733,0.297068,-1.0,102.063011,-0.787411,-2.56138,0.057143,1.649785
275007.532959,-5.174441460000001,-0.91190817,8.34514137,0.03975,-1.150874,0.042314,-64.825119,91.700027,-104.734543,60.187931,24.830425,29.691172,11.096733,0.297068,-1.0,102.063011,-0.787411,-2.606713,0.054348,1.643722
275007.532959,-5.174441460000001,-0.91190817,8.34514137,0.03975,-1.150874,0.042314,-64.825119,91.700027,-104.734543,60.187931,24.830425,29.691172,11.096733,0.297068,-1.0,102.063011,-0.787411,-2.606713,0.054348,1.643722
275007.572929,-4.93733376,-0.8352626400000001,9.05287401,0.087066,-1.133541,-0.152474,-62.475601,92.184998,-104.766327,60.187931,24.830425,29.691172,11.096733,0.297068,-1.0,102.063011,-0.787411,-2.652265,0.052877,1.645279
275007.592914,-4.60188081,-0.67329954,8.92549116,0.107949,-1.08678,-0.236998,-61.240234,92.238251,-104.359116,60.187931,24.830425,29.691172,11.096733,0.297068,-1.0,102.063011,-0.787411,-2.675066,0.052836,1.648835
275007.592914,-4.60188081,-0.67329954,8.92549116,0.107949,-1.08678,-0.236998,-61.240234,92.238251,-104.359116,60.187931,24.830425,29.691172,11.096733,0.297068,-1.0,102.063011,-0.787411,-2.675066,0.052836,1.648835
275007.632885,-4.41117441,-1.5124567500000001,8.9136603,0.087149,-0.81339,-0.306098,-60.060089,92.101959,-103.236679,60.187931,24.830425,29.691172,11.096733,0.297068,-1.0,102.063011,-0.787411,-2.715817,0.053723,1.660537
275007.65287,-3.80344491,-1.4904529200000003,9.0494307,0.06725,-0.826093,-0.281167,-58.520264,92.364792,-103.924088,60.187931,24.830425,29.691172,11.096733,0.297068,-1.0,102.063011,-0.787411,-2.732542,0.054674,1.666901
275007.672855,-3.74296626,-1.09796463,9.0206874,0.073746,-0.816619,-0.25826,-57.91748,92.177658,-103.569244,60.187931,24.830425,29.691172,11.096733,0.297068,-1.0,102.063011,-0.787411,-2.749351,0.055676,1.672657
275007.69284,-3.84864939,-0.87013719,9.111106170000001,0.093215,-0.777845,-0.249036,-57.196426,92.14743,-103.462723,60.187931,24.830425,29.691172,11.096733,0.297068,-1.0,102.063011,-0.787411,-2.765999,0.05633,1.678071
275007.712826,-3.58893945,-0.6798820500000001,9.23908743,0.126587,-0.781462,-0.211791,-56.790665,92.041504,-103.498444,60.187931,24.830425,29.691172,11.096733,0.297068,-1.0,102.063011,-0.787411,-2.781892,0.056414,1.683454
275007.732811,-3.2702517900000005,-0.64201545,9.38294127,0.15209,-0.834659,-0.138608,-55.678253,92.703354,-103.356918,60.187931,24.830425,29.691172,11.096733,0.297068,-1.0,102.063011,-0.787411,-2.797779,0.05556,1.688324
275007.752796,-3.15782919,-0.81939987,9.53427033,0.152634,-0.89791,-0.064765,-54.856949,92.800949,-103.35817,60.187931,24.830425,29.691172,11.096733,0.297068,-1.0,102.063011,-0.787411,-2.814584,0.053684,1.692018
275007.772781,-3.09032658,-1.10485125,9.7582032,0.118202,-0.973461,0.007328,-54.012985,92.65358,-103.453796,60.187931,24.830425,29.691172,11.096733,0.297068,-1.0,102.063011,-0.787411,-2.832641,0.051307,1.694248
275007.792767,-3.1145769000000003,-1.14631812,10.29574215,0.064242,-1.056461,0.067578,-53.439835,92.303986,-103.019333,60.187931,24.830425,29.691172,11.096733,0.297068,-1.0,102.063011,-0.787411,-2.852142,0.049112,1.694857
275007.812752,-3.2307273000000003,-0.90426618,10.50934509,-0.007279,-1.072585,0.095629,-53.439835,92.303986,-103.019333,60.187931,24.830425,29.691172,11.096733,0.297068,-1.0,102.063011,-0.787411,-2.873146,0.047618,1.693996
275007.832737,-3.25812663,-0.78527088,10.2873546,-0.088547,-1.034955,0.079248,-52.073105,92.635727,-103.426117,60.187931,24.830425,29.691172,11.096733,0.297068,-1.0,102.061897,-0.692287,-2.894438,0.047408,1.692222
275007.852722,-3.0199692600000003,-0.75982374,10.6633719,-0.160514,-1.027583,0.058465,-51.296188,92.662048,-103.246841,60.187931,24.830425,29.691172,11.096733,0.297068,-1.0,102.061897,-0.692287,-2.915058,0.048838,1.69033
275007.872708,-2.8788131700000004,-0.62689824,10.739870280000002,-0.212896,-0.969035,0.045769,-50.582047,92.3759,-103.095581,60.187931,24.830425,29.691172,11.096733,0.297068,-1.0,102.061897,-0.692287,-2.935412,0.051757,1.688547
275007.892693,-2.7801638100000003,-0.58648104,10.54093329,-0.252879,-0.8418,0.009321,-49.786667,92.161514,-103.364532,60.187931,24.830425,29.691172,11.096733,0.297068,-1.0,102.061897,-0.692287,-2.954599,0.055836,1.686916
275007.912678,-2.74619178,-0.37377081000000006,10.42761798,-0.27612,-0.678158,-0.034017,-49.086639,92.004242,-103.09613,60.187931,24.830425,29.691172,11.096733,0.297068,-1.0,102.061897,-0.692287,-2.971298,0.060852,1.685909
275007.932663,-2.40849234,-0.26240768999999997,10.20861954,-0.279202,-0.550663,-0.073802,-48.449783,91.888168,-103.376328,60.187931,24.830425,29.691172,11.096733,0.297068,-1.0,102.061897,-0.692287,-2.984832,0.066457,1.685775
275007.952649,-1.9083785400000002,-0.14100894,9.665253450000002,-0.25687,-0.484776,-0.123028,-47.789261,91.753082,-103.743042,60.187931,24.830425,29.691172,11.096733,0.297068,-1.0,102.061897,-0.692287,-2.995932,0.072253,1.686471
275007.972634,-1.62876411,0.11810259,9.32905494,-0.198854,-0.456611,-0.205325,-47.711594,91.336731,-103.730331,60.187931,24.830425,29.691172,11.096733,0.297068,-1.0,102.061897,-0.692287,-3.005802,0.077727,1.688299
275007.992619,-1.6661892600000001,0.34952049,9.34087599,-0.112701,-0.426802,-0.288982,-47.39743,91.041321,-103.305313,60.187931,24.830425,29.691172,11.096733,0.297068,-1.0,102.061897,-0.692287,-3.015203,0.082239,1.691947
275008.012604,-1.5881997600000002,0.33275520000000003,9.659857950000001,-0.01557,-0.412955,-0.345564,-46.961151,91.245728,-103.404617,60.187931,24.830425,29.691172,11.096733,0.297068,-1.0,102.061897,-0.692287,-3.024248,0.085235,1.697466
275008.03259,-1.8269555400000002,0.33066567,9.995467860000002,0.081452,-0.367975,-0.365211,-46.807892,91.449677,-103.340683,60.187931,24.830425,29.691172,11.096733,0.297068,-1.0,102.061897,-0.692287,-3.033067,0.086367,1.704332
275008.052575,-1.79746668,0.38589597,10.44587439,0.163243,-0.348802,-0.399601,-46.149734,91.636414,-103.802124,60.187931,24.830425,29.691172,11.096733,0.297068,-1.0,102.061897,-0.692287,-3.041122,0.08559,1.711882
275008.07256,-1.6464221100000003,0.26659656,10.317441870000001,0.223896,-0.376407,-0.433038,-45.925934,91.72966,-103.819427,60.187931,24.830425,29.691172,11.096733,0.297068,-1.0,102.061897,-0.692287,-3.048895,0.083202,1.720246
275008.092545,-1.40437998,0.05299362,10.143510570000002,0.244063,-0.417374,-0.437273,-44.995575,92.147644,-104.023651,60.187931,24.830425,29.691172,11.096733,0.297068,-1.0,102.061897,-0.692287,-3.057258,0.079599,1.729308
275008.132516,-1.5470370000000002,-0.5436702,10.31939406,0.149345,-0.256183,-0.39811,-43.611237,92.721237,-104.121887,60.187931,24.830425,29.691172,11.096733,0.297068,-1.0,102.061897,-0.692287,-3.074195,0.071982,1.747421
275008.132516,-1.5470370000000002,-0.5436702,10.31939406,0.149345,-0.256183,-0.39811,-43.611237,92.721237,-104.121887,60.187931,24.830425,29.691172,11.096733,0.297068,-1.0,102.061897,-0.692287,-3.074195,0.071982,1.747421
275008.172486,-1.03120758,-0.5897772,10.24394535,-8.7e-05,-0.106324,-0.325563,-43.306244,92.436646,-103.911285,60.187931,24.830425,29.691172,11.096733,0.297068,-1.0,102.061897,-0.692287,-3.084085,0.068683,1.762877
275008.192472,-1.03584771,-0.44637462000000006,10.025996580000001,-0.047132,-0.025689,-0.308472,-42.737076,92.655273,-104.4785,60.187931,24.830425,29.691172,11.096733,0.297068,-1.0,102.061897,-0.692287,-3.086606,0.069087,1.769479
275008.192472,-1.03584771,-0.44637462000000006,10.025996580000001,-0.047132,-0.025689,-0.308472,-42.737076,92.655273,-104.4785,60.187931,24.830425,29.691172,11.096733,0.297068,-1.0,102.061897,-0.692287,-3.086606,0.069087,1.769479
275008.232442,-0.66596166,-0.35790804000000004,10.31115366,-0.081404,-0.009948,-0.264709,-42.94693,92.955765,-104.417328,60.187931,24.830425,29.691172,11.096733,0.297068,-1.0,102.061897,-0.692287,-3.087746,0.07227,1.781486
275008.252427,-0.49203036,-0.43274853,10.20352815,-0.083048,-0.076509,-0.243768,-43.672729,92.567627,-103.486908,60.187918,24.830399,29.477791,15.45568,0.139522,-1.0,102.061897,-0.692287,-3.088365,0.07426,1.786787
275008.272412,-0.6162642,-0.43798707000000003,10.01342997,-0.077108,-0.146082,-0.230885,-42.732346,92.992218,-104.399109,60.187918,24.830399,29.477791,15.45568,0.139522,-1.0,102.061897,-0.692287,-3.090246,0.076233,1.791652
275008.292398,-0.49307022000000006,-0.42032907,9.715392360000001,-0.074549,-0.197815,-0.220487,-42.574341,92.790619,-104.206223,60.187918,24.830399,29.477791,15.45568,0.139522,-1.0,102.061897,-0.692287,-3.093461,0.078077,1.796282
275008.292398,-0.49307022000000006,-0.42032907,9.715392360000001,-0.074549,-0.197815,-0.220487,-42.574341,92.790619,-104.206223,60.187918,24.830399,29.477791,15.45568,0.139522,-1.0,102.061897,-0.692287,-3.093461,0.078077,1.796282
275008.332368,0.27377748,-0.37736127,9.25675524,-0.071033,-0.251007,-0.212091,-42.263229,92.628769,-104.31424,60.187918,24.830399,29.477791,15.45568,0.139522,-1.0,102.061897,-0.692287,-3.102873,0.08163,1.804961
275008.352353,0.5348412,-0.39637305000000006,9.286234290000001,-0.058893,-0.224358,-0.242434,-42.04509,92.629486,-104.144638,60.187918,24.830399,29.477791,15.45568,0.139522,-1.0,102.061897,-0.692287,-3.108155,0.083262,1.809271
275008.372339,0.64141704,-0.48094506000000004,9.46691487,-0.046926,-0.195047,-0.278457,-41.712677,92.828766,-104.322876,60.187918,24.830399,29.477791,15.45568,0.139522,-1.0,102.061897,-0.692287,-3.113068,0.084647,1.814165
275008.392323,0.49337432999999997,-0.53244756,9.56705535,-0.028437,-0.14327,-0.308498,-41.645355,92.776001,-104.281097,60.187918,24.830399,29.477791,15.45568,0.139522,-1.0,102.061897,-0.692287,-3.117431,0.085777,1.819819
275008.412308,0.46986957000000007,-0.68018616,9.65492352,-0.012118,-0.101848,-0.310749,-41.078171,92.76123,-104.527634,60.187918,24.830399,29.477791,15.45568,0.139522,-1.0,102.061897,-0.692287,-3.12084,0.086557,1.826047
275008.432293,0.4504163400000001,-0.76281579,9.813590460000002,0.010499,-0.091754,-0.277374,-41.581116,92.539093,-104.542023,60.187918,24.830399,29.477791,15.45568,0.139522,-1.0,102.061897,-0.692287,-3.123426,0.086963,1.832298
275008.452279,0.4939727400000001,-0.66880656,10.04306598,0.045947,-0.140201,-0.243519,-41.054565,92.952896,-104.771896,60.187918,24.830399,29.477791,15.45568,0.139522,-1.0,102.061897,-0.692287,-3.125811,0.086882,1.837937
275008.472264,0.39936510000000003,-0.61327215,10.09231218,0.080122,-0.1849,-0.216159,-40.959747,93.149628,-104.737381,60.187918,24.830399,29.477791,15.45568,0.139522,-1.0,102.061897,-0.692287,-3.129032,0.086088,1.842918
275008.492249,0.21780162,-0.659232,9.95579622,0.101268,-0.192274,-0.195906,-40.345062,93.323181,-104.497299,60.187918,24.830399,29.477791,15.45568,0.139522,-1.0,102.061897,-0.692287,-3.133066,0.08462,1.847362
275008.512234,-0.00404172,-0.72793143,9.88364367,0.106789,-0.16606,-0.1777,-40.345062,93.323181,-104.497299,60.187918,24.830399,29.477791,15.45568,0.139522,-1.0,102.061897,-0.692287,-3.13721,0.082711,1.851383
275008.53222,-0.031136940000000002,-0.7337781900000001,9.807007950000001,0.092671,-0.131071,-0.14311,-40.676819,93.14122,-104.618576,60.187918,24.830399,29.477791,15.45568,0.139522,-1.0,102.061897,-0.692287,-3.14084,0.080686,1.855003
275008.552205,0.09160578000000001,-0.78182757,9.64893942,0.06857,-0.111788,-0.115892,-40.226517,93.32663,-104.650284,60.187918,24.830399,29.477791,15.45568,0.139522,-1.0,102.061897,-0.692287,3.139452,0.078908,1.857969
275008.57219,0.15538058999999999,-0.8704413000000001,9.42934257,0.047149,-0.086227,-0.095175,-39.819153,93.47023,-104.964981,60.187918,24.830399,29.477791,15.45568,0.139522,-1.0,102.061897,-0.692287,3.137055,0.077586,1.860346
275008.592175,0.50999247,-0.8288272799999999,9.516612330000001,0.033984,-0.072586,-0.077148,-39.885376,93.4384,-104.949295,60.187918,24.830399,29.477791,15.45568,0.139522,-1.0,102.061897,-0.692287,3.135153,0.076706,1.862331
275008.612161,0.70473078,-0.8243343,9.8333478,0.030404,-0.063857,-0.064074,-40.014069,93.464523,-104.706924,60.187918,24.830399,29.477791,15.45568,0.139522,-1.0,102.061897,-0.692287,3.133583,0.076069,1.863936
275008.632146,0.7770304800000001,-0.6137234100000001,10.32672213,0.106825,-0.067655,-0.111333,-39.648773,93.511673,-104.78772,60.187918,24.830399,29.477791,15.45568,0.139522,-1.0,102.061897,-0.692287,3.132275,0.075521,1.865331
275008.652131,0.2894931,-0.9737209800000001,9.65133306,0.124532,-0.036858,-0.092986,-39.815414,93.613556,-104.958298,60.187918,24.830399,29.477791,15.45568,0.139522,-1.0,102.061897,-0.692287,3.130947,0.073456,1.867527
275008.672116,0.35416062000000004,-1.07191908,9.95400099,0.146156,-0.031855,-0.07668,-39.805283,93.771179,-105.202194,60.187918,24.830399,29.477791,15.45568,0.139522,-1.0,102.061897,-0.692287,3.130524,0.07076,1.869508
275008.692102,0.52884729,-0.80203617,10.32343578,0.187966,-0.046134,-0.085166,-39.939407,93.744614,-105.041351,60.187918,24.830399,29.477791,15.45568,0.139522,-1.0,102.061897,-0.692287,3.130295,0.067685,1.871156
275008.712087,0.8234415900000001,-0.8828607600000001,10.09965006,0.193339,-0.144366,-0.08623,-40.201141,93.421432,-104.490585,60.187918,24.830399,29.477791,15.45568,0.139522,-1.0,102.061897,-0.692287,3.128893,0.064163,1.872896
275008.732072,0.58633389,-0.7714976400000001,9.95923953,0.18826,-0.17254,-0.083978,-39.543289,93.708252,-104.734207,60.187918,24.830399,29.477791,15.45568,0.139522,-1.0,102.061897,-0.692287,3.125752,0.060419,1.874626
275008.752057,0.4090966200000001,-0.39966921,10.3741731,0.250621,-0.150509,-0.072006,-39.35228,93.898224,-104.55275,60.187918,24.830399,29.477791,15.45568,0.139522,-1.0,102.061897,-0.692287,3.121996,0.05653,1.876292
275008.792028,0.6825798000000001,-1.2889653300000001,10.922787540000002,0.080761,-0.227947,-0.057383,-38.495804,93.332535,-104.977005,60.187918,24.830399,29.477791,15.45568,0.139522,-1.0,102.061897,-0.692287,3.115813,0.048004,1.878373
275008.812013,0.31854051,-0.47795301,9.36048618,0.126656,-0.115947,-0.026579,-37.882614,92.743713,-106.459305,60.187918,24.830399,29.477791,15.45568,0.139522,-1.0,102.061897,-0.692287,3.111136,0.046163,1.879392
275008.812013,0.31854051,-0.47795301,9.36048618,0.126656,-0.115947,-0.026579,-37.882614,92.743713,-106.459305,60.187918,24.830399,29.477791,15.45568,0.139522,-1.0,102.061897,-0.692287,3.111136,0.046163,1.879392
275008.851984,0.50983551,-0.40804695,9.73515951,0.092468,-0.091755,-0.00064,-40.123505,92.219681,-107.491898,60.187918,24.830399,29.477791,15.45568,0.139522,-1.0,102.061897,-0.692287,3.105455,0.041782,1.880361
275008.851984,0.50983551,-0.40804695,9.73515951,0.092468,-0.091755,-0.00064,-40.123505,92.219681,-107.491898,60.187918,24.830399,29.477791,15.45568,0.139522,-1.0,102.061897,-0.692287,3.105455,0.041782,1.880361
275008.891954,0.4773546,-0.47376414,9.731412090000001,0.057321,-0.078647,0.012218,-42.509583,93.17421,-105.887146,60.187918,24.830399,29.477791,15.45568,0.139522,-1.0,102.061897,-0.692287,3.101259,0.038822,1.880687
275008.911939,0.40251411,-0.54860463,9.63441081,0.050672,-0.081927,0.042076,-42.248322,94.531738,-105.865997,60.187918,24.830399,29.477791,15.45568,0.139522,-1.0,102.061157,-0.634155,3.099788,0.037765,1.88047
275008.931925,0.49232466,-0.45894123000000003,9.845178660000002,0.041946,-0.045522,0.076564,-41.66153,95.225143,-104.883911,60.187918,24.830399,29.477791,15.45568,0.139522,-1.0,102.061157,-0.634155,3.098408,0.036875,1.879673
275008.95191,0.27617112,-0.5029587000000001,10.3366008,-0.004116,-0.000713,0.096159,-40.013046,95.572556,-104.534653,60.187918,24.830399,29.477791,15.45568,0.139522,-1.0,102.061157,-0.634155,3.097208,0.036392,1.878303
275008.971895,0.9310671,-0.10492776000000001,9.529188750000001,0.010427,-0.014801,0.112344,-39.415558,95.635239,-103.659668,60.187918,24.830399,29.477791,15.45568,0.139522,-1.0,102.061157,-0.634155,3.097665,0.03662,1.876442
275008.99188,0.5126804100000001,-0.33844500000000005,9.564357600000001,-0.005669,0.015844,0.131185,-38.635468,95.949097,-104.50058,60.187918,24.830399,29.477791,15.45568,0.139522,-1.0,102.061157,-0.634155,3.097693,0.036624,1.874231
275009.011866,0.64321227,-0.12049623000000001,9.66420378,0.019417,0.007369,0.131747,-38.989731,95.49472,-104.536667,60.187918,24.830399,29.477791,15.45568,0.139522,-1.0,102.061157,-0.634155,3.097929,0.036795,1.871663
275009.031851,0.36389214000000003,-0.16002072,9.943072650000001,0.014822,0.038893,0.184629,-38.615387,95.149628,-105.201157,60.187918,24.830399,29.477791,15.45568,0.139522,-1.0,102.061157,-0.634155,3.09823,0.036636,1.868977
275009.051836,0.2601612,-0.26824464000000003,9.829610190000002,0.003317,0.004291,0.115902,-38.370651,94.626266,-104.944626,60.187918,24.830399,29.477791,15.45568,0.139522,-1.0,102.061157,-0.634155,3.098934,0.036587,1.86567
275009.071821,-0.15282999000000003,-0.23905008000000003,9.68711013,-0.021471,0.007468,0.107464,-37.716782,94.031036,-105.00032,60.187918,24.830399,29.477791,15.45568,0.139522,-1.0,102.061157,-0.634155,3.099017,0.036751,1.863367
275009.091807,0.30147111000000004,0.1357704,9.8361927,0.016824,-0.035053,0.104187,-37.054352,93.627243,-105.696671,60.187918,24.830399,29.477791,15.45568,0.139522,-1.0,102.061157,-0.634155,3.0992,0.037222,1.861241
275009.111792,0.45340839000000005,-0.18097488,9.93005478,0.010565,-0.042185,0.049287,-37.459732,93.154938,-105.4095,60.187918,24.830399,29.477791,15.45568,0.139522,-1.0,102.061157,-0.634155,3.098931,0.037143,1.859295
275009.131777,0.35566155000000005,-0.14414814,9.855057330000001,0.010565,-0.042185,0.049287,-37.305557,92.788803,-105.814148,60.187918,24.830399,29.477791,15.45568,0.139522,-1.0,102.061157,-0.634155,3.098424,0.037058,1.8583
275009.131777,0.35566155000000005,-0.14414814,9.855057330000001,0.010565,-0.042185,0.049287,-37.305557,92.788803,-105.814148,60.187918,24.830399,29.477791,15.45568,0.139522,-1.0,102.061157,-0.634155,3.098424,0.037058,1.8583
275009.171748,0.47646189000000005,-0.10178856,9.711350640000001,0.001467,-0.011048,0.076552,-37.07811,93.186844,-105.849838,60.187918,24.830399,29.477791,15.45568,0.139522,-1.0,102.061157,-0.634155,3.098441,0.037158,1.856058
275009.191733,0.58453866,0.05658408,9.72287739,0.013586,0.00928,0.066715,-37.370438,93.48497,-105.203201,60.187918,24.830399,29.477791,15.45568,0.139522,-1.0,102.061157,-0.634155,3.09832,0.037193,1.854638
275009.211718,0.37137717000000003,-0.01466595,9.827069400000001,0.004238,-0.008168,0.056264,-37.370438,93.48497,-105.203201,60.187918,24.830399,29.477791,15.45568,0.139522,-1.0,102.061157,-0.634155,3.098249,0.037232,1.853364
275009.231703,0.06960195,-0.12080034,9.35254989,-0.006698,-0.012017,0.026261,-37.951523,93.941177,-104.916138,60.187918,24.830399,29.477791,15.45568,0.139522,-1.0,102.061157,-0.634155,3.098328,0.037222,1.852318
275009.251689,0.5007122100000001,-0.1240965,9.358533990000002,0.009031,0.012589,-0.013308,-39.004807,94.290619,-104.221878,60.187902,24.830398,30.029989,15.311184,0.146524,-1.0,102.061157,-0.634155,3.098391,0.037234,1.85188
275009.271674,0.5724135,-0.31943322,9.69893118,-0.000469,0.014734,-0.026317,-40.101868,94.7267,-104.583359,60.187902,24.830398,30.029989,15.311184,0.146524,-1.0,102.061157,-0.634155,3.098369,0.037179,1.852205
275009.291659,0.36539307000000004,-0.30206952000000004,9.89667135,-0.000772,0.010888,-0.004061,-40.897964,94.958969,-104.660385,60.187902,24.830398,30.029989,15.311184,0.146524,-1.0,102.061157,-0.634155,3.098406,0.037276,1.852775
275009.311644,0.47646189000000005,-0.34922619,10.02809592,-0.000925,-0.004465,0.010356,-42.564148,94.92395,-104.495346,60.187902,24.830398,30.029989,15.311184,0.146524,-1.0,102.061157,-0.634155,3.09848,0.037338,1.852976
275009.33163,0.36688419000000005,-0.43200297000000004,9.967774230000002,-0.003466,-0.001438,-0.000749,-43.145477,94.895538,-104.94429,60.187902,24.830398,30.029989,15.311184,0.146524,-1.0,102.061157,-0.634155,3.098451,0.037411,1.852888
275009.351615,0.36344088,-0.41104881000000004,9.85955031,0.000186,-0.006143,-0.018655,-43.711182,94.231247,-104.977936,60.187902,24.830398,30.029989,15.311184,0.146524,-1.0,102.061157,-0.634155,3.098414,0.037524,1.853001
275009.3716,0.23905008000000003,-0.41987781,9.760008240000001,-0.003921,-0.00173,-0.03979,-43.161316,93.913635,-105.611481,60.187902,24.830398,30.029989,15.311184,0.146524,-1.0,102.061157,-0.634155,3.098329,0.037601,1.853471
275009.391587,0.15328125,-0.3094074,9.683666820000001,0.007059,0.001075,-0.077571,-42.501923,93.536118,-105.92717,60.187902,24.830398,30.029989,15.311184,0.146524,-1.0,102.061157,-0.634155,3.098265,0.037673,1.854371
275009.411572,0.10568313,-0.30491442,9.75865446,0.003571,0.004079,-0.11579,-42.083557,93.15889,-106.087433,60.187902,24.830398,30.029989,15.311184,0.146524,-1.0,102.061157,-0.634155,3.09825,0.037544,1.855995
275009.431557,0.36867942,-0.23605803000000003,9.652078620000001,0.014296,-0.004318,-0.118938,-42.401215,92.453979,-105.737854,60.187902,24.830398,30.029989,15.311184,0.146524,-1.0,102.061157,-0.634155,3.098164,0.037374,1.858342
275009.451542,0.3873969,-0.30462012,9.49729644,0.006127,0.002369,-0.110103,-42.076935,92.497131,-106.598785,60.187902,24.830398,30.029989,15.311184,0.146524,-1.0,102.061157,-0.634155,3.098018,0.037252,1.860794
275009.491513,0.6053456700000001,-0.25416729000000005,9.68530509,-0.002029,-0.00138,-0.075772,-42.56218,93.004715,-106.4487,60.187902,24.830398,30.029989,15.311184,0.146524,-1.0,102.061157,-0.634155,3.098055,0.037138,1.86519
275009.511498,0.7637085,-0.30850488,9.63277254,-0.006168,0.004556,-0.019833,-41.583771,92.910721,-106.400131,60.187902,24.830398,30.029989,15.311184,0.146524,-1.0,102.061157,-0.634155,3.098069,0.037172,1.866741
275009.531483,0.83660661,-0.24803604,9.744439770000001,-0.004213,-0.005687,0.026069,-40.252884,92.149887,-106.275803,60.187902,24.830398,30.029989,15.311184,0.146524,-1.0,102.061157,-0.634155,3.098077,0.037302,1.86725
275009.531483,0.83660661,-0.24803604,9.744439770000001,-0.004213,-0.005687,0.026069,-40.252884,92.149887,-106.275803,60.187902,24.830398,30.029989,15.311184,0.146524,-1.0,102.061157,-0.634155,3.098077,0.037302,1.86725
275009.551469,0.38125584000000007,-0.28994436,9.78859458,0.002509,-0.000589,0.036216,-38.682281,92.226257,-105.936432,60.187902,24.830398,30.029989,15.311184,0.146524,-1.0,102.061157,-0.634155,3.097985,0.037407,1.866831
275009.571454,0.25072398,-0.30416886,9.78455286,0.002398,-0.003581,0.027684,-36.977905,93.315994,-105.580627,60.187902,24.830398,30.029989,15.311184,0.146524,-1.0,102.061157,-0.634155,3.097962,0.037438,1.866217
275009.611424,0.47974824000000005,-0.22543380000000002,9.78934014,0.005662,0.001127,0.006382,-39.412628,94.552933,-104.720551,60.187902,24.830398,30.029989,15.311184,0.146524,-1.0,102.061157,-0.634155,3.097907,0.037465,1.86536
275009.63141,0.5773479300000001,-0.28515708,9.79593246,0.004373,0.001296,0.001899,-41.142517,94.862442,-105.036514,60.187902,24.830398,30.029989,15.311184,0.146524,-1.0,102.061157,-0.634155,3.09797,0.037424,1.865289
275009.651395,0.40356378000000004,-0.33739533,9.78021684,0.004637,0.005336,0.011361,-42.789337,94.125763,-105.2034,60.187902,24.830398,30.029989,15.311184,0.146524,-1.0,102.061157,-0.634155,3.098017,0.037405,1.865308
275009.67138,0.35880075000000006,-0.3179421,9.70671051,0.002667,0.001814,-0.003501,-42.341217,93.11618,-105.869446,60.187902,24.830398,30.029989,15.311184,0.146524,-1.0,102.061157,-0.634155,3.098117,0.037404,1.865196
275009.691366,0.35057015999999996,-0.28171377000000003,9.74428281,9e-05,0.002647,-0.001506,-40.87616,92.376617,-105.983963,60.187902,24.830398,30.029989,15.311184,0.146524,-1.0,102.061157,-0.634155,3.098181,0.03741,1.865323
275009.711351,0.31285071000000003,-0.30476727000000003,9.751473540000001,0.001075,0.006791,0.004697,-38.048401,92.435165,-105.90097,60.187902,24.830398,30.029989,15.311184,0.146524,-1.0,102.061157,-0.634155,3.098242,0.03746,1.86545
275009.731336,0.36164565000000004,-0.23576373,9.752670360000002,0.005497,0.001895,0.001321,-36.206146,93.421188,-105.436844,60.187902,24.830398,30.029989,15.311184,0.146524,-1.0,102.061157,-0.634155,3.098316,0.037523,1.865457
275009.751321,0.5364892800000001,-0.33425613,9.76733631,0.013071,-0.014037,0.032198,-36.155273,94.637253,-105.303528,60.187902,24.830398,30.029989,15.311184,0.146524,-1.0,102.061157,-0.634155,3.098333,0.037497,1.865457
275009.771307,0.5343899400000001,-0.28081125,9.78934014,0.010369,0.014185,0.046696,-38.974609,95.254288,-105.023727,60.187902,24.830398,30.029989,15.311184,0.146524,-1.0,102.061157,-0.634155,3.098479,0.037409,1.864867
275009.791292,0.35880075000000006,-0.3153915,9.851614020000001,0.005087,0.004787,0.041068,-42.097687,94.922287,-104.988937,60.187902,24.830398,30.029989,15.311184,0.146524,-1.0,102.061157,-0.634155,3.098617,0.037323,1.864036
275009.811277,0.2832147,-0.28365615,9.869880240000002,-0.006274,-0.012672,0.047313,-42.844147,93.513351,-105.690796,60.187902,24.830398,30.029989,15.311184,0.146524,-1.0,102.061157,-0.634155,3.098717,0.03732,1.863311
275009.831262,0.11197134000000002,-0.24743763,9.66719583,-0.001634,0.001168,0.041514,-41.109329,92.575928,-106.14061,60.187902,24.830398,30.029989,15.311184,0.146524,-1.0,102.061157,-0.634155,3.098661,0.037493,1.862484
275009.851248,0.1212516,-0.26554689,9.67498497,0.007404,0.001344,-0.002721,-38.356613,92.407516,-105.913055,60.187902,24.830398,30.029989,15.311184,0.146524,-1.0,102.061157,-0.634155,3.098728,0.037602,1.861781
275009.871233,0.25117524,-0.26465418,9.71644203,0.007404,0.001344,-0.002721,-37.606934,92.379166,-105.083511,60.187902,24.830398,30.029989,15.311184,0.146524,-1.0,102.061157,-0.634155,3.098725,0.037514,1.861946
275009.891218,0.6081807600000001,-0.17184177000000003,9.867633750000001,0.01598,-0.041853,-0.071397,-37.347824,94.070648,-105.366745,60.187902,24.830398,30.029989,15.311184,0.146524,-1.0,102.061157,-0.634155,3.098398,0.037292,1.863202
275009.911203,0.67135716,-0.2168991,9.672287220000001,0.014436,-0.007458,-0.003568,-37.347824,94.070648,-105.366745,60.187902,24.830398,30.029989,15.311184,0.146524,-1.0,102.061157,-0.634155,3.097866,0.036937,1.86458
275009.931189,0.33066567,-0.25896438000000005,9.73860282,0.000704,0.012478,0.030903,-38.483444,95.606552,-104.027374,60.187902,24.830398,30.029989,15.311184,0.146524,-1.0,102.061157,-0.634155,3.097725,0.036675,1.864796
275009.951174,0.56357469,-0.2083644,9.82497006,0.009786,-0.005694,0.052029,-40.237015,95.518661,-103.520844,60.187902,24.830398,30.029989,15.311184,0.146524,-1.0,102.061157,-0.634155,3.097949,0.036631,1.86428
275009.971159,0.43813422,-0.42017211000000004,9.799974180000001,0.003118,-0.018958,0.049109,-41.488876,93.733795,-104.879227,60.187902,24.830398,30.029989,15.311184,0.146524,-1.0,102.061157,-0.634155,3.097849,0.036578,1.863331
275009.991144,0.45460521000000004,-0.40581027000000003,9.771976440000001,0.005615,-0.010991,0.025334,-40.077103,92.498672,-106.117798,60.187902,24.830398,30.029989,15.311184,0.146524,-1.0,102.061157,-0.634155,3.097551,0.036622,1.862442
275010.01113,0.57301191,-0.41882814000000007,9.891128700000001,0.001122,-0.005438,0.021158,-37.802933,93.407593,-106.09285,60.187902,24.830398,30.029989,15.311184,0.146524,-1.0,102.061157,-0.634155,3.097369,0.036569,1.862014
275010.031115,0.66102723,-0.32497587,9.70087356,0.00469,0.003562,0.040597,-37.319229,95.180145,-104.787094,60.187902,24.830398,30.029989,15.311184,0.146524,-1.0,102.061157,-0.634155,3.097393,0.036593,1.861648
275010.0511,0.61222248,-0.21075804,9.72048375,0.010635,0.013884,0.053688,-39.43576,96.088013,-103.701157,60.187902,24.830398,30.029989,15.311184,0.146524,-1.0,102.061157,-0.634155,3.09749,0.036634,1.86096
275010.091071,0.72673461,-0.42466509,9.75836016,0.008511,-0.027829,0.064728,-41.036636,92.31749,-106.171967,60.187902,24.830398,30.029989,15.311184,0.146524,-1.0,102.061157,-0.634155,3.097913,0.036365,1.859161
275010.111056,0.46642626,-0.55085112,9.863739180000001,-0.006696,0.011825,0.069913,-37.701813,92.850952,-106.209778,60.187902,24.830398,30.029989,15.311184,0.146524,-1.0,102.061157,-0.634155,3.097884,0.03634,1.857971
275010.131041,0.46762308,-0.40400523,9.78230637,-0.001181,0.01572,0.069146,-38.745941,95.322922,-104.739273,60.187902,24.830398,30.029989,15.311184,0.146524,-1.0,102.061157,-0.634155,3.098134,0.036492,1.856626
275010.131041,0.46762308,-0.40400523,9.78230637,-0.001181,0.01572,0.069146,-38.745941,95.322922,-104.739273,60.187902,24.830398,30.029989,15.311184,0.146524,-1.0,102.061157,-0.634155,3.098134,0.036492,1.856626
275010.171012,0.26210358,-0.19414971,9.81733788,-0.003268,0.005038,0.088169,-42.173004,93.532043,-106.317444,60.187902,24.830398,30.029989,15.311184,0.146524,-1.0,102.061157,-0.634155,3.09866,0.036749,1.853816
275010.190997,0.12214431,-0.12080034,9.77317326,-0.000394,-0.001129,0.069578,-38.162308,93.025177,-106.508163,60.187902,24.830398,30.029989,15.311184,0.146524,-1.0,102.061157,-0.634155,3.098915,0.036879,1.852146
275010.210982,0.33755229000000003,-0.57899601,9.74473407,0.001449,-0.017728,0.008614,-38.426575,94.493988,-104.83049,60.187902,24.830398,30.029989,15.311184,0.146524,-1.0,102.061157,-0.634155,3.099029,0.037024,1.850907
275010.230968,0.51373008,-0.76490532,9.77960862,0.00806,-0.000771,0.024124,-42.242325,94.943115,-104.289948,60.187902,24.830398,30.029989,15.311184,0.146524,-1.0,102.061157,-0.634155,3.098888,0.036874,1.850777
275010.250953,0.23875578,-0.44561925,9.92735703,0.00077,-0.001745,0.026557,-43.252396,93.241302,-105.321411,60.187907,24.830396,30.465309,15.472231,0.120205,-1.0,102.061157,-0.634155,3.098813,0.036791,1.850395
275010.270938,0.53364438,-0.43020774,9.78290478,0.005445,-0.002364,-0.00816,-38.808044,92.738892,-106.1633,60.187907,24.830396,30.465309,15.472231,0.120205,-1.0,102.061157,-0.634155,3.098852,0.03672,1.850006
275010.290923,0.46058931000000003,-0.31000581,9.71344998,-0.009158,0.000215,-0.026237,-35.87587,93.357758,-106.012314,60.187907,24.830396,30.465309,15.472231,0.120205,-1.0,102.061157,-0.634155,3.098743,0.036634,1.850234
275010.310909,0.49681764000000006,-0.20761884,9.743684400000001,-0.009795,0.005492,-0.019947,-38.203293,94.919357,-104.7202,60.187907,24.830396,30.465309,15.472231,0.120205,-1.0,102.061157,-0.634155,3.09874,0.036772,1.850857
275010.330894,0.42930522000000004,-0.22812174000000002,9.677525760000002,-0.004401,0.000214,0.006561,-41.804459,95.220993,-104.20253,60.187907,24.830396,30.465309,15.472231,0.120205,-1.0,102.061157,-0.634155,3.098765,0.037013,1.85134
275010.350879,0.31569561,-0.18950957999999998,9.712400310000001,-0.004401,0.000214,0.006561,-41.58754,93.039078,-105.443481,60.187907,24.830396,30.465309,15.472231,0.120205,-1.0,102.061157,-0.634155,3.09877,0.037124,1.851333
275010.370864,0.5641731,-0.29952873,9.91597743,0.020394,-0.00579,0.012522,-38.130722,92.131226,-105.899017,60.187907,24.830396,30.465309,15.472231,0.120205,-1.0,102.061157,-0.634155,3.098739,0.037008,1.851306
275010.390849,0.25057683000000003,-0.4397823,9.85415481,0.005037,0.013228,0.012234,-38.022583,94.389938,-104.531784,60.187907,24.830396,30.465309,15.472231,0.120205,-1.0,102.061157,-0.634155,3.098689,0.036708,1.851107
275010.410834,0.38364948,-0.3239262,9.98109621,0.007679,0.014325,0.016452,-41.259827,95.792099,-103.152878,60.187907,24.830396,30.465309,15.472231,0.120205,-1.0,102.061157,-0.634155,3.098971,0.036541,1.850918
275010.430819,0.3930867,-0.30761217,9.82526436,0.011611,-0.019782,0.027412,-42.431442,93.961426,-104.508667,60.187907,24.830396,30.465309,15.472231,0.120205,-1.0,102.061157,-0.634155,3.099172,0.036433,1.850693
275010.450804,0.27722079,-0.21764466000000002,9.691299,0.014245,-0.021171,0.042824,-39.290451,92.626511,-106.084244,60.187907,24.830396,30.465309,15.472231,0.120205,-1.0,102.061157,-0.634155,3.098956,0.036304,1.85024
275010.47079,0.54097245,-0.28141947,9.765246780000002,0.023242,0.000554,0.05784,-37.459213,95.048431,-105.552155,60.187907,24.830396,30.465309,15.472231,0.120205,-1.0,102.061157,-0.634155,3.098691,0.036163,1.849488
275010.490775,0.32198382,-0.30042144,9.73275606,0.010136,0.015847,0.076204,-41.105865,96.060608,-104.099686,60.187907,24.830396,30.465309,15.472231,0.120205,-1.0,102.061157,-0.634155,3.098471,0.036016,1.848362
275010.51076,0.5043026700000001,-0.22213764000000003,9.73755315,0.000232,0.002626,0.072444,-43.530212,93.252243,-104.657074,60.187907,24.830396,30.465309,15.472231,0.120205,-1.0,102.061157,-0.634155,3.098542,0.036053,1.846909
275010.51076,0.5043026700000001,-0.22213764000000003,9.73755315,0.000232,0.002626,0.072444,-43.530212,93.252243,-104.657074,60.187907,24.830396,30.465309,15.472231,0.120205,-1.0,102.061157,-0.634155,3.098542,0.036053,1.846909
275010.550731,0.34877493000000004,-0.38364948,9.63875664,-0.000829,0.019816,0.060487,-38.081009,94.996368,-105.432297,60.187907,24.830396,30.465309,15.472231,0.120205,-1.0,102.061157,-0.634155,3.099016,0.036116,1.845192
275010.570716,0.68707278,-0.2459367,9.719738190000001,0.009571,-0.005302,0.062431,-41.709213,95.647827,-104.207047,60.187907,24.830396,30.465309,15.472231,0.120205,-1.0,102.061157,-0.634155,3.099371,0.036175,1.844141
275010.590701,0.32691825,-0.24084531,9.724378320000001,0.014583,-0.001271,0.012792,-42.401489,92.84581,-105.690018,60.187907,24.830396,30.465309,15.472231,0.120205,-1.0,102.061157,-0.634155,3.099473,0.035912,1.843031
275010.610686,0.34578288,-0.25701219000000003,9.872715330000002,-0.007794,0.020514,0.00408,-42.401489,92.84581,-105.690018,60.187907,24.830396,30.465309,15.472231,0.120205,-1.0,102.061157,-0.634155,3.099349,0.035743,1.842664
275010.630672,0.38859372000000003,-0.29757654,9.64848816,-0.009701,0.001502,0.011383,-38.881287,93.069,-106.549194,60.187907,24.830396,30.465309,15.472231,0.120205,-1.0,102.061157,-0.634155,3.099168,0.035869,1.84258
275010.650657,0.49112784,-0.38484630000000003,9.67886973,-0.024203,0.00347,-0.026297,-40.222397,95.343552,-105.161865,60.187907,24.830396,30.465309,15.472231,0.120205,-1.0,102.061157,-0.634155,3.099481,0.036156,1.842491
275010.670642,0.5987533500000001,-0.46418958,9.96612615,0.061697,0.016764,0.041604,-43.167038,94.151413,-105.154495,60.187907,24.830396,30.465309,15.472231,0.120205,-1.0,102.061157,-0.634155,3.099377,0.036541,1.843026
275010.690627,0.85202793,-0.62749665,9.87406911,0.069395,0.002324,0.135548,-40.271759,92.093918,-106.333023,60.187907,24.830396,30.465309,15.472231,0.120205,-1.0,102.061157,-0.634155,3.099476,0.035577,1.842213
275010.710613,0.15328125,-0.7318260000000001,9.867182490000001,0.049315,0.023058,0.12266,-37.715469,94.397003,-105.25618,60.187907,24.830396,30.465309,15.472231,0.120205,-1.0,102.061157,-0.634155,3.099654,0.034468,1.839633
275010.710613,0.15328125,-0.7318260000000001,9.867182490000001,0.049315,0.023058,0.12266,-37.715469,94.397003,-105.25618,60.187907,24.830396,30.465309,15.472231,0.120205,-1.0,102.061157,-0.634155,3.099654,0.034468,1.839633
275010.730598,0.26420292,-0.9657945,9.78455286,0.13055,0.012138,0.040954,-42.371414,95.453552,-105.186157,60.187907,24.830396,30.465309,15.472231,0.120205,-1.0,102.061157,-0.634155,3.100181,0.033607,1.837254
275010.730598,0.26420292,-0.9657945,9.78455286,0.13055,0.012138,0.040954,-42.371414,95.453552,-105.186157,60.187907,24.830396,30.465309,15.472231,0.120205,-1.0,102.061157,-0.634155,3.100181,0.033607,1.837254
275010.770568,0.56567403,-0.66775689,9.84382488,0.047093,0.024077,-0.044948,-39.643036,92.236557,-105.917999,60.187907,24.830396,30.465309,15.472231,0.120205,-1.0,102.061157,-0.634155,3.100281,0.030321,1.837298
275010.810539,0.53154504,-0.6134291100000001,9.83035575,0.032121,0.001936,0.014833,-37.718765,94.354996,-104.912247,60.187907,24.830396,30.465309,15.472231,0.120205,-1.0,102.061157,-0.634155,3.100647,0.028465,1.837806
275010.850509,0.40581027000000003,-0.6134291100000001,9.75895857,0.017791,-0.002673,-0.000848,-40.539948,95.704086,-104.027786,60.187907,24.830396,30.465309,15.472231,0.120205,-1.0,102.061157,-0.634155,3.100773,0.027404,1.837439
275010.850509,0.40581027000000003,-0.6134291100000001,9.75895857,0.017791,-0.002673,-0.000848,-40.539948,95.704086,-104.027786,60.187907,24.830396,30.465309,15.472231,0.120205,-1.0,102.061157,-0.634155,3.100773,0.027404,1.837439
275010.89048,0.30926025,-0.44472654,9.74728467,0.014091,-0.001294,-0.008859,-42.716721,95.208862,-103.672318,60.187907,24.830396,30.465309,15.472231,0.120205,-1.0,102.061157,-0.634155,3.100786,0.026768,1.837708
275010.910465,0.17004654,-0.38634723000000004,9.744439770000001,0.012036,0.000464,-0.012947,-42.471283,94.851013,-104.248276,60.187907,24.830396,30.465309,15.472231,0.120205,-1.0,102.061157,-0.634155,3.100748,0.026561,1.837964
275010.93045,0.18965673,-0.30730806,9.7784118,0.010557,-0.006195,-0.009148,-42.570175,94.484375,-104.725159,60.187907,24.830396,30.465309,15.472231,0.120205,-1.0,102.061157,-0.634155,3.10074,0.026377,1.838266
275010.93045,0.18965673,-0.30730806,9.7784118,0.010557,-0.006195,-0.009148,-42.570175,94.484375,-104.725159,60.187907,24.830396,30.465309,15.472231,0.120205,-1.0,102.061157,-0.634155,3.10074,0.026377,1.838266
275010.970421,0.77673618,-0.28860039000000004,9.743988510000001,0.00867,-0.009208,-0.019748,-42.426376,93.649689,-104.397095,60.187907,24.830396,30.465309,15.472231,0.120205,-1.0,102.061157,-0.634155,3.10045,0.026069,1.839025
275010.990406,0.85741362,-0.30266793,9.751169430000001,0.012398,0.002096,0.004778,-41.441116,93.479004,-105.351852,60.187907,24.830396,30.465309,15.472231,0.120205,-1.0,102.061157,-0.634155,3.100382,0.025891,1.839544
275011.010391,0.44412813,-0.41509053000000007,9.74503818,0.012694,0.004126,0.030098,-40.718552,92.98822,-105.836716,60.187907,24.830396,30.465309,15.472231,0.120205,-1.0,102.061157,-0.634155,3.100395,0.025706,1.839541
275011.030377,0.34368354000000007,-0.45580203,9.759252870000001,0.012451,0.001495,0.043454,-40.059647,92.997269,-106.037827,60.187907,24.830396,30.465309,15.472231,0.120205,-1.0,102.061157,-0.634155,3.100502,0.025519,1.839021
275011.050362,0.37302525000000003,-0.45699885,9.75102228,0.010844,0.004186,0.033844,-39.391617,92.915436,-105.75679,60.187907,24.830396,30.465309,15.472231,0.120205,-1.0,102.061157,-0.634155,3.100593,0.025357,1.838268
275011.070347,0.38844657000000005,-0.44966097000000005,9.7607538,0.007698,0.004247,0.019222,-38.690994,93.184479,-105.59404,60.187907,24.830396,30.465309,15.472231,0.120205,-1.0,102.0616,-0.67115,3.100691,0.02522,1.837684
275011.090332,0.37391796,-0.44217594000000005,9.76599234,0.006169,0.0004,0.006635,-37.917496,93.561661,-106.199066,60.187907,24.830396,30.465309,15.472231,0.120205,-1.0,102.0616,-0.67115,3.100769,0.025125,1.837392
275011.110318,0.3617928,-0.43604469000000007,9.76554108,0.00433,0.001317,0.002998,-37.760376,93.644669,-105.896973,60.187907,24.830396,30.465309,15.472231,0.120205,-1.0,102.0616,-0.67115,3.100813,0.02506,1.837332
275011.130303,0.41628735,-0.42945237,9.771829290000001,0.002913,0.001908,0.004243,-38.058182,93.452148,-105.896591,60.187907,24.830396,30.465309,15.472231,0.120205,-1.0,102.0616,-0.67115,3.100849,0.025033,1.837364
275011.150288,0.41014629,-0.40744854,9.780511140000002,0.002466,-0.000487,0.004765,-38.216248,93.560989,-105.701035,60.187907,24.830396,30.465309,15.472231,0.120205,-1.0,102.0616,-0.67115,3.100865,0.025024,1.837369
275011.170273,0.39084021,-0.37900935,9.7781175,0.003351,-0.002463,0.004095,-38.247879,93.436417,-105.888855,60.187907,24.830396,30.465309,15.472231,0.120205,-1.0,102.0616,-0.67115,3.100851,0.025038,1.837349
275011.190259,0.38919213,-0.3671883,9.784248750000001,0.001215,-0.000943,0.003395,-38.131912,93.667343,-106.144745,60.187907,24.830396,30.465309,15.472231,0.120205,-1.0,102.0616,-0.67115,3.100823,0.025071,1.837368
275011.210244,0.42241860000000003,-0.33081282000000006,9.77092677,0.000866,-0.000948,0.002082,-38.554871,93.303284,-106.06514,60.187907,24.830396,30.465309,15.472231,0.120205,-1.0,102.0616,-0.67115,3.100791,0.025125,1.8374
275011.230229,0.39816828,-0.29084688000000003,9.77960862,0.001459,-0.001368,0.000363,-39.689026,92.913315,-105.719986,60.187907,24.830396,30.465309,15.472231,0.120205,-1.0,102.0616,-0.67115,3.100757,0.025175,1.837443
275011.250215,0.39532338,-0.27946728,9.775272600000001,0.000437,-0.002594,-0.0003,-39.827499,92.968948,-106.028244,60.187903,24.830414,30.635406,15.182756,0.252497,-1.0,102.0616,-0.67115,3.100732,0.025237,1.837496
275011.2702,0.40221,-0.24952716000000003,9.77677353,0.001693,-0.002931,-0.000229,-40.222061,93.126709,-105.967957,60.187903,24.830414,30.635406,15.182756,0.252497,-1.0,102.0616,-0.67115,3.100692,0.025309,1.837587
275011.290185,0.40804695,-0.21001248,9.7869465,0.001948,-0.000618,-0.001801,-40.626205,93.218155,-105.982086,60.187903,24.830414,30.635406,15.182756,0.252497,-1.0,102.0616,-0.67115,3.100649,0.025355,1.837682
275011.31017,0.40057173,-0.18486945000000002,9.76254903,-0.000446,-0.00227,-0.000518,-40.626205,93.218155,-105.982086,60.187903,24.830414,30.635406,15.182756,0.252497,-1.0,102.0616,-0.67115,3.100627,0.025405,1.837784
275011.330156,0.38948643000000005,-0.14594337000000002,9.78500412,0.001512,-0.002681,-0.000223,-41.30629,93.011902,-105.333923,60.187903,24.830414,30.635406,15.182756,0.252497,-1.0,102.0616,-0.67115,3.1006,0.025469,1.837879
275011.350141,0.40191570000000004,-0.1562733,9.77003406,0.002618,-0.001128,0.001847,-41.372528,92.987442,-105.55426,60.187903,24.830414,30.635406,15.182756,0.252497,-1.0,102.0616,-0.67115,3.100578,0.025488,1.837965
275011.370126,0.40340682,-0.15717582000000002,9.76030254,0.000891,-0.000624,0.002472,-41.249207,93.209991,-105.70282,60.187903,24.830414,30.635406,15.182756,0.252497,-1.0,102.0616,-0.67115,3.100567,0.025499,1.838014
275011.390111,0.40236696,-0.1414602,9.77407578,0.003227,9.8e-05,0.004238,-41.262527,93.458954,-105.494385,60.187903,24.830414,30.635406,15.182756,0.252497,-1.0,102.0616,-0.67115,3.100558,0.025516,1.838037
275011.410097,0.39787398,-0.15642045000000002,9.7812567,0.00301,-0.000784,0.00579,-41.663666,93.230942,-104.840714,60.187903,24.830414,30.635406,15.182756,0.252497,-1.0,102.0616,-0.67115,3.100565,0.025516,1.838055
275011.430082,0.4047606,-0.19803447000000002,9.78829047,0.004373,0.000561,0.006107,-41.687332,93.052963,-104.928574,60.187903,24.830414,30.635406,15.182756,0.252497,-1.0,102.0616,-0.67115,3.100573,0.025505,1.83803
275011.470052,0.40880232000000005,-0.25162650000000003,9.78156081,0.003648,3.8e-05,0.006653,-41.221069,93.127396,-105.416824,60.187903,24.830414,30.635406,15.182756,0.252497,-1.0,102.0616,-0.67115,3.10059,0.02544,1.837953
275011.490038,0.40221,-0.2576106,9.77706783,0.004469,-0.000245,0.006501,-40.70108,93.313477,-105.485229,60.187903,24.830414,30.635406,15.182756,0.252497,-1.0,102.0616,-0.67115,3.1006,0.025414,1.837914
275011.490038,0.40221,-0.2576106,9.77706783,0.004469,-0.000245,0.006501,-40.70108,93.313477,-105.485229,60.187903,24.830414,30.635406,15.182756,0.252497,-1.0,102.0616,-0.67115,3.1006,0.025414,1.837914
275011.510023,0.40685013000000003,-0.30282489,9.77751909,0.003655,0.000201,0.007833,-40.930893,93.083832,-105.159012,60.187903,24.830414,30.635406,15.182756,0.252497,-1.0,102.0616,-0.67115,3.100599,0.025372,1.837888
275011.549993,0.40490775,-0.30746502000000003,9.77706783,0.004699,0.00084,0.003352,-40.159317,93.320175,-105.702759,60.187903,24.830414,30.635406,15.182756,0.252497,-1.0,102.0616,-0.67115,3.100616,0.02533,1.837815
275011.569978,0.40385808000000006,-0.31120263000000004,9.7667379,0.00479,0.00139,0.001074,-40.38179,93.132126,-105.647995,60.187903,24.830414,30.635406,15.182756,0.252497,-1.0,102.0616,-0.67115,3.10062,0.025317,1.83781
275011.589964,0.41149026,-0.31598991,9.77048532,0.001996,-0.000551,0.003043,-40.405609,93.067261,-105.643799,60.187903,24.830414,30.635406,15.182756,0.252497,-1.0,102.0616,-0.67115,3.100622,0.025315,1.837834
275011.609949,0.40146444000000003,-0.29697813,9.76764042,0.004042,0.001639,0.002442,-40.828278,92.819061,-105.403976,60.187903,24.830414,30.635406,15.182756,0.252497,-1.0,102.0616,-0.67115,3.100633,0.025329,1.837833
275011.629934,0.39397941000000003,-0.28740357,9.790988220000001,0.002151,-9.1e-05,0.002828,-40.085678,93.203354,-105.912308,60.187903,24.830414,30.635406,15.182756,0.252497,-1.0,102.0616,-0.67115,3.100641,0.025344,1.83785
275011.649919,0.39756987000000005,-0.26150517,9.76434426,0.00188,-0.000178,0.003711,-40.627533,92.923523,-105.694046,60.187903,24.830414,30.635406,15.182756,0.252497,-1.0,102.0616,-0.67115,3.100643,0.025375,1.837875
275011.669905,0.40715424,-0.24264054000000002,9.78679935,0.00188,-0.000178,0.003711,-40.575455,93.277161,-105.84935,60.187903,24.830414,30.635406,15.182756,0.252497,-1.0,102.0616,-0.67115,3.100638,0.025409,1.837897
275011.68989,0.41538483,-0.22857300000000003,9.78215922,0.00221,-0.001361,0.003955,-41.220764,92.839355,-105.295883,60.187903,24.830414,30.635406,15.182756,0.252497,-1.0,102.0616,-0.67115,3.100628,0.025433,1.837914
275011.709875,0.40625172,-0.21599658,9.78515127,0.002864,-0.00076,0.002739,-40.887878,93.103271,-105.474915,60.187903,24.830414,30.635406,15.182756,0.252497,-1.0,102.0616,-0.67115,3.10063,0.025475,1.837922
275011.72986,0.40266126,-0.21525102000000002,9.76688505,0.002898,0.000475,0.00467,-40.610535,93.161987,-105.703888,60.187903,24.830414,30.635406,15.182756,0.252497,-1.0,102.0616,-0.67115,3.100638,0.025495,1.837944
275011.749846,0.40940073,-0.22512969000000002,9.7664436,0.001585,-0.00157,0.004573,-40.586319,93.070053,-105.618683,60.187903,24.830414,30.635406,15.182756,0.252497,-1.0,102.0616,-0.67115,3.100643,0.025498,1.837936
275011.769831,0.40012047,-0.24129657000000002,9.779167170000001,0.002341,0.000311,0.004556,-40.891449,92.950729,-105.65892,60.187903,24.830414,30.635406,15.182756,0.252497,-1.0,102.0616,-0.67115,3.100646,0.025493,1.837924
275011.769831,0.40012047,-0.24129657000000002,9.779167170000001,0.002341,0.000311,0.004556,-40.891449,92.950729,-105.65892,60.187903,24.830414,30.635406,15.182756,0.252497,-1.0,102.0616,-0.67115,3.100646,0.025493,1.837924
275011.809801,0.40744854,-0.26884305000000003,9.76704201,0.001841,-0.000839,0.005652,-40.556686,93.344177,-105.746368,60.187903,24.830414,30.635406,15.182756,0.252497,-1.0,102.0616,-0.67115,3.100674,0.025456,1.837891
275011.829787,0.40775265,-0.27168795,9.7667379,0.003282,0.000661,0.003443,-40.7258,93.036972,-105.592697,60.187903,24.830414,30.635406,15.182756,0.252497,-1.0,102.0616,-0.67115,3.100674,0.025421,1.837874
275011.849772,0.40057173,-0.27617112,9.77302611,0.00401,0.001229,0.004279,-40.747833,92.773788,-105.513062,60.187903,24.830414,30.635406,15.182756,0.252497,-1.0,102.0616,-0.67115,3.100689,0.025392,1.837863
275011.869757,0.39966921,-0.29099403,9.76568823,0.00154,0.000583,0.003371,-40.978683,92.911652,-105.291534,60.187903,24.830414,30.635406,15.182756,0.252497,-1.0,102.0616,-0.67115,3.1007,0.025365,1.837867
275011.889742,0.40325967,-0.27333603,9.77706783,0.002535,0.000667,0.00297,-40.599976,93.031189,-106.06839,60.187903,24.830414,30.635406,15.182756,0.252497,-1.0,102.0616,-0.67115,3.100702,0.025365,1.837874
275011.909727,0.40835106000000004,-0.27003987,9.76554108,0.00378,0.00062,0.00219,-40.454193,93.337296,-106.031006,60.187903,24.830414,30.635406,15.182756,0.252497,-1.0,102.0616,-0.67115,3.100698,0.025375,1.837885
275011.929713,0.40356378000000004,-0.27917298,9.764795520000002,0.004648,0.000659,0.003641,-40.75444,92.997604,-105.656647,60.187903,24.830414,30.635406,15.182756,0.252497,-1.0,102.0616,-0.67115,3.100706,0.025387,1.837887
275011.949698,0.40026762,-0.26121087000000004,9.77347737,0.002989,-0.000281,0.002458,-41.039871,92.799896,-105.523315,60.187903,24.830414,30.635406,15.182756,0.252497,-1.0,102.0616,-0.67115,3.100717,0.025405,1.837893
275011.969683,0.41029344,-0.24519114,9.76554108,0.002989,-0.000281,0.002458,-40.715302,92.897629,-105.735016,60.187903,24.830414,30.635406,15.182756,0.252497,-1.0,102.0616,-0.67115,3.100713,0.025423,1.837908
275011.989668,0.40340682,-0.24638796000000002,9.76599234,0.003587,-0.000545,0.004563,-40.608139,93.172028,-105.845459,60.187903,24.830414,30.635406,15.182756,0.252497,-1.0,102.0616,-0.67115,3.100713,0.025437,1.837905
275012.009653,0.41389371,-0.24444558,9.77287896,0.004171,-0.00035,0.003661,-40.681763,93.177246,-105.84198,60.187903,24.830414,30.635406,15.182756,0.252497,-1.0,102.0616,-0.67115,3.100704,0.025453,1.837902
275012.029639,0.39966921,-0.22423698,9.77661657,0.004146,8.7e-05,0.003759,-40.681763,93.177246,-105.84198,60.187903,24.830414,30.635406,15.182756,0.252497,-1.0,102.0616,-0.67115,3.100704,0.025454,1.837908
275012.049624,0.40041477000000003,-0.25267617,9.78993855,0.002576,0.000704,0.004511,-40.891434,92.912125,-105.202774,60.187903,24.830414,30.635406,15.182756,0.252497,-1.0,102.0616,-0.67115,3.100708,0.025464,1.837914
275012.089594,0.40251411,-0.2573163,9.77108373,0.005564,-0.000629,0.004137,-40.765884,93.023376,-106.000427,60.187903,24.830414,30.635406,15.182756,0.252497,-1.0,102.0616,-0.67115,3.100729,0.025436,1.837914
275012.089594,0.40251411,-0.2573163,9.77108373,0.005564,-0.000629,0.004137,-40.765884,93.023376,-106.000427,60.187903,24.830414,30.635406,15.182756,0.252497,-1.0,102.0616,-0.67115,3.100729,0.025436,1.837914
275012.10958,0.40430934,-0.26569404,9.771378030000001,0.003458,-0.000533,0.004124,-40.654083,93.125641,-105.89212,60.187903,24.830414,30.635406,15.182756,0.252497,-1.0,102.0616,-0.67115,3.100712,0.025409,1.837919
275012.129565,0.40086603,-0.26030835,9.791439480000001,0.002295,-0.000718,0.004569,-40.620468,93.085236,-105.922897,60.187903,24.830414,30.635406,15.182756,0.252497,-1.0,102.0616,-0.67115,3.10072,0.025393,1.837926
275012.169535,0.40236696,-0.27991854,9.77333022,0.002889,-0.001006,0.005059,-40.486603,93.295441,-105.899002,60.187903,24.830414,30.635406,15.182756,0.252497,-1.0,102.062561,-0.75042,3.100723,0.025411,1.837933
275012.18952,0.40296537000000004,-0.26644941,9.78141366,0.003101,-0.000566,0.003869,-40.537399,93.371078,-105.729187,60.187903,24.830414,30.635406,15.182756,0.252497,-1.0,102.062561,-0.75042,3.100725,0.025419,1.837941
275012.209506,0.40894947000000004,-0.26030835,9.77467419,0.002343,-0.000429,0.005125,-40.608231,92.999023,-105.880798,60.187903,24.830414,30.635406,15.182756,0.252497,-1.0,102.062561,-0.75042,3.100731,0.025426,1.837959
275012.229491,0.39682431,-0.25193061,9.774968490000001,0.002397,-0.000898,0.002928,-41.008011,92.912033,-105.612701,60.187903,24.830414,30.635406,15.182756,0.252497,-1.0,102.062561,-0.75042,3.100725,0.025443,1.837963
275012.249476,0.40820391000000006,-0.25925868,9.784405710000001,0.003801,0.000322,0.004789,-40.893738,93.181168,-105.521652,60.1879,24.830418,30.719599,15.182756,0.275108,-1.0,102.062561,-0.75042,3.100725,0.025457,1.837989
275012.269461,0.40940073,-0.25671789,9.792783450000002,0.004803,0.0008,0.004255,-40.711105,93.071289,-105.88913,60.1879,24.830418,30.719599,15.182756,0.275108,-1.0,102.062561,-0.75042,3.100725,0.025463,1.837998
275012.289446,0.40835106000000004,-0.24878160000000002,9.77946147,0.003289,-0.000167,0.003842,-40.578064,93.191772,-106.019135,60.1879,24.830418,30.719599,15.182756,0.275108,-1.0,102.062561,-0.75042,3.100739,0.025463,1.838002
275012.289446,0.40835106000000004,-0.24878160000000002,9.77946147,0.003289,-0.000167,0.003842,-40.578064,93.191772,-106.019135,60.1879,24.830418,30.719599,15.182756,0.275108,-1.0,102.062561,-0.75042,3.100739,0.025463,1.838002
275012.329417,0.42062337,-0.26135802,9.79024266,0.003985,0.000629,0.005172,-41.152878,92.874664,-105.513382,60.1879,24.830418,30.719599,15.182756,0.275108,-1.0,102.062561,-0.75042,3.100736,0.025468,1.837993
275012.349402,0.39697146000000005,-0.25716915,9.77392863,0.00257,4.2e-05,0.0038,-40.394653,93.382324,-105.91951,60.1879,24.830418,30.719599,15.182756,0.275108,-1.0,102.062561,-0.75042,3.100733,0.025476,1.837982
275012.369387,0.41045040000000005,-0.26090676,9.77077962,0.002914,0.000185,0.002095,-40.686462,92.980194,-105.568222,60.1879,24.830418,30.719599,15.182756,0.275108,-1.0,102.062561,-0.75042,3.100728,0.025488,1.837991
275012.389372,0.39892365,-0.27437589,9.78156081,0.003168,6.8e-05,0.002949,-40.567001,93.263458,-106.090317,60.1879,24.830418,30.719599,15.182756,0.275108,-1.0,102.062561,-0.75042,3.100722,0.025485,1.837989
275012.409358,0.40400523,-0.25102809000000004,9.76704201,0.004186,0.000403,0.003401,-41.07991,92.902206,-105.53508,60.1879,24.830418,30.719599,15.182756,0.275108,-1.0,102.062561,-0.75042,3.100711,0.02549,1.838004
275012.429343,0.40266126,-0.26644941,9.78185511,0.003785,0.000131,0.002635,-40.657394,93.294205,-105.845779,60.1879,24.830418,30.719599,15.182756,0.275108,-1.0,102.062561,-0.75042,3.100713,0.0255,1.838013
275012.449328,0.39876669,-0.25956279,9.78485697,0.003083,-0.001227,0.003912,-40.518295,93.271637,-105.699509,60.1879,24.830418,30.719599,15.182756,0.275108,-1.0,102.062561,-0.75042,3.100718,0.025511,1.838019
275012.469313,0.40655583,-0.25147935000000005,9.77377167,0.003324,-0.000992,0.002529,-40.71579,93.13089,-105.75116,60.1879,24.830418,30.719599,15.182756,0.275108,-1.0,102.062561,-0.75042,3.100704,0.025521,1.838013
275012.489298,0.40775265,-0.25042968,9.76464837,0.004039,-0.001127,0.004028,-40.821457,93.026352,-105.707993,60.1879,24.830418,30.719599,15.182756,0.275108,-1.0,102.062561,-0.75042,3.1007,0.02553,1.838024
275012.509283,0.39861954000000005,-0.25657074,9.76972995,0.002284,-0.001311,0.004274,-40.787994,92.878067,-105.690231,60.1879,24.830418,30.719599,15.182756,0.275108,-1.0,102.062561,-0.75042,3.100701,0.025534,1.838028
275012.529269,0.40325967,-0.25746345000000004,9.77512545,0.001464,-0.001395,0.004623,-40.50238,93.262497,-105.975052,60.1879,24.830418,30.719599,15.182756,0.275108,-1.0,102.062561,-0.75042,3.100696,0.025549,1.838024
275012.549254,0.4090966200000001,-0.24100227,9.767493270000001,0.003336,-0.00018,0.003979,-40.632736,93.215225,-105.725983,60.1879,24.830418,30.719599,15.182756,0.275108,-1.0,102.062561,-0.75042,3.10069,0.025562,1.838015
275012.569239,0.40505490000000005,-0.26165232000000005,9.7667379,0.001253,-0.00052,0.004306,-40.853485,92.97847,-105.932449,60.1879,24.830418,30.719599,15.182756,0.275108,-1.0,102.062561,-0.75042,3.100693,0.025565,1.838018
275012.589224,0.39742272,-0.25476570000000004,9.774968490000001,0.0028,-0.000491,0.005055,-41.150986,92.872574,-105.356079,60.1879,24.830418,30.719599,15.182756,0.275108,-1.0,102.062561,-0.75042,3.100688,0.025584,1.838021
275012.609209,0.39038895,-0.24548544000000003,9.783208890000001,0.003452,0.00052,0.004597,-40.829865,92.920486,-105.953293,60.1879,24.830418,30.719599,15.182756,0.275108,-1.0,102.062561,-0.75042,3.100695,0.025593,1.838019
275012.629195,0.40894947000000004,-0.25626663,9.77886306,0.002131,0.001067,0.003504,-40.672485,93.111633,-105.890991,60.1879,24.830418,30.719599,15.182756,0.275108,-1.0,102.062561,-0.75042,3.10071,0.025598,1.83801
275012.64918,0.40416219000000003,-0.25072398,9.76688505,0.002866,0.000158,0.005111,-40.697433,93.020752,-105.915665,60.1879,24.830418,30.719599,15.182756,0.275108,-1.0,102.062561,-0.75042,3.100713,0.025603,1.838021
275012.669165,0.40595742000000007,-0.25028253,9.77617512,0.003356,0.001211,0.002495,-41.032425,93.047455,-105.55072,60.1879,24.830418,30.719599,15.182756,0.275108,-1.0,102.062561,-0.75042,3.100723,0.025619,1.838013
275012.68915,0.42421383,-0.26944146,9.76943565,0.002653,-0.000443,0.004058,-40.820038,93.089615,-106.171127,60.1879,24.830418,30.719599,15.182756,0.275108,-1.0,102.062561,-0.75042,3.100737,0.02562,1.838013
275012.709135,0.41089185,-0.27138384000000004,9.76809168,0.003572,0.000892,0.003328,-40.593323,93.22258,-105.953369,60.1879,24.830418,30.719599,15.182756,0.275108,-1.0,102.062561,-0.75042,3.100735,0.025634,1.838012
275012.749106,0.40012047,-0.2633004,9.78649524,0.002779,0.000855,0.002711,-40.664307,93.049316,-105.975876,60.1879,24.830418,30.719599,15.182756,0.275108,-1.0,102.062561,-0.75042,3.100736,0.025644,1.838018
275012.769091,0.4076055,-0.25117524,9.77646942,0.003939,-0.000953,0.004111,-40.906708,93.111984,-106.216232,60.1879,24.830418,30.719599,15.182756,0.275108,-1.0,102.062561,-0.75042,3.100749,0.025657,1.838012
275012.789076,0.41268708000000004,-0.26884305000000003,9.78215922,0.002342,-0.001005,0.00334,-40.933792,92.840607,-105.692932,60.1879,24.830418,30.719599,15.182756,0.275108,-1.0,102.062561,-0.75042,3.100737,0.025672,1.83802
275012.809061,0.40191570000000004,-0.25701219000000003,9.77766624,0.004226,-0.00074,0.003206,-40.835785,93.176315,-105.822906,60.1879,24.830418,30.719599,15.182756,0.275108,-1.0,102.062561,-0.75042,3.100739,0.02569,1.838035
275012.809061,0.40191570000000004,-0.25701219000000003,9.77766624,0.004226,-0.00074,0.003206,-40.835785,93.176315,-105.822906,60.1879,24.830418,30.719599,15.182756,0.275108,-1.0,102.062561,-0.75042,3.100739,0.02569,1.838035
275012.849031,0.40041477000000003,-0.2573163,9.767189160000001,0.002278,-0.001638,0.003885,-40.804047,92.800018,-105.737213,60.1879,24.830418,30.719599,15.182756,0.275108,-1.0,102.062561,-0.75042,3.100743,0.025697,1.838042
275012.869017,0.41523768,-0.2484873,9.793087560000002,0.002907,-0.000516,0.003908,-40.964722,92.971558,-105.549866,60.1879,24.830418,30.719599,15.182756,0.275108,-1.0,102.062561,-0.75042,3.100733,0.025701,1.838044
275012.889002,0.40057173,-0.25701219000000003,9.75895857,0.004213,-0.000416,0.003209,-40.60788,93.201324,-105.918381,60.1879,24.830418,30.719599,15.182756,0.275108,-1.0,102.062561,-0.75042,3.100737,0.025704,1.838041
275012.908987,0.40206285,-0.25342173,9.78245352,0.001666,-6.5e-05,0.005402,-40.809647,93.180893,-106.016556,60.1879,24.830418,30.719599,15.182756,0.275108,-1.0,102.062561,-0.75042,3.100741,0.025705,1.838052
275012.928972,0.41045040000000005,-0.26284914,9.78245352,0.002699,-0.000187,0.004639,-40.597397,93.2108,-105.902481,60.1879,24.830418,30.719599,15.182756,0.275108,-1.0,102.062561,-0.75042,3.10075,0.025726,1.838056
275012.948957,0.39832524,-0.26465418,9.78021684,0.001683,0.001108,0.00489,-41.131653,92.975143,-105.598633,60.1879,24.830418,30.719599,15.182756,0.275108,-1.0,102.062561,-0.75042,3.100754,0.025735,1.838054
275012.968942,0.40221,-0.23950134000000003,9.783650340000001,0.001689,-0.000522,0.004582,-40.878571,92.968826,-105.594528,60.1879,24.830418,30.719599,15.182756,0.275108,-1.0,102.062561,-0.75042,3.10076,0.025743,1.838048
275012.988928,0.39488193,-0.25297047,9.78005988,0.002393,0.000414,0.004672,-40.700638,93.153275,-105.960083,60.1879,24.830418,30.719599,15.182756,0.275108,-1.0,102.062561,-0.75042,3.100767,0.025756,1.838048
275013.008913,0.3990708,-0.25327458,9.767189160000001,0.002288,-0.000644,0.003015,-40.741241,92.975327,-105.680206,60.1879,24.830418,30.719599,15.182756,0.275108,-1.0,102.062561,-0.75042,3.100778,0.025773,1.838049
275013.028898,0.40266126,-0.25776756,9.77437008,0.003221,0.000177,0.003489,-40.576752,93.207489,-105.971191,60.1879,24.830418,30.719599,15.182756,0.275108,-1.0,102.062561,-0.75042,3.100774,0.025795,1.838052
275013.048883,0.40041477000000003,-0.25088094,9.780511140000002,0.003046,0.000677,0.002646,-41.216263,92.904388,-105.328598,60.1879,24.830418,30.719599,15.182756,0.275108,-1.0,102.062561,-0.75042,3.100775,0.025797,1.838035
275013.068868,0.39143862,-0.25356888,9.78021684,0.003851,0.000365,0.003584,-40.434128,93.282043,-105.82251,60.1879,24.830418,30.719599,15.182756,0.275108,-1.0,102.062561,-0.75042,3.100772,0.025789,1.838041
275013.088853,0.40775265,-0.25701219000000003,9.78156081,0.00296,-0.000812,0.00438,-40.695724,93.077515,-105.953033,60.1879,24.830418,30.719599,15.182756,0.275108,-1.0,102.062561,-0.75042,3.100784,0.025794,1.838046
275013.108839,0.41089185,-0.25851312000000004,9.77677353,0.004083,0.000791,0.004323,-40.785706,93.081024,-105.419846,60.1879,24.830418,30.719599,15.182756,0.275108,-1.0,102.062561,-0.75042,3.100783,0.025798,1.838044
275013.128824,0.40221,-0.24923286000000003,9.77077962,0.004263,-0.00018,0.00489,-41.133438,92.98111,-105.351974,60.1879,24.830418,30.719599,15.182756,0.275108,-1.0,102.062561,-0.75042,3.100779,0.025799,1.838043
275013.148809,0.40550616,-0.25072398,9.76554108,0.003697,-0.001142,0.003483,-40.998978,93.083694,-105.44664,60.1879,24.830418,30.719599,15.182756,0.275108,-1.0,102.062561,-0.75042,3.100775,0.025808,1.838051
275013.168794,0.39548034000000004,-0.26824464000000003,9.78814332,0.004107,-0.000184,0.002166,-40.648224,93.262543,-105.727188,60.1879,24.830418,30.719599,15.182756,0.275108,-1.0,102.062561,-0.75042,3.100777,0.025821,1.838062
275013.168794,0.39548034000000004,-0.26824464000000003,9.78814332,0.004107,-0.000184,0.002166,-40.648224,93.262543,-105.727188,60.1879,24.830418,30.719599,15.182756,0.275108,-1.0,102.062561,-0.75042,3.100777,0.025821,1.838062
275013.188779,0.40371093,-0.2576106,9.77721498,0.003566,0.000747,0.003099,-40.68103,93.189224,-105.806824,60.1879,24.830418,30.719599,15.182756,0.275108,-1.0,102.062561,-0.75042,3.10078,0.025831,1.838085
275013.22875,0.40012047,-0.25222491,9.76628664,0.001978,0.000251,0.004041,-40.984879,93.023987,-105.969711,60.1879,24.830418,30.719599,15.182756,0.275108,-1.0,102.063728,-0.845543,3.100788,0.025837,1.838094
275013.248735,0.39577464,-0.25956279,9.77467419,0.004001,-0.000857,0.005376,-40.680069,93.186203,-105.975067,60.187897,24.830408,31.10495,14.902982,0.0,-1.0,102.063728,-0.845543,3.100795,0.02584,1.838088
275013.26872,0.40685013000000003,-0.24968412,9.78305193,0.002184,-0.000999,0.002125,-40.850464,93.061234,-105.56781,60.187897,24.830408,31.10495,14.902982,0.0,-1.0,102.063728,-0.845543,3.10081,0.025838,1.838077
275013.288705,0.39397941000000003,-0.24758478,9.771976440000001,0.00355,-0.000966,0.004348,-40.871582,92.976166,-105.898575,60.187897,24.830408,31.10495,14.902982,0.0,-1.0,102.063728,-0.845543,3.100805,0.025832,1.83808
275013.30869,0.38814245999999997,-0.26569404,9.75760479,0.00289,0.001211,0.00442,-41.033203,92.799622,-105.688675,60.187897,24.830408,31.10495,14.902982,0.0,-1.0,102.063728,-0.845543,3.100806,0.025825,1.83808
275013.328675,0.40430934,-0.25671789,9.771525180000001,0.003143,0.000108,0.00362,-40.844696,93.174835,-106.010178,60.187897,24.830408,31.10495,14.902982,0.0,-1.0,102.063728,-0.845543,3.100813,0.025842,1.83808
275013.34866,0.41179437,-0.26525259,9.77467419,0.004102,0.00088,0.00425,-40.64093,93.182816,-105.982529,60.187897,24.830408,31.10495,14.902982,0.0,-1.0,102.063728,-0.845543,3.100814,0.02585,1.838075
275013.368646,0.39008484000000004,-0.25626663,9.77991273,0.004438,0.000293,0.004647,-40.889374,92.960083,-105.888138,60.187897,24.830408,31.10495,14.902982,0.0,-1.0,102.063728,-0.845543,3.100816,0.025845,1.838066
275013.388631,0.39996351,-0.26270199,9.78021684,0.000916,9.7e-05,0.003048,-41.068527,92.882233,-105.617798,60.187897,24.830408,31.10495,14.902982,0.0,-1.0,102.063728,-0.845543,3.10082,0.025836,1.838075
275013.408616,0.40236696,-0.24863445,9.77257485,0.00395,0.001312,0.00402,-40.93042,93.132645,-105.65004,60.187897,24.830408,31.10495,14.902982,0.0,-1.0,102.063728,-0.845543,3.100821,0.025852,1.8381
275013.428601,0.39472497000000006,-0.25028253,9.775871010000001,0.00439,0.001566,0.003446,-40.93042,93.132645,-105.65004,60.187897,24.830408,31.10495,14.902982,0.0,-1.0,102.063728,-0.845543,3.100831,0.025841,1.838095
275013.448586,0.39952206,-0.26075961000000003,9.76943565,0.00377,0.001092,0.003121,-40.65007,93.12352,-105.936539,60.187897,24.830408,31.10495,14.902982,0.0,-1.0,102.063728,-0.845543,3.100841,0.025832,1.838099
275013.468571,0.39143862,-0.2576106,9.76659075,0.004587,0.001268,0.005014,-40.648529,93.131561,-106.239594,60.187897,24.830408,31.10495,14.902982,0.0,-1.0,102.063728,-0.845543,3.100843,0.025836,1.838109
275013.488556,0.39756987000000005,-0.25611948,9.775723860000001,0.003466,0.000349,0.004484,-40.989502,92.980118,-105.967422,60.187897,24.830408,31.10495,14.902982,0.0,-1.0,102.063728,-0.845543,3.100842,0.025839,1.838088
275013.508542,0.38904498,-0.24653511000000003,9.78201207,0.00303,-0.000992,0.004588,-41.113922,92.942184,-106.131592,60.187897,24.830408,31.10495,14.902982,0.0,-1.0,102.063728,-0.845543,3.100843,0.025845,1.838068
275013.548512,0.40700709,-0.25327458,9.76269618,0.004329,-0.001824,0.00416,-40.84549,92.981003,-105.891602,60.187897,24.830408,31.10495,14.902982,0.0,-1.0,102.063728,-0.845543,3.100835,0.025851,1.838052
275013.568497,0.39667716000000003,-0.26315325,9.771525180000001,0.002259,-0.00038,0.005005,-40.498337,93.280029,-105.81366,60.187897,24.830408,31.10495,14.902982,0.0,-1.0,102.063728,-0.845543,3.100824,0.025843,1.838054
275013.588482,0.40400523,-0.265851,9.77871591,0.00353,-0.001071,0.002709,-41.05307,92.813248,-105.848602,60.187897,24.830408,31.10495,14.902982,0.0,-1.0,102.063728,-0.845543,3.100824,0.025851,1.838055
275013.608467,0.39876669,-0.27078543,9.779314320000001,0.003073,-0.001707,0.004407,-40.804688,92.936584,-106.024872,60.187897,24.830408,31.10495,14.902982,0.0,-1.0,102.063728,-0.845543,3.100823,0.025856,1.838064
275013.628452,0.40117014,-0.26150517,9.787250610000001,0.002898,-0.001959,0.004025,-40.708572,93.119965,-105.880829,60.187897,24.830408,31.10495,14.902982,0.0,-1.0,102.063728,-0.845543,3.100811,0.025863,1.838063
275013.648438,0.40804695,-0.24818319,9.77721498,0.00221,-0.001277,0.005391,-40.592941,93.14476,-105.824387,60.187897,24.830408,31.10495,14.902982,0.0,-1.0,102.063728,-0.845543,3.100792,0.025865,1.838062
275013.668423,0.40969503,-0.26764623000000004,9.77407578,0.002212,-0.001308,0.004257,-41.029694,92.930542,-105.798981,60.187897,24.830408,31.10495,14.902982,0.0,-1.0,102.063728,-0.845543,3.100781,0.025878,1.838059
275013.688408,0.40430934,-0.25552107,9.79038981,0.002114,-0.000709,0.004681,-40.776474,93.057556,-105.468536,60.187897,24.830408,31.10495,14.902982,0.0,-1.0,102.063728,-0.845543,3.10078,0.025878,1.838045
275013.708393,0.3990708,-0.2484873,9.77871591,0.005034,-0.000912,0.004121,-40.831772,93.171326,-105.960144,60.187897,24.830408,31.10495,14.902982,0.0,-1.0,102.063728,-0.845543,3.10078,0.02588,1.838038
275013.728378,0.41658165,-0.26090676,9.780511140000002,0.002747,0.000649,0.003768,-40.795212,93.138611,-105.978134,60.187897,24.830408,31.10495,14.902982,0.0,-1.0,102.063728,-0.845543,3.100771,0.025847,1.838038
275013.748363,0.3962259,-0.25387299,9.78500412,0.003397,-0.000118,0.004454,-40.73056,93.141815,-105.728348,60.187897,24.830408,31.10495,14.902982,0.0,-1.0,102.063728,-0.845543,3.100767,0.025839,1.838043
275013.768348,0.39861954000000005,-0.25042968,9.783807300000001,0.002414,-0.000359,0.004517,-41.370544,92.759354,-105.351013,60.187897,24.830408,31.10495,14.902982,0.0,-1.0,102.063728,-0.845543,3.100761,0.025836,1.838038
275013.788334,0.39352815,-0.25193061,9.780962400000002,0.003135,0.000833,0.004501,-40.778625,92.961548,-105.940659,60.187897,24.830408,31.10495,14.902982,0.0,-1.0,102.063728,-0.845543,3.10075,0.025848,1.838024
275013.808319,0.41045040000000005,-0.25791471,9.77797035,0.002432,-0.000311,0.002982,-40.813263,93.064133,-105.741974,60.187897,24.830408,31.10495,14.902982,0.0,-1.0,102.063728,-0.845543,3.100743,0.025847,1.838025
275013.828304,0.39682431,-0.27393444,9.7692885,0.003105,-0.001002,0.003502,-40.668533,93.115356,-106.057907,60.187897,24.830408,31.10495,14.902982,0.0,-1.0,102.063728,-0.845543,3.10072,0.025866,1.838029
275013.848289,0.3873969,-0.25925868,9.780962400000002,0.004535,-3e-06,0.002772,-41.273621,93.006058,-105.485565,60.187897,24.830408,31.10495,14.902982,0.0,-1.0,102.063728,-0.845543,3.100705,0.025876,1.838038
275013.868274,0.40655583,-0.26180928000000003,9.779010210000001,0.004971,-0.000532,0.004071,-40.880325,92.907745,-105.704468,60.187897,24.830408,31.10495,14.902982,0.0,-1.0,102.063728,-0.845543,3.100696,0.025865,1.838044
275013.888259,0.40012047,-0.26405577,9.76613949,0.002649,0.001165,0.004039,-40.903397,93.148438,-106.167374,60.187897,24.830408,31.10495,14.902982,0.0,-1.0,102.063728,-0.845543,3.100681,0.025849,1.838035
275013.908244,0.40325967,-0.25776756,9.77737194,0.002284,-0.000725,0.004613,-40.995743,92.905441,-105.711182,60.187897,24.830408,31.10495,14.902982,0.0,-1.0,102.063728,-0.845543,3.100685,0.025847,1.838036
275013.92823,0.40146444000000003,-0.2576106,9.775272600000001,0.004413,-0.000269,0.004729,-41.038605,93.019547,-105.721207,60.187897,24.830408,31.10495,14.902982,0.0,-1.0,102.063728,-0.845543,3.100674,0.025861,1.838032
275013.948215,0.40325967,-0.25686504,9.76254903,0.002939,4.4e-05,0.004421,-41.07103,92.996216,-105.596039,60.187897,24.830408,31.10495,14.902982,0.0,-1.0,102.063728,-0.845543,3.100671,0.02587,1.838027
275013.9682,0.39502908,-0.26569404,9.772133400000001,0.002265,0.000401,0.004425,-40.806824,93.053772,-106.166489,60.187897,24.830408,31.10495,14.902982,0.0,-1.0,102.063728,-0.845543,3.100669,0.025881,1.83804
275013.988185,0.4107447,-0.26180928000000003,9.772280550000001,0.00298,-0.001832,0.004498,-40.64064,93.228119,-106.092865,60.187897,24.830408,31.10495,14.902982,0.0,-1.0,102.063728,-0.845543,3.100682,0.025896,1.838034
275014.00817,0.40012047,-0.24653511000000003,9.77632227,0.001813,-0.0002,0.00397,-40.640137,93.243576,-105.999664,60.187897,24.830408,31.10495,14.902982,0.0,-1.0,102.063728,-0.845543,3.10068,0.025891,1.838039
275014.028155,0.40430934,-0.27317907,9.76508982,0.001092,-0.000583,0.004788,-41.144958,92.961075,-105.787811,60.187897,24.830408,31.10495,14.902982,0.0,-1.0,102.063728,-0.845543,3.100677,0.025897,1.838046
275014.04814,0.40550616,-0.24908571000000002,9.76599234,0.002247,-0.000571,0.004152,-40.70813,93.175461,-105.883575,60.187897,24.830408,31.10495,14.902982,0.0,-1.0,102.063728,-0.845543,3.100682,0.025903,1.83805
275014.068125,0.41134311000000007,-0.25267617,9.780962400000002,0.001855,0.001227,0.00375,-40.645996,93.151352,-105.926682,60.187897,24.830408,31.10495,14.902982,0.0,-1.0,102.063728,-0.845543,3.100667,0.025912,1.838052
275014.088111,0.40131729000000005,-0.25193061,9.77512545,0.002447,-0.000682,0.005157,-40.787048,93.196304,-106.107651,60.187897,24.830408,31.10495,14.902982,0.0,-1.0,102.063728,-0.845543,3.100669,0.025921,1.838057
275014.108096,0.38993769,-0.24968412,9.77333022,0.002032,0.000749,0.002605,-41.056061,93.07663,-105.856155,60.187897,24.830408,31.10495,14.902982,0.0,-1.0,102.063728,-0.845543,3.100664,0.025935,1.838054
275014.128081,0.40071888000000006,-0.25925868,9.76419711,0.004118,-0.000293,0.002425,-41.056061,93.07663,-105.856155,60.187897,24.830408,31.10495,14.902982,0.0,-1.0,102.063728,-0.845543,3.100657,0.025942,1.838059
275014.148066,0.41134311000000007,-0.26001405,9.78005988,0.002369,-0.000808,0.004919,-41.088959,92.851013,-105.678467,60.187897,24.830408,31.10495,14.902982,0.0,-1.0,102.063728,-0.845543,3.100645,0.025929,1.838054
275014.168051,0.40191570000000004,-0.25626663,9.77601816,0.003741,0.000259,0.004125,-40.828918,93.125229,-105.972961,60.187897,24.830408,31.10495,14.902982,0.0,-1.0,102.063728,-0.845543,3.100631,0.025931,1.838045
275014.188036,0.40565331,-0.25102809000000004,9.77646942,0.002429,0.000298,0.003454,-40.571945,93.11174,-106.126205,60.187897,24.830408,31.10495,14.902982,0.0,-1.0,102.063728,-0.845543,3.100632,0.02593,1.838052
275014.208021,0.4016115900000001,-0.27049113,9.77302611,0.003527,-0.000657,0.003728,-40.860809,93.12764,-105.774918,60.187897,24.830408,31.10495,14.902982,0.0,-1.0,102.063728,-0.845543,3.100625,0.025934,1.838051
275014.247992,0.39816828,-0.25806186000000003,9.77452704,0.00342,-3.9e-05,0.005124,-40.842697,93.162033,-106.143356,60.187897,24.830408,31.10495,14.781714,0.0,-1.0,102.063728,-0.845543,3.100599,0.025928,1.838053
275014.267977,0.40356378000000004,-0.26105391,9.76883724,0.004415,-0.001433,0.004202,-40.4505,93.276138,-106.238327,60.187897,24.830408,31.10495,14.781714,0.0,-1.0,102.063728,-0.845543,3.10059,0.025922,1.838045
275014.287962,0.4167288,-0.26150517,9.780658290000002,0.003057,-0.000403,0.004964,-40.789154,93.213058,-106.083008,60.187897,24.830408,31.10495,14.781714,0.0,-1.0,102.064445,-0.903671,3.100562,0.025903,1.838043
275014.307947,0.40385808000000006,-0.25566822,9.775272600000001,0.003974,-0.001242,0.004354,-41.162964,92.868668,-105.60498,60.187897,24.830408,31.10495,14.781714,0.0,-1.0,102.064445,-0.903671,3.100549,0.025903,1.838039
275014.327932,0.40581027000000003,-0.25387299,9.78470001,0.002907,-0.000989,0.00392,-40.928024,93.117874,-106.059036,60.187897,24.830408,31.10495,14.781714,0.0,-1.0,102.064445,-0.903671,3.100537,0.025901,1.838049
275014.347917,0.40146444000000003,-0.25117524,9.76943565,0.004976,-0.001357,0.004972,-40.915741,93.013687,-105.829819,60.187897,24.830408,31.10495,14.781714,0.0,-1.0,102.064445,-0.903671,3.100526,0.025905,1.838043
275014.367902,0.4076055,-0.26659656,9.77886306,0.003083,-0.001842,0.003794,-40.705627,93.37027,-105.840302,60.187897,24.830408,31.10495,14.781714,0.0,-1.0,102.064445,-0.903671,3.100516,0.025902,1.838044
275014.387888,0.40461345,-0.26779338,9.79084107,0.003083,-0.000746,0.004064,-40.9702,93.165894,-105.824341,60.187897,24.830408,31.10495,14.781714,0.0,-1.0,102.064445,-0.903671,3.100501,0.025896,1.838044
275014.407873,0.40251411,-0.26494848000000004,9.77273181,0.002682,-0.000625,0.005241,-41.001404,92.959991,-105.608948,60.187897,24.830408,31.10495,14.781714,0.0,-1.0,102.064445,-0.903671,3.100486,0.025906,1.838041
275014.427858,0.40864536,-0.2513322,9.77422293,0.002008,-0.000115,0.004063,-40.847092,93.063629,-105.940491,60.187897,24.830408,31.10495,14.781714,0.0,-1.0,102.064445,-0.903671,3.100474,0.02592,1.838025
275014.447843,0.39772683000000003,-0.25880742,9.77333022,0.003454,0.001553,0.00473,-40.867416,93.016678,-105.914352,60.187897,24.830408,31.10495,14.781714,0.0,-1.0,102.064445,-0.903671,3.100466,0.025928,1.838031
275014.467828,0.39772683000000003,-0.2576106,9.779167170000001,0.00273,0.000147,0.004947,-40.815857,92.781235,-106.011948,60.187897,24.830408,31.10495,14.781714,0.0,-1.0,102.064445,-0.903671,3.100482,0.025936,1.838005
275014.487813,0.40864536,-0.25836597,9.77677353,0.00211,0.000418,0.00381,-41.477417,92.707062,-105.303757,60.187897,24.830408,31.10495,14.781714,0.0,-1.0,102.064445,-0.903671,3.100483,0.02595,1.837991
275014.507798,0.39772683000000003,-0.25267617,9.77766624,0.0037,-0.000216,0.003993,-40.965652,93.003479,-106.179535,60.187897,24.830408,31.10495,14.781714,0.0,-1.0,102.064445,-0.903671,3.100472,0.025962,1.837982
275014.527783,0.39592179,-0.25686504,9.77781339,0.004639,0.001291,0.00243,-41.068619,92.779526,-106.015411,60.187897,24.830408,31.10495,14.781714,0.0,-1.0,102.064445,-0.903671,3.100466,0.025963,1.837969
275014.547769,0.39368511,-0.26061246,9.77048532,0.004115,0.000993,0.00303,-40.836548,92.895889,-105.8871,60.187897,24.830408,31.10495,14.781714,0.0,-1.0,102.064445,-0.903671,3.100471,0.025968,1.83798
275014.567754,0.40385808000000006,-0.25342173,9.77512545,0.004279,-0.000521,0.004291,-41.131561,92.805923,-105.34024,60.187897,24.830408,31.10495,14.781714,0.0,-1.0,102.064445,-0.903671,3.100471,0.025971,1.83798
275014.587739,0.39727557,-0.25791471,9.771976440000001,0.00263,-0.001194,0.003697,-41.07016,92.863373,-105.925766,60.187897,24.830408,31.10495,14.781714,0.0,-1.0,102.064445,-0.903671,3.100454,0.025981,1.837971
275014.607724,0.40581027000000003,-0.25416729000000005,9.77333022,0.005267,0.000436,0.003787,-40.866013,93.02153,-106.097809,60.187897,24.830408,31.10495,14.781714,0.0,-1.0,102.064445,-0.903671,3.10044,0.02598,1.83795
275014.627709,0.40880232000000005,-0.27273762,9.76659075,0.003264,-0.001718,0.00386,-41.107117,92.917053,-105.86972,60.187897,24.830408,31.10495,14.781714,0.0,-1.0,102.064445,-0.903671,3.100449,0.025979,1.837944
275014.647694,0.41523768,-0.24952716000000003,9.7869465,0.003451,-0.001068,0.004056,-40.849609,93.074768,-106.140289,60.187897,24.830408,31.10495,14.781714,0.0,-1.0,102.064445,-0.903671,3.100449,0.025996,1.837945
275014.667679,0.40251411,-0.25671789,9.77452704,0.002817,-0.003013,0.00456,-41.273651,92.731079,-105.379272,60.187897,24.830408,31.10495,14.781714,0.0,-1.0,102.064445,-0.903671,3.100432,0.026002,1.837947
275014.687664,0.40581027000000003,-0.24743763,9.76568823,0.002865,-0.000858,0.003711,-40.797241,93.190948,-105.972595,60.187897,24.830408,31.10495,14.781714,0.0,-1.0,102.064445,-0.903671,3.100425,0.026008,1.837941
275014.70765,0.3990708,-0.24459273,9.77092677,0.002153,-0.001096,0.00242,-40.850647,93.015366,-106.006927,60.187897,24.830408,31.10495,14.781714,0.0,-1.0,102.064445,-0.903671,3.100423,0.026014,1.837928
275014.727635,0.40969503,-0.25416729000000005,9.77706783,0.004136,-0.001495,0.005079,-41.01413,92.908325,-105.995071,60.187897,24.830408,31.10495,14.781714,0.0,-1.0,102.064445,-0.903671,3.100414,0.02603,1.837926
275014.74762,0.40655583,-0.26480133,9.77482134,0.002834,-0.001839,0.006133,-41.347992,92.775803,-106.019257,60.187897,24.830408,31.10495,14.781714,0.0,-1.0,102.064445,-0.903671,3.100398,0.026029,1.837927
275014.767605,0.39653001,-0.26180928000000003,9.77063247,0.002424,-0.001112,0.004022,-41.014145,92.968735,-105.854385,60.187897,24.830408,31.10495,14.781714,0.0,-1.0,102.064445,-0.903671,3.100385,0.026026,1.837932
275014.78759,0.40894947000000004,-0.26554689,9.768385980000001,0.003027,-0.001034,0.005652,-40.916946,92.920181,-106.188354,60.187897,24.830408,31.10495,14.781714,0.0,-1.0,102.064445,-0.903671,3.100361,0.026029,1.837928
275014.807575,0.39173292000000004,-0.25102809000000004,9.77302611,0.002308,-3.3e-05,0.004184,-41.017258,92.92569,-105.986588,60.187897,24.830408,31.10495,14.781714,0.0,-1.0,102.064445,-0.903671,3.100356,0.02603,1.837918
275014.82756,0.39952206,-0.2604555,9.7781175,0.002999,0.000291,0.003988,-41.017258,92.92569,-105.986588,60.187897,24.830408,31.10495,14.781714,0.0,-1.0,102.064445,-0.903671,3.10036,0.026032,1.837904
275014.847545,0.41942655,-0.25028253,9.772133400000001,0.002665,-0.000335,0.005451,-41.266068,93.123459,-105.956757,60.187897,24.830408,31.10495,14.781714,0.0,-1.0,102.064445,-0.903671,3.10036,0.026028,1.837902
275014.867531,0.39756987000000005,-0.25791471,9.76568823,0.002542,0.000676,0.003333,-41.018616,93.00116,-105.727951,60.187897,24.830408,31.10495,14.781714,0.0,-1.0,102.064445,-0.903671,3.10036,0.026029,1.837891
275014.887516,0.40461345,-0.26569404,9.78515127,0.002163,8.5e-05,0.003006,-40.96608,93.020767,-105.956451,60.187897,24.830408,31.10495,14.781714,0.0,-1.0,102.064445,-0.903671,3.100359,0.026043,1.837905
275014.907501,0.40505490000000005,-0.25866027,9.78275763,0.00305,0.00027,0.004146,-40.780899,93.189529,-105.852097,60.187897,24.830408,31.10495,14.781714,0.0,-1.0,102.064445,-0.903671,3.100348,0.026046,1.837919
275014.947471,0.41164722000000004,-0.26225073,9.771378030000001,0.003601,0.000744,0.004478,-41.389252,92.700897,-105.42601,60.187897,24.830408,31.10495,14.781714,0.0,-1.0,102.064445,-0.903671,3.100338,0.026044,1.837921
275014.967456,0.39383226000000005,-0.25402014,9.77257485,0.003437,-0.000608,0.00365,-40.817276,92.980637,-105.943756,60.187897,24.830408,31.10495,14.781714,0.0,-1.0,102.064445,-0.903671,3.100341,0.026057,1.837914
275014.987441,0.41149026,-0.25671789,9.77632227,0.003771,0.000141,0.003785,-40.532181,93.234924,-106.242233,60.187897,24.830408,31.10495,14.781714,0.0,-1.0,102.064445,-0.903671,3.100345,0.026062,1.837916
275015.007426,0.42481224000000006,-0.26135802,9.76659075,0.00226,0.000365,0.004351,-40.904449,92.983017,-105.733521,60.187897,24.830408,31.10495,14.781714,0.0,-1.0,102.064445,-0.903671,3.100354,0.026052,1.837911
275015.027412,0.38933928,-0.25626663,9.77257485,0.002699,-0.002927,0.00305,-41.086853,93.089432,-105.749161,60.187897,24.830408,31.10495,14.781714,0.0,-1.0,102.064445,-0.903671,3.100355,0.026053,1.837907
275015.047397,0.40311252,-0.25387299,9.78245352,0.003978,-0.000442,0.00224,-40.927185,92.915787,-105.662903,60.187897,24.830408,31.10495,14.781714,0.0,-1.0,102.064445,-0.903671,3.100358,0.02606,1.837908
275015.067382,0.39712842,-0.2630061,9.7812567,0.003615,-0.002285,0.005188,-40.83606,93.126724,-105.967087,60.187897,24.830408,31.10495,14.781714,0.0,-1.0,102.064445,-0.903671,3.100361,0.026066,1.837912
275015.087367,0.38993769,-0.25072398,9.77617512,0.002684,-0.002106,0.004481,-40.760727,93.258347,-106.031006,60.187897,24.830408,31.10495,14.781714,0.0,-1.0,102.064445,-0.903671,3.100353,0.026073,1.837909
275015.107352,0.4090966200000001,-0.26090676,9.76568823,0.002629,-0.00154,0.005077,-41.03215,93.043777,-105.541367,60.187897,24.830408,31.10495,14.781714,0.0,-1.0,102.064445,-0.903671,3.100339,0.026075,1.837913
275015.127337,0.39443067000000004,-0.25896438000000005,9.771230880000001,0.002251,-0.000343,0.004575,-41.227142,92.887054,-105.389633,60.187897,24.830408,31.10495,14.781714,0.0,-1.0,102.064445,-0.903671,3.100343,0.026078,1.8379
275015.147322,0.39727557,-0.25521696000000005,9.768533130000002,0.003345,7.9e-05,0.003671,-40.730164,93.13826,-105.725677,60.187897,24.830408,31.10495,14.781714,0.0,-1.0,102.064445,-0.903671,3.100345,0.026074,1.837904
275015.167307,0.39653001,-0.25776756,9.78215922,0.0039,0.000272,0.00453,-40.926315,92.975327,-106.216629,60.187897,24.830408,31.10495,14.781714,0.0,-1.0,102.064445,-0.903671,3.100338,0.026073,1.837909
275015.187293,0.41208867000000005,-0.25521696000000005,9.78290478,0.002384,0.001054,0.00444,-40.737411,93.163742,-106.296753,60.187897,24.830408,31.10495,14.781714,0.0,-1.0,102.064445,-0.903671,3.100335,0.026052,1.837903
275015.207278,0.39756987000000005,-0.25776756,9.764942670000002,0.001462,-0.000221,0.004984,-41.26561,92.837143,-105.843277,60.187897,24.830408,31.10495,14.781714,0.0,-1.0,102.064445,-0.903671,3.100344,0.026065,1.837899
275015.227263,0.39173292000000004,-0.26494848000000004,9.783650340000001,0.002075,-7e-06,0.003561,-40.90918,93.135757,-106.148331,60.187897,24.830408,31.10495,14.781714,0.0,-1.0,102.064445,-0.903671,3.100347,0.026073,1.837899
275015.247248,0.39292974,-0.25701219000000003,9.767189160000001,0.003105,0.000815,0.003593,-40.901733,93.190063,-105.804642,60.187897,24.830408,31.10495,14.568019,0.0,-1.0,102.064445,-0.903671,3.100349,0.026086,1.837911
275015.267233,0.40804695,-0.25416729000000005,9.77632227,0.002691,-0.000271,0.003478,-40.912567,93.124374,-106.178711,60.187897,24.830408,31.10495,14.568019,0.0,-1.0,102.064445,-0.903671,3.100348,0.026098,1.837915
275015.287218,0.40880232000000005,-0.25581537,9.7695828,0.002143,0.000819,0.003782,-41.159164,92.896835,-106.026306,60.187897,24.830408,31.10495,14.568019,0.0,-1.0,102.064445,-0.903671,3.100342,0.026101,1.837916
275015.307203,0.41478642000000004,-0.26195643,9.76060665,0.001983,0.000538,0.003839,-41.067032,93.060684,-105.566895,60.187897,24.830408,31.10495,14.568019,0.0,-1.0,102.064445,-0.903671,3.100345,0.026118,1.83793
275015.327188,0.40280841,-0.25042968,9.77273181,0.003698,-0.000206,0.004214,-40.993774,92.982773,-105.983917,60.187897,24.830408,31.10495,14.568019,0.0,-1.0,102.064445,-0.903671,3.10035,0.026136,1.837925
275015.347173,0.39548034000000004,-0.24624081,9.77661657,0.00289,-0.000746,0.002996,-40.807312,93.087692,-106.096344,60.187897,24.830408,31.10495,14.568019,0.0,-1.0,102.064445,-0.903671,3.100349,0.026151,1.837939
275015.367159,0.41134311000000007,-0.25716915,9.76688505,0.004643,-0.000132,0.004914,-40.653076,93.215424,-105.872711,60.187897,24.830408,31.10495,14.568019,0.0,-1.0,102.064545,-0.914242,3.100346,0.026154,1.837956
275015.387144,0.39173292000000004,-0.25506981,9.77347737,0.003819,-0.000256,0.005002,-41.223831,92.782883,-105.180679,60.187897,24.830408,31.10495,14.568019,0.0,-1.0,102.064545,-0.914242,3.100344,0.026151,1.837944
275015.407129,0.41268708000000004,-0.24713352,9.78605379,0.003072,-0.002026,0.004838,-40.863327,93.1241,-105.802917,60.187897,24.830408,31.10495,14.568019,0.0,-1.0,102.064545,-0.914242,3.100336,0.026146,1.837951
275015.427114,0.4047606,-0.26525259,9.783807300000001,0.002214,-0.000958,0.004749,-40.761063,93.233856,-105.906311,60.187897,24.830408,31.10495,14.568019,0.0,-1.0,102.064545,-0.914242,3.10033,0.026144,1.837953
275015.447099,0.40999914,-0.25387299,9.75745764,0.001801,-0.002271,0.004804,-40.713196,93.225601,-105.715317,60.187897,24.830408,31.10495,14.568019,0.0,-1.0,102.064545,-0.914242,3.100332,0.026143,1.837951
275015.467084,0.40969503,-0.26449722000000003,9.78185511,0.002428,-0.000451,0.003314,-40.952866,93.099014,-105.634003,60.187897,24.830408,31.10495,14.568019,0.0,-1.0,102.064545,-0.914242,3.100318,0.026155,1.837965
275015.487069,0.40221,-0.26210358,9.77407578,0.00232,-0.000374,0.00539,-40.907425,92.886307,-105.571243,60.187897,24.830408,31.10495,14.568019,0.0,-1.0,102.064545,-0.914242,3.100324,0.026168,1.837975
275015.507054,0.40026762,-0.24908571000000002,9.77766624,0.003772,-0.001014,0.003384,-40.442215,93.331924,-106.374756,60.187897,24.830408,31.10495,14.568019,0.0,-1.0,102.064545,-0.914242,3.100321,0.026155,1.837962
275015.52704,0.41029344,-0.25820901,9.79398027,0.002858,-0.000467,0.004557,-40.442215,93.331924,-106.374756,60.187897,24.830408,31.10495,14.568019,0.0,-1.0,102.064545,-0.914242,3.100318,0.026155,1.837963
275015.547025,0.40311252,-0.26240768999999997,9.77601816,0.002877,-0.001261,0.005182,-40.801254,93.050339,-106.148163,60.187897,24.830408,31.10495,14.568019,0.0,-1.0,102.064545,-0.914242,3.100322,0.02616,1.837962
275015.56701,0.40610457000000005,-0.26465418,9.79053696,0.002877,-0.001261,0.005182,-40.655319,93.123703,-105.808609,60.187897,24.830408,31.10495,14.568019,0.0,-1.0,102.064545,-0.914242,3.100314,0.026172,1.837954
275015.586995,0.39562748999999997,-0.25836597,9.775566900000001,0.003279,0.000342,0.003466,-41.053833,92.949905,-105.698685,60.187897,24.830408,31.10495,14.568019,0.0,-1.0,102.064545,-0.914242,3.100305,0.026176,1.837953
275015.60698,0.41598324,-0.25791471,9.75776175,0.003684,-0.000344,0.003168,-40.653671,93.117966,-105.670395,60.187897,24.830408,31.10495,14.568019,0.0,-1.0,102.064545,-0.914242,3.100303,0.026166,1.83797
275015.64695,0.40236696,-0.26121087000000004,9.77721498,0.004856,-0.000103,0.003918,-40.667068,93.216553,-105.719345,60.187897,24.830408,31.10495,14.568019,0.0,-1.0,102.064545,-0.914242,3.100297,0.026162,1.837979
275015.666935,0.40206285,-0.25506981,9.77706783,0.004856,-0.000103,0.003918,-40.878067,93.056625,-105.530411,60.187897,24.830408,31.10495,14.568019,0.0,-1.0,102.064545,-0.914242,3.1003,0.026172,1.837968
275015.686921,0.39653001,-0.25970994000000003,9.77721498,0.004271,-0.000349,0.001389,-40.902512,92.95787,-105.732391,60.187897,24.830408,31.10495,14.568019,0.0,-1.0,102.064545,-0.914242,3.100296,0.026186,1.837978
275015.706906,0.38919213,-0.24833034,9.77407578,0.00364,-0.000313,0.004303,-40.679367,93.216248,-106.037277,60.187897,24.830408,31.10495,14.568019,0.0,-1.0,102.064545,-0.914242,3.100288,0.02619,1.838
275015.726891,0.39787398,-0.24833034,9.77512545,0.002803,-0.000715,0.003469,-40.508163,93.19278,-106.193787,60.187897,24.830408,31.10495,14.568019,0.0,-1.0,102.064545,-0.914242,3.100287,0.026194,1.838
275015.746876,0.40581027000000003,-0.25028253,9.77003406,0.003404,-0.001861,0.005047,-40.82576,93.233826,-105.784637,60.187897,24.830408,31.10495,14.568019,0.0,-1.0,102.064545,-0.914242,3.100285,0.026201,1.838016
275015.766861,0.40176855,-0.25342173,9.76404996,0.003366,-0.002741,0.004611,-41.034241,93.063812,-105.867004,60.187897,24.830408,31.10495,14.568019,0.0,-1.0,102.064545,-0.914242,3.100275,0.026205,1.838027
275015.786846,0.3962259,-0.26210358,9.76508982,0.00365,-0.000626,0.003185,-40.78981,93.258453,-105.912048,60.187897,24.830408,31.10495,14.568019,0.0,-1.0,102.064545,-0.914242,3.100266,0.026215,1.83803
275015.806831,0.38904498,-0.27468000000000004,9.77362452,0.003279,-2.8e-05,0.002618,-40.83551,92.972687,-105.989029,60.187897,24.830408,31.10495,14.568019,0.0,-1.0,102.064545,-0.914242,3.100273,0.026197,1.838038
275015.826817,0.40206285,-0.25492266,9.7667379,0.00253,-0.001688,0.004223,-40.864685,93.051971,-105.880096,60.187897,24.830408,31.10495,14.568019,0.0,-1.0,102.064545,-0.914242,3.10028,0.026188,1.838043
275015.846802,0.40041477000000003,-0.25880742,9.76883724,0.002949,-0.001029,0.00225,-41.12706,93.125671,-105.747971,60.187897,24.830408,31.10495,14.568019,0.0,-1.0,102.064545,-0.914242,3.100269,0.026199,1.838046
275015.866787,0.40969503,-0.26554689,9.77317326,0.000461,-0.000403,0.003322,-40.854324,93.009689,-106.071793,60.187897,24.830408,31.10495,14.568019,0.0,-1.0,102.064545,-0.914242,3.100259,0.026194,1.838068
275015.886772,0.40864536,-0.24234624000000002,9.765246780000002,0.003525,-0.000275,0.004554,-40.798645,93.272339,-106.393417,60.187897,24.830408,31.10495,14.568019,0.0,-1.0,102.064545,-0.914242,3.100259,0.026204,1.838077
275015.906757,0.39876669,-0.24533829000000001,9.783807300000001,0.001974,0.000111,0.005094,-40.93544,93.088654,-106.102386,60.187897,24.830408,31.10495,14.568019,0.0,-1.0,102.064545,-0.914242,3.100257,0.026203,1.838071
275015.926742,0.39876669,-0.26255484,9.76374585,0.003631,0.000349,0.002668,-41.20224,92.952362,-105.421112,60.187897,24.830408,31.10495,14.568019,0.0,-1.0,102.064545,-0.914242,3.100255,0.026213,1.83808
275015.946727,0.40385808000000006,-0.26449722000000003,9.7781175,0.00217,-0.000319,0.00445,-40.749588,93.171906,-106.117844,60.187897,24.830408,31.10495,14.568019,0.0,-1.0,102.064545,-0.914242,3.100254,0.0262,1.838079
275015.966712,0.39682431,-0.26105391,9.77452704,0.003246,0.000762,0.003472,-40.986328,93.183563,-105.994354,60.187897,24.830408,31.10495,14.568019,0.0,-1.0,102.064545,-0.914242,3.10024,0.026199,1.838078
275015.966712,0.39682431,-0.26105391,9.77452704,0.003246,0.000762,0.003472,-40.986328,93.183563,-105.994354,60.187897,24.830408,31.10495,14.568019,0.0,-1.0,102.064545,-0.914242,3.10024,0.026199,1.838078
275015.966712,0.39682431,-0.26105391,9.77452704,0.003246,0.000762,0.003472,-40.986328,93.183563,-105.994354,60.187897,24.830408,31.10495,14.568019,0.0,-1.0,102.064545,-0.914242,3.10024,0.026199,1.838078
275016.026668,0.39472497000000006,-0.25356888,9.767787570000001,0.005041,-3e-06,0.002492,-41.20372,92.80603,-106.01062,60.187897,24.830408,31.10495,14.568019,0.0,-1.0,102.064545,-0.914242,3.10025,0.02621,1.838092
275016.046653,0.40385808000000006,-0.24818319,9.79682517,0.003907,-0.001204,0.003914,-40.811584,93.184982,-106.31192,60.187897,24.830408,31.10495,14.568019,0.0,-1.0,102.064545,-0.914242,3.100241,0.026209,1.838114
275016.066638,0.40969503,-0.26494848000000004,9.78620094,0.003452,-0.000133,0.004773,-41.207962,93.003891,-105.694138,60.187897,24.830408,31.10495,14.568019,0.0,-1.0,102.064545,-0.914242,3.100229,0.026216,1.83811
275016.086623,0.41777847,-0.24354306000000003,9.78500412,0.003593,-0.000173,0.005121,-40.670715,93.209167,-106.657242,60.187897,24.830408,31.10495,14.568019,0.0,-1.0,102.064545,-0.914242,3.100228,0.026212,1.838108
275016.106608,0.39667716000000003,-0.25237206,9.764491410000002,0.003684,-0.001627,0.00359,-41.477844,92.846985,-105.847549,60.187897,24.830408,31.10495,14.568019,0.0,-1.0,102.064545,-0.914242,3.100229,0.026201,1.838123
275016.126593,0.39966921,-0.26075961000000003,9.78261048,0.004093,-0.001463,0.004423,-41.006302,93.085983,-106.273819,60.187897,24.830408,31.10495,14.568019,0.0,-1.0,102.064545,-0.914242,3.100225,0.026184,1.838125
275016.146579,0.39368511,-0.25387299,9.77437008,0.004465,-0.000809,0.00411,-40.878693,93.281784,-106.3983,60.187897,24.830408,31.10495,14.568019,0.0,-1.0,102.064545,-0.914242,3.100214,0.026172,1.83812
275016.166564,0.39098736000000006,-0.26001405,9.77092677,0.004388,-0.000377,0.003866,-40.791733,93.126862,-106.236206,60.187897,24.830408,31.10495,14.568019,0.0,-1.0,102.064545,-0.914242,3.100209,0.026155,1.838126
275016.186549,0.41478642000000004,-0.265851,9.77512545,0.001804,-0.001643,0.003789,-41.257629,92.986099,-106.168396,60.187897,24.830408,31.10495,14.568019,0.0,-1.0,102.064545,-0.914242,3.100205,0.026129,1.838141
275016.206534,0.39502908,-0.24863445,9.787397760000001,0.002902,-5.6e-05,0.003637,-41.033798,93.198074,-106.137604,60.187897,24.830408,31.10495,14.568019,0.0,-1.0,102.064545,-0.914242,3.100192,0.02612,1.838156
275016.246504,0.39682431,-0.26989272000000003,9.77287896,0.002656,0.000966,0.004506,-40.691788,93.171829,-106.304459,60.187897,24.830408,31.10495,14.386523,0.0,79.539002,102.064545,-0.914242,3.100199,0.026096,1.83815
275016.266489,0.41268708000000004,-0.25776756,9.77871591,0.002656,0.000966,0.004506,-40.843536,93.060806,-106.132523,60.187897,24.830408,31.10495,14.386523,0.0,79.539002,102.064545,-0.914242,3.100214,0.026077,1.838137
275016.286474,0.40969503,-0.26075961000000003,9.77452704,0.003847,-0.000198,0.003653,-40.87677,93.194397,-106.326569,60.187897,24.830408,31.10495,14.386523,0.0,79.539002,102.064545,-0.914242,3.100218,0.026083,1.838133
275016.30646,0.39443067000000004,-0.2576106,9.767934720000001,0.005073,0.000382,0.002152,-41.196487,92.848557,-105.571915,60.187897,24.830408,31.10495,14.386523,0.0,79.539002,102.064545,-0.914242,3.100217,0.026078,1.838132
275016.326445,0.40012047,-0.25851312000000004,9.775566900000001,0.003958,-0.000578,0.004452,-40.786545,93.177841,-106.320831,60.187897,24.830408,31.10495,14.386523,0.0,79.539002,102.064545,-0.914242,3.100217,0.026063,1.838148
275016.34643,0.38634723000000004,-0.24892875000000003,9.78261048,0.003445,-0.000194,0.003688,-40.786835,93.264328,-106.40918,60.187897,24.830408,31.10495,14.386523,0.0,79.539002,102.064545,-0.914242,3.100211,0.026061,1.838135
275016.366415,0.38933928,-0.25806186000000003,9.76464837,0.004423,0.000814,0.004172,-41.026382,93.119232,-106.563293,60.187897,24.830408,31.10495,14.386523,0.0,79.539002,102.064545,-0.914242,3.100221,0.026058,1.83813
275016.3864,0.40206285,-0.25342173,9.76120506,0.003692,0.000209,0.00256,-41.222305,92.850632,-106.30719,60.187897,24.830408,31.10495,14.386523,0.0,79.539002,102.064545,-0.914242,3.100229,0.026058,1.838129
275016.406385,0.40041477000000003,-0.24788889,9.765246780000002,0.004891,-3.6e-05,0.002745,-41.112091,93.06102,-105.874344,60.187897,24.830408,31.10495,14.386523,0.0,79.539002,102.064545,-0.914242,3.100231,0.026059,1.838146
275016.42637,0.40490775,-0.25028253,9.77797035,0.004251,0.000196,0.00475,-40.86322,93.191986,-106.136459,60.187897,24.830408,31.10495,14.386523,0.0,79.539002,102.064545,-0.914242,3.100228,0.026054,1.838145
275016.446355,0.39816828,-0.25925868,9.783208890000001,0.003639,-0.001184,0.003346,-40.737396,92.94136,-105.922119,60.187897,24.830408,31.10495,14.386523,0.0,79.539002,102.064545,-0.914242,3.100231,0.026061,1.838143
275016.486326,0.40715424,-0.26315325,9.768238830000001,0.003698,-0.000612,0.004386,-41.071503,93.044922,-105.906555,60.187897,24.830408,31.10495,14.386523,0.0,79.539002,102.064545,-0.914242,3.100241,0.026088,1.838151
275016.506311,0.39772683000000003,-0.25985709,9.76659075,0.001576,-0.000382,0.004479,-40.971512,93.05304,-106.04451,60.187897,24.830408,31.10495,14.386523,0.0,79.539002,102.064545,-0.914242,3.100242,0.026085,1.838156
275016.526296,0.39876669,-0.26779338,9.77706783,0.002911,0.000951,0.004531,-40.652161,93.319855,-106.282318,60.187897,24.830408,31.10495,14.386523,0.0,79.539002,102.064545,-0.914242,3.100253,0.026092,1.838157
275016.546281,0.40280841,-0.25222491,9.77407578,0.001289,-0.001316,0.004321,-40.888321,92.930542,-106.001816,60.187897,24.830408,31.10495,14.386523,0.0,79.539002,102.064545,-0.914242,3.100269,0.026081,1.838161
275016.566266,0.39756987000000005,-0.2544714,9.7692885,0.002399,-0.001296,0.004115,-41.236389,93.033722,-105.832199,60.187897,24.830408,31.10495,14.386523,0.0,79.539002,102.064545,-0.914242,3.100272,0.026086,1.83817
275016.586251,0.40940073,-0.25387299,9.78574968,0.00291,-0.000224,0.006682,-40.760254,92.982498,-106.115906,60.187897,24.830408,31.10495,14.386523,0.0,79.539002,102.064545,-0.914242,3.100274,0.02609,1.838182
275016.606236,0.40461345,-0.25581537,9.77781339,0.004103,0.000668,0.003321,-40.696014,93.266525,-106.230606,60.187897,24.830408,31.10495,14.386523,0.0,79.539002,102.064545,-0.914242,3.100281,0.026082,1.83817
275016.626221,0.40925358,-0.25162650000000003,9.76584519,0.003682,0.000272,0.005657,-40.674255,93.241089,-106.39946,60.187897,24.830408,31.10495,14.386523,0.0,79.539002,102.064545,-0.914242,3.100282,0.026082,1.838166
275016.646207,0.41553198,-0.26090676,9.779167170000001,0.002292,-0.000364,0.004253,-41.080826,92.981583,-105.966782,60.187897,24.830408,31.10495,14.386523,0.0,79.539002,102.064545,-0.914242,3.100288,0.026068,1.838153
275016.666192,0.40371093,-0.24548544000000003,9.77677353,0.00339,0.000812,0.003683,-40.984055,92.907532,-105.781174,60.187897,24.830408,31.10495,14.386523,0.0,79.539002,102.064545,-0.914242,3.100282,0.026084,1.838157
275016.686177,0.39472497000000006,-0.26569404,9.780658290000002,0.004108,-0.000642,0.004344,-40.86351,93.199738,-106.409912,60.187897,24.830408,31.10495,14.386523,0.0,79.539002,102.064545,-0.914242,3.10028,0.026083,1.838167
275016.706162,0.39981636000000004,-0.26061246,9.76809168,0.004006,0.000677,0.003832,-40.959122,92.956589,-106.301361,60.187897,24.830408,31.10495,14.386523,0.0,79.539002,102.064545,-0.914242,3.100269,0.026084,1.838162
275016.726147,0.41089185,-0.24354306000000003,9.77617512,0.003521,-0.001501,0.004114,-40.964157,92.992569,-105.962143,60.187897,24.830408,31.10495,14.386523,0.0,79.539002,102.064545,-0.914242,3.100286,0.026074,1.838165
275016.746132,0.40985199,-0.25162650000000003,9.7869465,0.004821,4.2e-05,0.003074,-40.948029,92.859009,-105.995102,60.187897,24.830408,31.10495,14.386523,0.0,79.539002,102.064545,-0.914242,3.100278,0.026083,1.838164
275016.766117,0.4047606,-0.26554689,9.78634809,0.002143,-0.000668,0.003559,-40.444595,93.459152,-106.202698,60.187897,24.830408,31.10495,14.386523,0.0,79.539002,102.064545,-0.914242,3.100275,0.026075,1.838168
275016.786102,0.40625172,-0.25746345000000004,9.76972995,0.003476,0.000231,0.003541,-40.712891,93.183823,-106.464432,60.187897,24.830408,31.10495,14.386523,0.0,79.539002,102.064545,-0.914242,3.100273,0.026079,1.838153
275016.806088,0.40565331,-0.26225073,9.78529842,0.003963,-0.000605,0.005036,-40.637054,93.207794,-106.436325,60.187897,24.830408,31.10495,14.386523,0.0,79.539002,102.064545,-0.914242,3.100273,0.026078,1.838166
275016.826073,0.40581027000000003,-0.26061246,9.771682140000001,0.001783,0.000187,0.004585,-41.505508,92.783737,-105.868805,60.187897,24.830408,31.10495,14.386523,0.0,79.539002,102.064545,-0.914242,3.100267,0.02607,1.838167
275016.846058,0.39323385000000005,-0.25312743,9.780815250000002,0.003124,-0.000414,0.006578,-40.475098,93.202225,-106.193405,60.187897,24.830408,31.10495,14.386523,0.0,79.539002,102.064545,-0.914242,3.100269,0.026068,1.83817
275016.886028,0.40700709,-0.25387299,9.77781339,0.00286,-1.8e-05,0.004625,-40.680008,93.264236,-106.23262,60.187897,24.830408,31.10495,14.386523,0.0,79.539002,102.064545,-0.914242,3.100271,0.026059,1.838167
275016.906013,0.40206285,-0.25207776000000004,9.772133400000001,0.001711,-0.000148,0.003584,-40.666092,93.081406,-105.805206,60.187897,24.830408,31.10495,14.386523,0.0,79.539002,102.064545,-0.914242,3.100284,0.026064,1.838174
275016.925998,0.40057173,-0.26779338,9.779314320000001,0.003271,-0.000511,0.003126,-40.666092,93.081406,-105.805206,60.187897,24.830408,31.10495,14.386523,0.0,79.539002,102.064545,-0.914242,3.100286,0.026068,1.838185
275016.945983,0.40835106000000004,-0.26465418,9.77333022,0.002542,-0.000465,0.00499,-41.083496,92.897903,-105.525513,60.187897,24.830408,31.10495,14.386523,0.0,79.539002,102.064545,-0.914242,3.10029,0.026059,1.838191
275016.965969,0.40521186000000003,-0.24863445,9.78844743,0.003494,-0.000296,0.005159,-40.451218,93.273621,-105.958145,60.187897,24.830408,31.10495,14.386523,0.0,79.539002,102.064545,-0.914242,3.100293,0.026059,1.838186
275016.985954,0.40416219000000003,-0.24264054000000002,9.77287896,0.002652,0.000198,0.003441,-41.17128,93.02742,-105.594116,60.187897,24.830408,31.10495,14.386523,0.0,79.539002,102.064545,-0.914242,3.100294,0.02605,1.838173
275017.005939,0.40490775,-0.24892875000000003,9.7894971,0.001996,0.000366,0.002032,-40.604813,93.40448,-105.862381,60.187897,24.830408,31.10495,14.386523,0.0,79.539002,102.064545,-0.914242,3.100288,0.026043,1.838176
275017.025924,0.39802113,-0.26270199,9.765246780000002,0.00493,0.000562,0.004435,-40.987762,93.000961,-105.683151,60.187897,24.830408,31.10495,14.386523,0.0,79.539002,102.064545,-0.914242,3.100287,0.026053,1.838197
275017.045909,0.40925358,-0.26135802,9.76044969,0.001753,0.000427,0.005201,-40.440323,93.209137,-106.411209,60.187897,24.830408,31.10495,14.386523,0.0,79.539002,102.064545,-0.914242,3.100284,0.026054,1.838201
275017.065894,0.40371093,-0.25686504,9.767787570000001,0.002699,0.00018,0.002638,-40.452805,93.199326,-106.211227,60.187897,24.830408,31.10495,14.386523,0.0,79.539002,102.064545,-0.914242,3.100289,0.026061,1.838202
275017.085879,0.40685013000000003,-0.25193061,9.78215922,0.002916,-0.000216,0.004548,-40.817017,93.179535,-105.952133,60.187897,24.830408,31.10495,14.386523,0.0,79.539002,102.064545,-0.914242,3.100302,0.026061,1.838204
275017.105864,0.40296537000000004,-0.24399432,9.7781175,0.003148,0.000144,0.004018,-41.241196,92.800507,-105.773621,60.187897,24.830408,31.10495,14.386523,0.0,79.539002,102.064545,-0.914242,3.100294,0.026076,1.838204
275017.12585,0.3930867,-0.24624081,9.7692885,0.002755,-0.001055,0.00312,-40.969604,93.036163,-106.009415,60.187897,24.830408,31.10495,14.386523,0.0,79.539002,102.064545,-0.914242,3.100293,0.026085,1.838204
275017.145835,0.40400523,-0.26554689,9.77108373,0.004405,-0.00021,0.006138,-40.637146,93.190506,-105.802124,60.187897,24.830408,31.10495,14.386523,0.0,79.539002,102.064545,-0.914242,3.100291,0.026087,1.838214
275017.16582,0.39892365,-0.26779338,9.76284333,0.001972,-0.001416,0.005581,-40.851334,93.081985,-106.166214,60.187897,24.830408,31.10495,14.386523,0.0,79.539002,102.064545,-0.914242,3.10029,0.026075,1.838204
275017.20579,0.39921795000000004,-0.25387299,9.767189160000001,0.003353,-0.000803,0.003635,-41.050003,93.132065,-105.81012,60.187897,24.830408,31.10495,14.386523,0.0,79.539002,102.064545,-0.914242,3.100295,0.026083,1.838206
275017.225775,0.39952206,-0.25552107,9.76733631,0.001725,-0.000152,0.004,-40.760376,93.061249,-105.87677,60.187897,24.830408,31.10495,14.386523,0.0,79.539002,102.064545,-0.914242,3.1003,0.026089,1.838204
275017.24576,0.39412656000000007,-0.25387299,9.76988691,0.003987,-0.000238,0.00453,-40.833847,93.133255,-106.445648,60.187897,24.830408,31.10495,14.499622,0.0,79.539002,102.064545,-0.914242,3.100303,0.0261,1.838217
275017.24576,0.39412656000000007,-0.25387299,9.76988691,0.003987,-0.000238,0.00453,-40.833847,93.133255,-106.445648,60.187897,24.830408,31.10495,14.499622,0.0,79.539002,102.064545,-0.914242,3.100303,0.0261,1.838217
275017.265745,0.40535900999999996,-0.25282332,9.7667379,0.002027,-0.001258,0.004434,-40.810028,93.02327,-105.625,60.187897,24.830408,31.10495,14.499622,0.0,79.539002,102.064545,-0.914242,3.10031,0.026103,1.838225
275017.285731,0.39292974,-0.24668226000000004,9.78560253,0.001993,0.000117,0.004177,-41.083145,92.874268,-105.945526,60.187897,24.830408,31.10495,14.499622,0.0,79.539002,102.064545,-0.914242,3.100318,0.026104,1.838221
275017.325701,0.39667716000000003,-0.25657074,9.78261048,0.003402,-0.000547,0.004277,-40.802765,93.101517,-105.889145,60.187897,24.830408,31.10495,14.499622,0.0,79.539002,102.064545,-0.914242,3.100357,0.026117,1.838218
275017.345686,0.40505490000000005,-0.25581537,9.77721498,0.003153,-0.000297,0.004043,-40.693268,93.285782,-105.994446,60.187897,24.830408,31.10495,14.499622,0.0,79.539002,102.064545,-0.914242,3.100367,0.026115,1.838201
275017.365671,0.40385808000000006,-0.25012557,9.7695828,0.002713,4.1e-05,0.003186,-40.983337,93.176483,-105.566177,60.187897,24.830408,31.10495,14.499622,0.0,79.539002,102.064545,-0.914242,3.100364,0.026122,1.838206
275017.405642,0.40296537000000004,-0.25896438000000005,9.77437008,0.000902,-1.2e-05,0.003448,-40.857376,93.25325,-105.730103,60.187897,24.830408,31.10495,14.499622,0.0,79.539002,102.064545,-0.914242,3.100366,0.026123,1.838227
275017.425627,0.39667716000000003,-0.25521696000000005,9.771829290000001,0.004051,-7.4e-05,0.005407,-40.602463,93.354187,-106.01915,60.187897,24.830408,31.10495,14.499622,0.0,79.539002,102.064545,-0.914242,3.100368,0.026142,1.83824
275017.445613,0.41029344,-0.25327458,9.76209777,0.00422,-0.000199,0.003295,-40.918137,93.314438,-105.881454,60.187897,24.830408,31.10495,14.499622,0.0,79.539002,102.064545,-0.914242,3.100371,0.026142,1.838222
275017.465598,0.40311252,-0.26105391,9.77766624,0.005508,-0.000577,0.002758,-41.17244,93.043106,-105.536041,60.187897,24.830408,31.10495,14.499622,0.0,79.539002,102.064545,-0.914242,3.100377,0.026141,1.838213
275017.485583,0.39502908,-0.25162650000000003,9.7695828,0.003942,3.8e-05,0.004359,-40.641052,93.195251,-106.031464,60.187897,24.830408,31.10495,14.499622,0.0,79.539002,102.064545,-0.914242,3.100386,0.02613,1.83823
275017.505568,0.40117014,-0.26284914,9.77601816,0.004488,-0.001997,0.004084,-40.54071,92.974854,-105.786789,60.187897,24.830408,31.10495,14.499622,0.0,79.539002,102.064545,-0.914242,3.100382,0.026134,1.838233
275017.525553,0.41149026,-0.26105391,9.77721498,0.003782,-0.000234,0.003634,-40.503922,93.133301,-106.252075,60.187897,24.830408,31.10495,14.499622,0.0,79.539002,102.064583,-0.919525,3.100369,0.026125,1.83822
275017.545538,0.39832524,-0.25057683000000003,9.77092677,0.002487,-3.5e-05,0.005006,-41.033905,92.836533,-105.474457,60.187897,24.830408,31.10495,14.499622,0.0,79.539002,102.064583,-0.919525,3.100371,0.026125,1.838225
275017.565523,0.40117014,-0.26420292,9.77452704,0.002473,-0.001626,0.005595,-40.440048,93.190567,-105.935867,60.187897,24.830408,31.10495,14.499622,0.0,79.539002,102.064583,-0.919525,3.100372,0.026127,1.838229
275017.585508,0.39383226000000005,-0.25701219000000003,9.78275763,0.004043,-0.001536,0.00675,-40.372238,93.108673,-106.144791,60.187897,24.830408,31.10495,14.499622,0.0,79.539002,102.064583,-0.919525,3.100359,0.026138,1.838223
275017.605494,0.3990708,-0.2576106,9.77797035,0.002442,-0.000249,0.004783,-40.220749,93.286453,-106.245529,60.187897,24.830408,31.10495,14.499622,0.0,79.539002,102.064583,-0.919525,3.100358,0.026126,1.838209
275017.625479,0.40730139000000004,-0.25461855,9.77077962,0.001374,-0.000129,0.003889,-40.220749,93.286453,-106.245529,60.187897,24.830408,31.10495,14.499622,0.0,79.539002,102.064583,-0.919525,3.100361,0.026131,1.838208
275017.645464,0.40176855,-0.25506981,9.771829290000001,0.003375,-0.000975,0.00508,-40.889191,93.024475,-105.77919,60.187897,24.830408,31.10495,14.499622,0.0,79.539002,102.064583,-0.919525,3.100355,0.026147,1.83822
