timestamp,accel_x,accel_y,accel_z,gyro_x,gyro_y,gyro_z,mag_x,mag_y,mag_z,gps_lat,gps_lon,gps_alt,gps_accuracy,gps_speed,gps_course,pressure,altitude,roll,pitch,yaw
832635.812198,-9.48172797,0.05627997,-2.8759682700000004,0.003198,-0.016351,0.005153,-112.678116,97.222305,-194.933701,60.187684,24.830138,13.556826,11.954291,-1.0,-1.0,100.571983,0.184963,-1.281493,-0.001127,-1.587676
832635.872154,-9.458380170000002,0.04281084,-2.8163921400000005,0.002189,0.001104,0.006369,-112.726715,97.223068,-194.256088,60.187684,24.830138,13.556826,11.954291,-1.0,-1.0,100.571983,0.184963,-1.281517,-0.001142,-1.587656
832635.932111,-9.44700057,0.00958437,-2.7981357300000003,-0.000334,0.005118,0.005986,-112.434235,97.154083,-194.680725,60.187684,24.830138,13.556826,11.954291,-1.0,-1.0,100.571983,0.184963,-1.281512,-0.001126,-1.587636
832635.952097,-9.40164894,-0.0056898,-2.80651347,0.004639,-0.003047,0.002661,-112.277496,97.170715,-194.67485,60.187684,24.830138,13.556826,11.954291,-1.0,-1.0,100.571983,0.184963,-1.28149,-0.00114,-1.587634
832635.972082,-9.430088130000001,0.01886463,-2.81055519,0.007557,-0.001666,0.006634,-112.415695,97.189453,-194.578339,60.187684,24.830138,13.556826,11.954291,-1.0,-1.0,100.571983,0.184963,-1.281496,-0.001137,-1.587664
832635.992068,-9.43487541,-0.00164808,-2.78929692,-0.000322,0.004304,0.004885,-112.539017,97.15625,-194.932526,60.187684,24.830138,13.556826,11.954291,-1.0,-1.0,100.571983,0.184963,-1.281483,-0.001152,-1.58761
832636.012053,-9.41602059,0.00628821,-2.8240243200000004,0.005744,-0.006368,0.00154,-112.564026,97.087784,-194.638382,60.187684,24.830138,13.556826,11.954291,-1.0,-1.0,100.571983,0.184963,-1.281474,-0.001166,-1.587652
832636.032039,-9.43548363,0.024848730000000003,-2.80127493,0.002367,0.003573,0.005002,-112.52002,97.041519,-194.744263,60.187684,24.830138,13.556826,11.954291,-1.0,-1.0,100.571983,0.184963,-1.281489,-0.001171,-1.587668
832636.052024,-9.421259130000001,-0.01257642,-2.78690328,-0.000531,0.000854,0.002605,-112.500946,97.179398,-194.713409,60.187684,24.830138,13.556826,11.954291,-1.0,-1.0,100.571983,0.184963,-1.281465,-0.001189,-1.587633
832636.07201,-9.41212602,-0.00014715,-2.8196883,0.007558,-0.006789,0.004614,-112.47641,97.199753,-194.782974,60.187684,24.830138,13.556826,11.954291,-1.0,-1.0,100.571983,0.184963,-1.281463,-0.001178,-1.587677
832636.091996,-9.44476389,0.01182105,-2.81325294,0.00163,0.006411,0.005702,-112.403183,97.199829,-194.596786,60.187684,24.830138,13.556826,11.954291,-1.0,-1.0,100.571983,0.184963,-1.281479,-0.001159,-1.587656
832636.111981,-9.41931675,0.01047708,-2.78884566,0.005746,-0.003473,0.002816,-112.459854,97.213882,-194.813736,60.187684,24.830138,13.556826,11.954291,-1.0,-1.0,100.571983,0.184963,-1.281445,-0.001173,-1.587631
832636.131967,-9.42425118,0.02634966,-2.82641796,0.003625,-0.003644,0.004267,-112.470825,97.302979,-194.553986,60.187684,24.830138,13.556826,11.954291,-1.0,-1.0,100.571983,0.184963,-1.28145,-0.001192,-1.587653
832636.131967,-9.42425118,0.02634966,-2.82641796,0.003625,-0.003644,0.004267,-112.470825,97.302979,-194.553986,60.187684,24.830138,13.556826,11.954291,-1.0,-1.0,100.571983,0.184963,-1.28145,-0.001192,-1.587653
832636.171938,-9.41033079,0.00373761,-2.80785744,0.00574,-0.008894,0.002794,-112.241821,97.234589,-194.647141,60.187684,24.830138,13.556826,11.954291,-1.0,-1.0,100.571983,0.184963,-1.281426,-0.00121,-1.587645
832636.191924,-9.43668045,0.01107549,-2.81265453,0.002268,0.003046,0.003577,-112.249573,97.197876,-194.867523,60.187684,24.830138,13.556826,11.954291,-1.0,-1.0,100.571983,0.184963,-1.281458,-0.001203,-1.587666
832636.231895,-9.41915979,0.00703377,-2.80785744,0.006837,-0.005858,0.002197,-112.457489,97.355988,-194.830795,60.187684,24.830138,13.556826,11.954291,-1.0,-1.0,100.571983,0.184963,-1.281434,-0.001194,-1.58765
832636.25188,-9.42470244,0.00928026,-2.8163921400000005,-0.001455,0.003863,0.004898,-112.504745,97.203674,-194.794678,60.187684,24.830138,13.556826,11.954291,-1.0,-1.0,100.571983,0.184963,-1.281456,-0.001188,-1.587646
832636.271866,-9.42994098,0.00942741,-2.7906507,0.007483,-0.002303,0.004626,-112.466187,97.352707,-194.879242,60.187684,24.830138,13.556826,11.954291,-1.0,-1.0,100.571983,0.184963,-1.281451,-0.00119,-1.587644
832636.291851,-9.4223088,-0.008829,-2.80756314,0.004528,-0.003343,0.002873,-112.389984,97.156052,-194.733856,60.187684,24.830138,13.556826,11.954291,-1.0,-1.0,100.571983,0.184963,-1.281445,-0.001187,-1.587654
832636.311837,-9.41871834,0.00748503,-2.7981357300000003,1.4e-05,0.005749,0.003164,-112.560867,97.107071,-194.503571,60.187684,24.830138,13.556826,11.954291,-1.0,-1.0,100.571983,0.184963,-1.28145,-0.001183,-1.587649
832636.331823,-9.42694893,0.02095416,-2.79244593,0.009523,-0.007294,0.00273,-112.441589,97.17215,-194.451004,60.187684,24.830138,13.556826,11.954291,-1.0,-1.0,100.571983,0.184963,-1.281423,-0.001174,-1.587655
832636.351808,-9.44221329,0.01002582,-2.8291157100000004,0.001017,0.004391,0.004765,-112.502075,97.076599,-194.547348,60.187684,24.830138,13.556826,11.954291,-1.0,-1.0,100.571983,0.184963,-1.281433,-0.001155,-1.587668
832636.371794,-9.433835550000001,0.0056898,-2.79993096,0.002375,0.000676,0.004456,-112.440353,97.105164,-194.544876,60.187684,24.830138,13.556826,11.954291,-1.0,-1.0,100.571983,0.184963,-1.281436,-0.001152,-1.587643
832636.391779,-9.4194639,-0.00179523,-2.80142208,0.008434,-0.005318,0.002877,-112.28688,97.238449,-194.534897,60.187684,24.830138,13.556826,11.954291,-1.0,-1.0,100.571983,0.184963,-1.281432,-0.001152,-1.587658
832636.411765,-9.42200469,0.00942741,-2.8101039300000004,-0.001418,0.003711,0.005178,-112.210495,96.856155,-193.996017,60.187684,24.830138,13.556826,11.954291,-1.0,-1.0,100.571983,0.184963,-1.281456,-0.001143,-1.587642
832636.431751,-9.41856138,0.01122264,-2.79513387,0.007445,-0.003167,0.004032,-112.426071,96.960526,-194.451004,60.187684,24.830138,13.556826,11.954291,-1.0,-1.0,100.571983,0.184963,-1.281458,-0.001144,-1.587638
832636.431751,-9.41856138,0.01122264,-2.79513387,0.007445,-0.003167,0.004032,-112.426071,96.960526,-194.451004,60.187684,24.830138,13.556826,11.954291,-1.0,-1.0,100.571983,0.184963,-1.281458,-0.001144,-1.587638
832636.471723,-9.429636870000001,0.017363700000000003,-2.80606221,0.000848,0.005533,0.004112,-112.376175,96.972076,-194.623947,60.187684,24.830138,13.556826,11.954291,-1.0,-1.0,100.571983,0.184963,-1.281488,-0.001138,-1.587645
832636.491708,-9.433080180000001,0.00373761,-2.8051695,0.008352,-0.006567,0.00359,-112.397751,96.910202,-194.768799,60.187684,24.830138,13.556826,11.954291,-1.0,-1.0,100.571983,0.184963,-1.281468,-0.00112,-1.587647
832636.511694,-9.4311378,-0.00777933,-2.8062191700000003,0.000797,0.004659,0.002797,-112.601471,96.912048,-194.355942,60.187684,24.830138,13.556826,11.954291,-1.0,-1.0,100.571983,0.184963,-1.281466,-0.001116,-1.587655
832636.531679,-9.42754734,-0.00194238,-2.8116048600000005,0.002357,-0.001021,0.003859,-112.529053,96.929489,-194.662811,60.187684,24.830138,13.556826,11.954291,-1.0,-1.0,100.571983,0.184963,-1.281462,-0.001114,-1.587645
832636.551665,-9.429195420000001,0.00643536,-2.8168434,0.006494,-0.005289,0.003564,-112.596191,96.932281,-194.450302,60.187684,24.830138,13.556826,11.954291,-1.0,-1.0,100.571983,0.184963,-1.28146,-0.001127,-1.587663
832636.57165,-9.42994098,0.00973152,-2.8009708200000003,-0.002327,0.005163,0.00388,-112.516327,96.854156,-194.530075,60.187684,24.830138,13.556826,11.954291,-1.0,-1.0,100.571983,0.184963,-1.281476,-0.001123,-1.587643
832636.591636,-9.42245595,-0.0009025200000000001,-2.80725903,0.00759,-0.004234,0.005782,-112.432068,96.986618,-194.378326,60.187684,24.830138,13.556826,11.954291,-1.0,-1.0,100.571983,0.184963,-1.281472,-0.001124,-1.587636
832636.611622,-9.42559515,0.02170953,-2.80785744,0.003497,-0.000409,0.003257,-112.432358,96.959824,-194.676239,60.187684,24.830138,13.556826,11.954291,-1.0,-1.0,100.571983,0.184963,-1.281475,-0.001133,-1.587651
832636.631607,-9.405837810000001,-0.015568470000000001,-2.81653929,-0.00049,0.006284,0.001765,-112.463745,96.973541,-194.703995,60.187684,24.830138,13.556826,11.954291,-1.0,-1.0,100.571983,0.184963,-1.281498,-0.001163,-1.587617
832636.651593,-9.393271200000001,0.09116433,-2.79633069,-0.00049,0.006284,0.001765,-112.453873,97.045502,-194.373322,60.187684,24.830138,13.556826,11.954291,-1.0,-1.0,100.571983,0.184963,-1.28149,-0.001144,-1.587605
832636.671578,-9.548190720000001,-0.3005784,-2.6195544900000005,-0.0197,0.014506,-0.01038,-112.566345,97.064514,-194.388596,60.187684,24.830138,13.556826,11.954291,-1.0,-1.0,100.571983,0.184963,-1.281579,-0.001186,-1.587659
832636.691564,-9.15286734,0.10628154000000001,-2.77508223,7e-06,0.007034,0.023037,-112.434616,97.101974,-194.562515,60.187684,24.830138,13.556826,11.954291,-1.0,-1.0,100.571983,0.184963,-1.281545,-0.001068,-1.587741
832636.71155,-9.64669293,0.07993188000000001,-2.86429437,0.003608,-0.007301,-0.002102,-112.565338,97.003067,-194.804062,60.187684,24.830138,13.556826,11.954291,-1.0,-1.0,100.571983,0.184963,-1.281515,-0.001178,-1.587615
832636.731535,-9.374102460000001,-0.08248248000000001,-2.79364275,-0.008925,0.007491,-0.000687,-112.571121,96.925842,-194.819092,60.187684,24.830138,13.556826,11.954291,-1.0,-1.0,100.571983,0.184963,-1.281454,-0.001167,-1.587617
832636.731535,-9.374102460000001,-0.08248248000000001,-2.79364275,-0.008925,0.007491,-0.000687,-112.571121,96.925842,-194.819092,60.187684,24.830138,13.556826,11.954291,-1.0,-1.0,100.571983,0.184963,-1.281454,-0.001167,-1.587617
832636.771506,-9.533828880000002,0.09729558,-2.8451354400000004,0.002503,-0.006077,0.001517,-112.535583,96.959198,-194.609375,60.187684,24.830138,13.556826,11.954291,-1.0,-1.0,100.571983,0.184963,-1.281511,-0.00118,-1.587782
832636.791492,-9.35135307,0.08053028999999999,-2.8086128100000005,0.005957,0.001825,0.010982,-112.629425,96.885132,-194.487991,60.187684,24.830138,13.556826,11.954291,-1.0,-1.0,100.571342,0.240452,-1.281581,-0.001183,-1.587736
832636.811478,-9.47320308,-0.02634966,-2.83255902,0.016987,-0.007393,0.004628,-112.51326,96.940369,-194.610718,60.187684,24.830138,13.556826,11.954291,-1.0,-1.0,100.571342,0.240452,-1.281642,-0.001236,-1.587608
832636.831463,-9.46242189,-0.04685256,-2.74873257,0.00079,0.004003,0.005606,-112.545547,97.01535,-194.696411,60.187684,24.830138,13.556826,11.954291,-1.0,-1.0,100.571342,0.240452,-1.281664,-0.001238,-1.58747
832636.851449,-9.39566484,0.0056898,-2.8851013800000005,0.002938,-0.004555,0.006274,-112.641968,96.85347,-194.653076,60.187684,24.830138,13.556826,11.954291,-1.0,-1.0,100.571342,0.240452,-1.281658,-0.001239,-1.587497
832636.871434,-9.49430439,0.08562168,-2.8074159900000004,0.003146,-0.002019,0.002146,-112.531815,97.008255,-194.553131,60.187684,24.830138,13.556826,11.954291,-1.0,-1.0,100.571342,0.240452,-1.281617,-0.001279,-1.587492
832636.911405,-9.32380659,-0.023504760000000003,-2.9168367300000004,0.013652,-0.004234,0.005566,-112.558304,97.043442,-194.735352,60.187684,24.830138,13.556826,11.954291,-1.0,-1.0,100.571342,0.240452,-1.281534,-0.001125,-1.587664
832636.931391,-9.462127590000001,-0.01092834,-2.7713348100000004,0.010042,0.002594,0.009949,-112.489334,96.956833,-194.817535,60.187684,24.830138,13.556826,11.954291,-1.0,-1.0,100.571342,0.240452,-1.281573,-0.00118,-1.58751
832636.951377,-9.47080944,0.043860510000000005,-2.7369115200000005,-0.006437,-0.001572,0.000821,-112.4673,96.872147,-194.67308,60.187684,24.830138,13.556826,11.954291,-1.0,-1.0,100.571342,0.240452,-1.281555,-0.001206,-1.587447
832636.971362,-9.39490947,0.016765290000000002,-2.85111954,0.01229,-0.001239,0.006405,-112.644028,96.858612,-194.780975,60.187684,24.830138,13.556826,11.954291,-1.0,-1.0,100.571342,0.240452,-1.281558,-0.001177,-1.587564
832636.991348,-9.41018364,-0.031136940000000002,-2.790945,0.003617,0.001149,0.007484,-112.699707,96.736206,-194.862076,60.187684,24.830138,13.556826,11.954291,-1.0,-1.0,100.571342,0.240452,-1.281544,-0.00123,-1.587465
832637.011333,-9.461970630000001,0.008377740000000002,-2.75277429,-0.000952,-0.002736,-0.000294,-112.592957,96.880951,-194.63649,60.187684,24.830138,13.556826,11.954291,-1.0,-1.0,100.571342,0.240452,-1.281582,-0.001225,-1.587455
832637.031319,-9.45763461,0.03322647,-2.82777174,0.009906,0.001864,0.00652,-112.833176,96.729065,-194.707855,60.187684,24.830138,13.556826,11.954291,-1.0,-1.0,100.571342,0.240452,-1.281561,-0.001193,-1.587561
832637.031319,-9.45763461,0.03322647,-2.82777174,0.009906,0.001864,0.00652,-112.833176,96.729065,-194.707855,60.187684,24.830138,13.556826,11.954291,-1.0,-1.0,100.571342,0.240452,-1.281561,-0.001193,-1.587561
832637.031319,-9.45763461,0.03322647,-2.82777174,0.009906,0.001864,0.00652,-112.833176,96.729065,-194.707855,60.187684,24.830138,13.556826,11.954291,-1.0,-1.0,100.571342,0.240452,-1.281561,-0.001193,-1.587561
832637.07129,-9.47589102,0.039965940000000005,-2.76040647,0.005002,-0.006807,0.000997,-112.733917,96.733749,-194.475693,60.187684,24.830138,13.556826,11.954291,-1.0,-1.0,100.571342,0.240452,-1.281582,-0.001208,-1.587517
832637.111261,-9.37710432,-0.19968255000000001,-2.85456285,0.004364,-0.002018,0.00594,-112.623962,97.008011,-194.938339,60.187684,24.830138,13.556826,11.954291,-1.0,-1.0,100.571342,0.240452,-1.281664,-0.00126,-1.587446
832637.131247,-9.541009800000001,0.01946304,-2.7952908300000003,0.017873,0.012624,0.002589,-112.657547,96.868408,-194.679489,60.187684,24.830138,13.556826,11.954291,-1.0,-1.0,100.571342,0.240452,-1.281818,-0.001233,-1.587481
832637.151233,-9.505379880000001,0.210915,-2.6867628000000003,0.004517,0.00688,0.006395,-112.745605,96.844803,-194.872238,60.187684,24.830138,13.556826,11.954291,-1.0,-1.0,100.571342,0.240452,-1.281651,-0.001177,-1.587346
832637.171218,-9.31662567,0.17633475,-2.85831027,0.003969,-0.000349,0.00307,-112.759033,96.612503,-194.919205,60.187684,24.830138,13.556826,11.954291,-1.0,-1.0,100.571342,0.240452,-1.281393,-0.001163,-1.587323
832637.171218,-9.31662567,0.17633475,-2.85831027,0.003969,-0.000349,0.00307,-112.759033,96.612503,-194.919205,60.187684,24.830138,13.556826,11.954291,-1.0,-1.0,100.571342,0.240452,-1.281393,-0.001163,-1.587323
832637.211189,-9.556431120000001,-0.01946304,-2.74319973,0.012766,0.00535,0.015738,-112.656158,96.78215,-194.939682,60.187684,24.830138,13.556826,11.954291,-1.0,-1.0,100.571342,0.240452,-1.281545,-0.001213,-1.587031
832637.231175,-9.37694736,-0.10942074000000002,-2.77058925,-0.003363,-0.008876,-0.005135,-112.532654,97.025803,-194.94545,60.187684,24.830138,13.556826,11.954291,-1.0,-1.0,100.571342,0.240452,-1.281488,-0.001267,-1.586891
832637.251161,-9.377545770000001,0.016461180000000002,-2.83660074,-0.005047,-0.006645,0.001793,-112.467041,96.997543,-194.519913,60.187684,24.830138,13.556826,11.954291,-1.0,-1.0,100.571342,0.240452,-1.281653,-0.001206,-1.587186
832637.271146,-9.513169020000001,0.09295956000000001,-2.76968673,0.008913,0.008116,0.013329,-112.667038,96.728729,-194.576813,60.187684,24.830138,13.556826,11.954291,-1.0,-1.0,100.571342,0.240452,-1.281702,-0.001258,-1.587197
832637.291132,-9.47170215,0.04955031,-2.73930516,0.001094,0.004051,6.1e-05,-112.59935,96.921738,-194.513107,60.187684,24.830138,13.556826,11.954291,-1.0,-1.0,100.571342,0.240452,-1.281508,-0.00132,-1.587113
832637.311117,-9.286538400000001,-0.02798793,-2.82342591,-0.005184,-0.001448,0.002644,-112.740463,96.81189,-194.314819,60.187684,24.830138,13.556826,11.954291,-1.0,-1.0,100.571342,0.240452,-1.281435,-0.001296,-1.587265
832637.331103,-9.437573160000001,-0.01542132,-2.8475290800000006,-0.004609,-0.004127,0.000611,-112.975342,96.760742,-194.727936,60.187684,24.830138,13.556826,11.954291,-1.0,-1.0,100.571342,0.240452,-1.281525,-0.00132,-1.587447
832637.331103,-9.437573160000001,-0.01542132,-2.8475290800000006,-0.004609,-0.004127,0.000611,-112.975342,96.760742,-194.727936,60.187684,24.830138,13.556826,11.954291,-1.0,-1.0,100.571342,0.240452,-1.281525,-0.00132,-1.587447
832637.371074,-9.30689415,-0.08322804,-2.89692243,0.009596,0.002467,0.017776,-112.741211,96.778,-194.599792,60.187684,24.830138,13.556826,11.954291,-1.0,-1.0,100.571342,0.240452,-1.281513,-0.001438,-1.587471
832637.39106,-9.190890900000001,-0.0022464900000000003,-2.97670716,0.02423,-0.020669,0.031531,-113.042023,96.584824,-194.710129,60.187684,24.830138,13.556826,11.954291,-1.0,-1.0,100.571342,0.240452,-1.281591,-0.001622,-1.587239
832637.411045,-9.5378706,0.10463346000000001,-2.97371511,0.04341,-0.026073,0.026174,-112.889648,96.529144,-194.500702,60.187684,24.830138,13.556826,11.954291,-1.0,-1.0,100.571342,0.240452,-1.2821,-0.001957,-1.586639
832637.431031,-9.446559120000002,0.052542359999999996,-2.89916892,0.043074,-0.04115,0.029163,-112.586288,96.67804,-194.669556,60.187684,24.830138,13.556826,11.954291,-1.0,-1.0,100.571342,0.240452,-1.282764,-0.002253,-1.585708
832637.451017,-9.138495690000001,0.0028449,-2.95201539,0.019583,-0.092368,0.019349,-112.361786,96.801605,-194.456558,60.187684,24.830138,13.556826,11.954291,-1.0,-1.0,100.571342,0.240452,-1.283844,-0.002481,-1.584928
832637.471002,-9.49221486,0.11975067000000002,-2.9056042800000004,0.024499,-0.124222,0.021264,-112.540894,96.681335,-194.819382,60.187684,24.830138,13.556826,11.954291,-1.0,-1.0,100.571342,0.240452,-1.285669,-0.002625,-1.584508
832637.490988,-9.30809097,-0.053739180000000004,-2.8834533,0.000243,-0.180894,0.015649,-112.517517,96.785583,-194.601318,60.187684,24.830138,13.556826,11.954291,-1.0,-1.0,100.571342,0.240452,-1.288389,-0.00288,-1.584058
832637.510973,-9.21289473,-0.23291883000000002,-2.8193841900000005,-0.041667,-0.244381,-0.004776,-112.800735,96.665726,-194.287674,60.187684,24.830138,13.556826,11.954291,-1.0,-1.0,100.571342,0.240452,-1.292345,-0.003059,-1.584313
832637.530959,-9.345212010000001,-0.049697460000000006,-3.0139851600000003,-0.061511,-0.336488,-0.017012,-112.866913,96.743271,-194.410355,60.187684,24.830138,13.556826,11.954291,-1.0,-1.0,100.571342,0.240452,-1.29768,-0.003178,-1.585309
832637.550945,-9.01904913,-0.05463189,-2.98074888,-0.113216,-0.448654,-0.022087,-113.160568,96.637192,-193.918549,60.187684,24.830138,13.556826,11.954291,-1.0,-1.0,100.571342,0.240452,-1.305077,-0.003116,-1.586886
832637.57093,-9.25585272,0.16630893,-2.74918383,-0.074464,-0.514705,0.000137,-113.39505,96.660172,-193.768005,60.187684,24.830138,13.556826,11.954291,-1.0,-1.0,100.571342,0.240452,-1.314517,-0.003428,-1.588949
832637.590916,-8.96111127,-0.14654178,-2.9918243700000002,-0.081162,-0.569876,-0.002879,-113.771362,96.691391,-193.629883,60.187684,24.830138,13.556826,11.954291,-1.0,-1.0,100.571342,0.240452,-1.325339,-0.003879,-1.590573
832637.610901,-9.23354478,0.14429529,-2.85561252,-0.019555,-0.672649,0.024172,-113.792419,97.151123,-193.124329,60.187684,24.830138,13.556826,11.954291,-1.0,-1.0,100.571342,0.240452,-1.337429,-0.004264,-1.591917
832637.630887,-9.078919560000001,-0.20118348,-2.95350651,0.010208,-0.741616,0.035042,-114.143982,97.309875,-192.349304,60.187684,24.830138,13.556826,11.954291,-1.0,-1.0,100.571342,0.240452,-1.35119,-0.004801,-1.592121
832637.630887,-9.078919560000001,-0.20118348,-2.95350651,0.010208,-0.741616,0.035042,-114.143982,97.309875,-192.349304,60.187684,24.830138,13.556826,11.954291,-1.0,-1.0,100.571342,0.240452,-1.35119,-0.004801,-1.592121
832637.690844,-9.158704290000001,-0.05718249,-2.09040309,-0.029944,-1.015729,0.035,-116.599487,100.286087,-189.805771,60.187684,24.830138,13.556826,11.954291,-1.0,-1.0,100.571342,0.240452,-1.400631,-0.006886,-1.597937
832637.71083,-9.39970656,-0.02754648,-1.7595902700000001,-0.060027,-1.088439,0.030113,-118.940811,101.134933,-189.131104,60.187684,24.830138,13.556826,11.954291,-1.0,-1.0,100.571342,0.240452,-1.421422,-0.00762,-1.603231
832637.730815,-9.58561587,-0.05912487,-1.3867121700000002,-0.062102,-1.125032,0.027496,-121.78804,101.356308,-188.985886,60.187684,24.830138,13.556826,11.954291,-1.0,-1.0,100.571342,0.240452,-1.443194,-0.00829,-1.604454
832637.750801,-9.27575721,0.09295956000000001,-1.75165398,-0.041951,-1.223748,0.035239,-123.479614,100.692368,-188.574158,60.187684,24.830138,13.556826,11.954291,-1.0,-1.0,100.571342,0.240452,-1.466073,-0.008938,-1.605585
832637.770786,-9.35464923,0.13187583,-1.3527401399999999,-0.026819,-1.313152,0.039368,-124.089157,99.504456,-188.456436,60.187684,24.830138,13.556826,11.954291,-1.0,-1.0,100.571342,0.240452,-1.491081,-0.009661,-1.606294
832637.790772,-9.55852065,0.20671632,-0.59650686,-0.017051,-1.322901,0.048519,-124.037354,98.264328,-188.331406,60.187684,24.830138,13.556826,11.954291,-1.0,-1.0,100.571342,0.240452,-1.517453,-0.010492,-1.6068
832637.790772,-9.55852065,0.20671632,-0.59650686,-0.017051,-1.322901,0.048519,-124.037354,98.264328,-188.331406,60.187684,24.830138,13.556826,11.954291,-1.0,-1.0,100.571342,0.240452,-1.517453,-0.010492,-1.6068
832637.830743,-9.54864198,0.60399189,-0.33634566,0.007337,-1.372662,0.079886,-122.876999,97.828842,-186.053009,60.187684,24.830138,13.556826,11.954291,-1.0,-1.0,100.571342,0.240452,-1.57045,-0.012381,-1.607245
832637.850729,-11.630961630000002,1.5024211200000002,0.8978308200000001,0.164087,-0.868242,0.346916,-122.920288,98.305695,-185.271469,60.187684,24.830138,13.556826,11.954291,-1.0,-1.0,100.571342,0.240452,-1.59675,-0.015691,-1.606588
832637.870714,-11.84381901,0.2803698,1.6854953400000001,0.161161,-0.755665,0.069593,-122.589111,98.619049,-184.732803,60.187684,24.830138,13.556826,11.954291,-1.0,-1.0,100.570572,0.303867,-1.615313,-0.018605,-1.604489
832637.870714,-11.84381901,0.2803698,1.6854953400000001,0.161161,-0.755665,0.069593,-122.589111,98.619049,-184.732803,60.187684,24.830138,13.556826,11.954291,-1.0,-1.0,100.570572,0.303867,-1.615313,-0.018605,-1.604489
832637.910686,-10.48284828,0.21046374,0.4770603,0.150124,-0.579675,0.054498,-122.410736,98.581314,-184.085144,60.187684,24.830138,13.556826,11.954291,-1.0,-1.0,100.570572,0.303867,-1.643476,-0.021413,-1.598503
832637.930671,-10.49781834,0.48634056000000003,1.0135397700000002,0.139221,-0.531623,-0.00309,-121.956772,98.80246,-183.246857,60.187684,24.830138,13.556826,11.954291,-1.0,-1.0,100.570572,0.303867,-1.654331,-0.022465,-1.595515
832637.930671,-10.49781834,0.48634056000000003,1.0135397700000002,0.139221,-0.531623,-0.00309,-121.956772,98.80246,-183.246857,60.187684,24.830138,13.556826,11.954291,-1.0,-1.0,100.570572,0.303867,-1.654331,-0.022465,-1.595515
832637.970643,-9.643691070000001,-0.01601973,1.20154842,0.031986,-0.532022,0.003341,-120.632553,99.609314,-181.67804,60.187684,24.830138,13.556826,11.954291,-1.0,-1.0,100.570572,0.303867,-1.674412,-0.022549,-1.591557
832637.990628,-9.66749994,-0.25476570000000004,1.13988276,-0.016674,-0.592794,0.018741,-121.26149,99.291046,-181.178619,60.187684,24.830138,13.556826,11.954291,-1.0,-1.0,100.570572,0.303867,-1.685113,-0.022747,-1.59132
832638.010614,-9.60088023,-0.19938825000000002,1.1425707,-0.045051,-0.636936,0.034589,-121.649399,98.957779,-180.960236,60.187684,24.830138,13.556826,11.954291,-1.0,-1.0,100.570572,0.303867,-1.696849,-0.023078,-1.591836
832638.030599,-9.707917140000001,-0.00404172,1.16413308,-0.045472,-0.693629,0.0282,-122.447571,98.797882,-180.848251,60.187684,24.830138,13.556826,11.954291,-1.0,-1.0,100.570572,0.303867,-1.709598,-0.023512,-1.592841
832638.050585,-9.75011976,0.07424208,0.9668441700000001,-0.046807,-0.746118,0.028399,-124.329315,98.477982,-180.945633,60.187684,24.830138,13.556826,11.954291,-1.0,-1.0,100.570572,0.303867,-1.723441,-0.023882,-1.59386
832638.070571,-9.652225770000001,0.24773193000000002,1.2394248300000001,-0.051379,-0.814232,0.018955,-126.230835,98.691025,-180.647003,60.187684,24.830138,13.556826,11.954291,-1.0,-1.0,100.570572,0.303867,-1.738533,-0.024127,-1.594879
832638.090556,-9.6136038,0.29907747,1.3349251800000002,-0.059703,-0.884307,0.03161,-127.631226,99.777634,-179.162033,60.187684,24.830138,13.556826,11.954291,-1.0,-1.0,100.570572,0.303867,-1.755067,-0.024301,-1.596106
832638.110542,-9.60971904,0.31030011,1.36186344,-0.053951,-0.971657,0.035521,-128.006134,101.268356,-178.01416,60.187684,24.830138,13.556826,11.954291,-1.0,-1.0,100.570572,0.303867,-1.773192,-0.024624,-1.597417
832638.130528,-9.51900597,0.24249339000000003,1.56005487,-0.031262,-1.048312,0.029147,-127.660995,102.289841,-175.992249,60.187684,24.830138,13.556826,11.954291,-1.0,-1.0,100.570572,0.303867,-1.793012,-0.025,-1.598559
832638.150513,-9.44550945,0.19938825000000002,1.8519514200000002,-0.015094,-1.082753,0.025322,-126.471893,102.648666,-174.237244,60.187684,24.830138,13.556826,11.954291,-1.0,-1.0,100.570572,0.303867,-1.814174,-0.025321,-1.599256
832638.170499,-9.42290721,0.24189498,2.29113531,0.002503,-1.094911,0.01313,-124.528931,102.469757,-172.664917,60.187684,24.830138,13.556826,11.954291,-1.0,-1.0,100.570572,0.303867,-1.835897,-0.025654,-1.59963
832638.190484,-9.2777094,0.25611948,2.3185248300000003,0.029861,-1.166901,-0.007651,-122.764084,101.88298,-171.923889,60.187684,24.830138,13.556826,11.954291,-1.0,-1.0,100.570572,0.303867,-1.858071,-0.025824,-1.599554
832638.21047,-9.89726976,0.36568737,2.48228316,0.092709,-1.107808,0.107908,-122.123459,100.574478,-171.28624,60.187684,24.830138,13.556826,11.954291,-1.0,-1.0,100.570572,0.303867,-1.880685,-0.026488,-1.598774
832638.230456,-9.66315411,-0.49038228,3.6536069700000002,0.061394,-1.170549,-0.046847,-122.330963,99.867279,-170.648987,60.187684,24.830138,13.556826,11.954291,-1.0,-1.0,100.570572,0.303867,-1.903745,-0.028255,-1.597755
832638.230456,-9.66315411,-0.49038228,3.6536069700000002,0.061394,-1.170549,-0.046847,-122.330963,99.867279,-170.648987,60.187684,24.830138,13.556826,11.954291,-1.0,-1.0,100.570572,0.303867,-1.903745,-0.028255,-1.597755
832638.270427,-9.75671208,0.033383430000000006,4.04698797,-0.014993,-1.144574,-0.04074,-125.867737,98.754333,-169.728897,60.187684,24.830138,13.556826,11.954291,-1.0,-1.0,100.570572,0.303867,-1.950729,-0.028382,-1.59723
832638.290413,-8.721315630000001,0.45714600000000005,3.7510497000000003,-0.027935,-1.087937,0.076793,-129.232117,99.169113,-169.290802,60.187684,24.830138,13.556826,11.954291,-1.0,-1.0,100.570572,0.303867,-1.974092,-0.028212,-1.597952
832638.310398,-9.126968940000001,0.7493368499999999,3.8637666,0.032275,-1.108793,-0.019902,-130.535095,100.364517,-167.223663,60.187684,24.830138,13.556826,11.954291,-1.0,-1.0,100.570572,0.303867,-1.996713,-0.028525,-1.598364
832638.330384,-8.56743597,1.3641099300000001,3.81646278,0.101807,-1.069435,-0.004094,-130.209641,100.918549,-165.545868,60.187684,24.830138,13.556826,11.954291,-1.0,-1.0,100.570572,0.303867,-2.018296,-0.029169,-1.597262
832638.330384,-8.56743597,1.3641099300000001,3.81646278,0.101807,-1.069435,-0.004094,-130.209641,100.918549,-165.545868,60.187684,24.830138,13.556826,11.954291,-1.0,-1.0,100.570572,0.303867,-2.018296,-0.029169,-1.597262
832638.370355,-8.40875922,0.89393625,3.99818322,0.223212,-0.994648,-0.029104,-129.158401,100.926239,-164.12204,60.187684,24.830138,13.556826,11.954291,-1.0,-1.0,100.570572,0.303867,-2.059064,-0.031244,-1.591003
832638.390341,-8.788671090000001,0.48229884,4.57672797,0.240368,-0.94184,-0.024074,-128.892242,99.997116,-163.841309,60.187684,24.830138,13.556826,11.954291,-1.0,-1.0,100.570572,0.303867,-2.078449,-0.032767,-1.586755
832638.430311,-8.50126752,-0.29278926000000005,5.56887213,0.163705,-1.031723,0.009183,-125.228546,98.871475,-162.143021,60.187684,24.830138,13.556826,11.954291,-1.0,-1.0,100.570572,0.303867,-2.11738,-0.036375,-1.57866
832638.450297,-8.2626687,-0.16495515000000002,4.86952704,0.125074,-1.124569,0.056692,-125.03334,98.801193,-160.972305,60.187684,24.830138,13.556826,11.954291,-1.0,-1.0,100.570572,0.303867,-2.138955,-0.038137,-1.576325
832638.450297,-8.2626687,-0.16495515000000002,4.86952704,0.125074,-1.124569,0.056692,-125.03334,98.801193,-160.972305,60.187684,24.830138,13.556826,11.954291,-1.0,-1.0,100.570572,0.303867,-2.138955,-0.038137,-1.576325
832638.490268,-8.00894286,0.76311009,5.01592167,0.078216,-1.33902,0.056021,-124.08284,99.104431,-158.69487,60.187684,24.830138,13.556826,11.954291,-1.0,-1.0,100.570572,0.303867,-2.187277,-0.041713,-1.574113
832638.510254,-7.6133153700000005,0.32811507,5.32053198,0.07833,-1.441342,0.058392,-123.68631,99.148102,-156.866638,60.187684,24.830138,13.556826,11.954291,-1.0,-1.0,100.570572,0.303867,-2.214613,-0.043346,-1.573508
832638.530239,-7.560027450000001,0.26255484,5.6248578,0.093926,-1.473582,0.078688,-123.171539,99.172775,-155.487946,60.187684,24.830138,13.556826,11.954291,-1.0,-1.0,100.570572,0.303867,-2.243537,-0.04526,-1.57302
832638.530239,-7.560027450000001,0.26255484,5.6248578,0.093926,-1.473582,0.078688,-123.171539,99.172775,-155.487946,60.187684,24.830138,13.556826,11.954291,-1.0,-1.0,100.570572,0.303867,-2.243537,-0.04526,-1.57302
832638.530239,-7.560027450000001,0.26255484,5.6248578,0.093926,-1.473582,0.078688,-123.171539,99.172775,-155.487946,60.187684,24.830138,13.556826,11.954291,-1.0,-1.0,100.570572,0.303867,-2.243537,-0.04526,-1.57302
832638.590196,-6.73763553,0.5174775,6.78524346,0.1538,-1.407228,0.06895,-121.826721,99.669601,-151.186981,60.187684,24.830138,13.556826,11.954291,-1.0,-1.0,100.570572,0.303867,-2.330776,-0.053099,-1.569882
832638.610182,-6.70785237,0.46718163,7.07069484,0.169198,-1.405139,0.056878,-121.001343,100.017136,-150.169647,60.187684,24.830138,13.556826,11.954291,-1.0,-1.0,100.570572,0.303867,-2.358724,-0.056132,-1.568503
832638.610182,-6.70785237,0.46718163,7.07069484,0.169198,-1.405139,0.056878,-121.001343,100.017136,-150.169647,60.187684,24.830138,13.556826,11.954291,-1.0,-1.0,100.570572,0.303867,-2.358724,-0.056132,-1.568503
832638.650153,-6.49439658,0.81610371,7.106471910000001,0.227628,-1.365572,0.014667,-120.397064,100.165359,-149.09288,60.187684,24.830138,13.556826,11.954291,-1.0,-1.0,100.570572,0.303867,-2.413831,-0.062968,-1.564729
832638.670139,-6.1447191299999995,0.77298876,7.19538975,0.252972,-1.34156,0.044095,-119.707062,100.656815,-147.7052,60.187684,24.830138,13.556826,11.954291,-1.0,-1.0,100.570572,0.303867,-2.440851,-0.066661,-1.561998
832638.690125,-5.805224460000001,0.43035489,7.418871360000001,0.246758,-1.378768,0.067353,-118.888718,100.828979,-146.509506,60.187684,24.830138,13.556826,11.954291,-1.0,-1.0,100.570572,0.303867,-2.467693,-0.071089,-1.559572
832638.710111,-5.200781310000001,0.33889626,7.556132880000001,0.230014,-1.479629,0.132948,-118.128998,101.143417,-145.336807,60.187684,24.830138,13.556826,11.954291,-1.0,-1.0,100.570572,0.303867,-2.495693,-0.075792,-1.557835
832638.730096,-5.270236110000001,0.6514428600000001,7.47395451,0.233818,-1.543191,0.204007,-117.157303,101.62912,-144.070435,60.187684,24.830138,13.556826,11.954291,-1.0,-1.0,100.570572,0.303867,-2.525599,-0.081285,-1.557577
832638.750082,-5.3133510600000005,0.7695454500000001,7.64595324,0.238827,-1.627516,0.186492,-116.342041,102.065475,-142.53334,60.187684,24.830138,13.556826,11.954291,-1.0,-1.0,100.570572,0.303867,-2.556871,-0.08731,-1.558268
832638.770068,-5.05574046,1.015335,8.03603808,0.243102,-1.699833,0.179536,-115.356705,102.592255,-141.258759,60.187684,24.830138,13.556826,11.954291,-1.0,-1.0,100.570572,0.303867,-2.589708,-0.093274,-1.558762
832638.790053,-5.13148347,0.9174410100000001,7.82961606,0.256078,-1.744597,0.144644,-114.512115,103.251923,-139.769684,60.187684,24.830138,13.556826,11.954291,-1.0,-1.0,100.570572,0.303867,-2.623907,-0.099143,-1.559076
832638.810039,-4.01090679,0.9225324,8.354578590000001,0.2485,-1.818689,0.184736,-113.723267,103.51358,-138.539276,60.187684,24.830138,13.556826,11.954291,-1.0,-1.0,100.570572,0.303867,-2.659485,-0.104943,-1.559366
832638.830025,-4.04983287,1.1091970800000002,8.85902841,0.226781,-1.830138,0.177091,-113.025116,103.757492,-137.42366,60.187684,24.830138,13.556826,11.954291,-1.0,-1.0,100.570572,0.303867,-2.696207,-0.110824,-1.560456
832638.830025,-4.04983287,1.1091970800000002,8.85902841,0.226781,-1.830138,0.177091,-113.025116,103.757492,-137.42366,60.187684,24.830138,13.556826,11.954291,-1.0,-1.0,100.570572,0.303867,-2.696207,-0.110824,-1.560456
832638.869996,-3.5341506000000003,1.0517104800000001,9.35809254,0.121855,-1.858424,0.110848,-112.856339,104.253143,-135.638565,60.187684,24.830138,13.556826,11.954291,-1.0,-1.0,100.570572,0.303867,-2.770116,-0.119827,-1.562764
832638.889982,-2.9606972400000005,1.21247676,9.56930184,0.068789,-1.839528,0.126236,-113.19725,105.005524,-134.602158,60.187684,24.830138,13.556826,11.954291,-1.0,-1.0,100.570572,0.303867,-2.807176,-0.122532,-1.564028
832638.909967,-1.84640877,1.46589849,9.69878403,0.005474,-1.760695,0.229211,-112.883652,105.903885,-133.486069,60.187684,24.830138,13.556826,11.954291,-1.0,-1.0,100.570572,0.303867,-2.843802,-0.124496,-1.566499
832638.929953,-2.3336518500000003,1.15844328,10.35097245,-0.067913,-1.691543,0.237017,-111.957596,106.078186,-131.975922,60.187684,24.830138,13.556826,11.954291,-1.0,-1.0,100.569893,0.362,-2.879402,-0.125331,-1.571079
832638.949939,-1.8064428300000002,1.1883834,10.176442740000002,-0.138943,-1.597791,0.258785,-110.576859,106.265274,-131.137009,60.187684,24.830138,13.556826,11.954291,-1.0,-1.0,100.569893,0.362,-2.913689,-0.124733,-1.576154
832638.969925,-1.8588380400000002,1.50422616,9.998312760000001,-0.123234,-1.456582,0.290232,-109.486725,106.221512,-129.745377,60.187684,24.830138,13.556826,11.954291,-1.0,-1.0,100.569893,0.362,-2.945831,-0.123027,-1.581929
832638.98991,-1.8735039900000001,1.5989711400000002,9.94472073,-0.10712,-1.265667,0.326681,-107.509232,105.829422,-128.863068,60.187684,24.830138,13.556826,11.954291,-1.0,-1.0,100.569893,0.362,-2.974802,-0.1216,-1.588238
832639.009896,-1.88936676,1.56739275,10.23975648,-0.185078,-0.981864,0.216336,-105.080276,105.482605,-127.567368,60.187684,24.830138,13.556826,11.954291,-1.0,-1.0,100.569893,0.362,-2.999989,-0.120505,-1.595175
832639.029882,-2.4683627699999997,-0.39727557,22.591321470000004,-1.473942,-1.082319,0.12003,-105.49115,105.711029,-127.315323,60.187684,24.830138,13.556826,11.954291,-1.0,-1.0,100.569893,0.362,-3.017362,-0.112755,-1.599693
832639.049867,0.6692578200000001,2.70517617,-5.80388049,-0.44904,-0.611753,0.296494,-106.206314,104.929718,-126.591034,60.187684,24.830138,13.556826,11.954291,-1.0,-1.0,100.569893,0.362,-3.034697,-0.096299,-1.605348
832639.069853,0.39352815,1.7441689500000002,4.56385725,-0.297695,-0.413978,0.287664,-103.597397,103.317871,-125.373962,60.187684,24.830138,13.556826,11.954291,-1.0,-1.0,100.569893,0.362,-3.050239,-0.086692,-1.612815
832639.089839,0.83930436,0.8071177500000001,9.155408130000001,-0.297507,-0.566219,0.115485,-101.289505,102.51799,-124.061829,60.187684,24.830138,13.556826,11.954291,-1.0,-1.0,100.569893,0.362,-3.064821,-0.078298,-1.617753
832639.109825,-0.7831715400000001,-0.10492776000000001,11.88169542,-0.397096,-0.600508,-0.042339,-100.337372,102.084473,-123.705872,60.187684,24.830138,13.556826,11.954291,-1.0,-1.0,100.569893,0.362,-3.079228,-0.069897,-1.619541
832639.12981,-0.12349809,1.7098928100000002,9.93334113,-0.291521,-0.573908,-0.016744,-99.830292,101.567108,-123.079178,60.187684,24.830138,13.556826,11.954291,-1.0,-1.0,100.569893,0.362,-3.09357,-0.062105,-1.619055
832639.149796,-0.61147692,1.2040990200000001,10.09650105,-0.254474,-0.512655,0.000987,-100.008362,101.026245,-122.962296,60.187684,24.830138,13.556826,11.954291,-1.0,-1.0,100.569893,0.362,-3.105793,-0.055778,-1.618927
832639.169782,-0.30926025,0.58289058,10.09485297,-0.282701,-0.51036,0.007091,-99.023544,100.929306,-122.737991,60.187691,24.830145,13.967055,10.50416,-1.0,-1.0,100.569893,0.362,-3.116391,-0.050501,-1.619048
832639.209753,-0.63527598,0.6168626100000001,10.141862490000001,-0.245335,-0.464299,-0.042843,-96.962906,101.426239,-121.374695,60.187691,24.830145,13.967055,10.50416,-1.0,-1.0,100.569893,0.362,-3.137484,-0.039332,-1.619191
832639.229739,-0.48993102000000005,0.75413394,9.60073308,-0.185934,-0.383403,-0.058851,-96.368042,101.970367,-120.120529,60.187691,24.830145,13.967055,10.50416,-1.0,-1.0,100.569893,0.362,3.136733,-0.034756,-1.618201
832639.249725,-0.2459367,0.41389371,9.6136038,-0.15989,-0.339425,-0.061701,-96.432053,102.475342,-119.499084,60.187691,24.830145,13.967055,10.50416,-1.0,-1.0,100.569893,0.362,3.129246,-0.030993,-1.616887
832639.26971,-1.2467529000000002,0.98719992,10.344988350000001,-0.064237,-0.017218,-0.02853,-96.940186,103.080368,-118.868256,60.187691,24.830145,13.967055,10.50416,-1.0,-1.0,100.569893,0.362,3.123548,-0.028467,-1.615799
832639.289696,0.18427104,-0.06885639,8.873547210000002,-0.012616,-0.086979,-0.064773,-97.838257,103.298813,-118.910706,60.187691,24.830145,13.967055,10.50416,-1.0,-1.0,100.569893,0.362,3.124411,-0.028439,-1.615384
832639.309682,1.14302196,-0.13831119,8.983870470000001,0.007366,0.002311,0.004185,-99.976974,103.281021,-119.599762,60.187691,24.830145,13.967055,10.50416,-1.0,-1.0,100.569893,0.362,3.124157,-0.028257,-1.614123
832639.329667,0.4047606,0.00359046,9.16977978,0.009131,0.018039,0.034232,-101.409698,103.13446,-120.454865,60.187691,24.830145,13.967055,10.50416,-1.0,-1.0,100.569893,0.362,3.123972,-0.02833,-1.61437
832639.349653,-0.1793268,-0.29024847,9.41871834,0.013311,-0.008322,-0.003526,-101.409698,103.13446,-120.454865,60.187691,24.830145,13.967055,10.50416,-1.0,-1.0,100.569893,0.362,3.123657,-0.028306,-1.614747
832639.369639,0.37960776,-0.42721569,9.8478666,0.008322,-0.016265,0.030517,-101.614273,102.468567,-121.448349,60.187691,24.830145,13.967055,10.50416,-1.0,-1.0,100.569893,0.362,3.123589,-0.028435,-1.614798
832639.389625,0.01466595,-0.38335518,9.87691401,0.00102,-0.008363,0.010057,-101.612747,101.935455,-122.167526,60.187691,24.830145,13.967055,10.50416,-1.0,-1.0,100.569893,0.362,3.123309,-0.028496,-1.615209
832639.40961,0.13037490000000002,-0.20252745000000003,9.96103476,0.001106,-0.008631,0.010312,-101.727188,101.78009,-122.362137,60.187691,24.830145,13.967055,10.50416,-1.0,-1.0,100.569893,0.362,3.123022,-0.028396,-1.615347
832639.429597,-0.008829,-0.07184844,9.903253860000001,0.000147,-0.003931,-0.000703,-101.491333,102.059311,-122.061325,60.187691,24.830145,13.967055,10.50416,-1.0,-1.0,100.569893,0.362,3.122739,-0.028299,-1.615424
832639.429597,-0.008829,-0.07184844,9.903253860000001,0.000147,-0.003931,-0.000703,-101.491333,102.059311,-122.061325,60.187691,24.830145,13.967055,10.50416,-1.0,-1.0,100.569893,0.362,3.122739,-0.028299,-1.615424
832639.469569,0.07020036,0.31359627000000007,9.746235,0.005572,-0.001823,-0.011742,-100.863312,103.268723,-120.694733,60.187691,24.830145,13.967055,10.50416,-1.0,-1.0,100.569893,0.362,3.1225,-0.028271,-1.615069
832639.489554,0.14010642,0.44367687000000006,9.75910572,0.002514,-0.01405,-0.005726,-99.91301,103.513382,-119.693192,60.187691,24.830145,13.967055,10.50416,-1.0,-1.0,100.569893,0.362,3.122409,-0.028309,-1.614776
832639.509539,0.16884972000000004,0.36987624,9.791586630000001,0.00152,-0.015327,0.009487,-99.338882,103.686417,-119.326279,60.187691,24.830145,13.967055,10.50416,-1.0,-1.0,100.569893,0.362,3.122124,-0.0283,-1.614667
832639.529526,0.16211025,0.3097017,9.82062423,0.000655,-0.012325,0.018127,-98.500015,103.496307,-119.505112,60.187691,24.830145,13.967055,10.50416,-1.0,-1.0,100.569893,0.362,3.121778,-0.028231,-1.614843
832639.549511,0.16615197,0.34024023,9.79697232,0.002425,-0.001769,0.012956,-97.651398,103.487991,-119.134949,60.187691,24.830145,13.967055,10.50416,-1.0,-1.0,100.569893,0.362,3.121623,-0.028183,-1.615112
832639.569497,0.08487612,0.37347651000000004,9.80895033,0.004478,-0.005002,0.00012,-97.404358,103.457581,-118.732391,60.187691,24.830145,13.967055,10.50416,-1.0,-1.0,100.569893,0.362,3.121558,-0.028159,-1.615214
832639.589483,0.08308089000000002,0.42571475999999997,9.803417490000001,0.005373,0.000282,-0.000698,-96.468246,103.55188,-118.993439,60.187691,24.830145,13.967055,10.50416,-1.0,-1.0,100.569893,0.362,3.121575,-0.028173,-1.615132
832639.609469,0.15373251000000002,0.51851736,9.76030254,0.001111,-0.001865,-0.000606,-96.433334,103.16922,-119.224228,60.187691,24.830145,13.967055,10.50416,-1.0,-1.0,100.569893,0.362,3.121569,-0.028159,-1.615025
832639.629454,0.27857457,0.48783168000000005,9.84113694,0.002787,-0.001887,0.010275,-96.048004,103.004471,-118.869919,60.187691,24.830145,13.967055,10.50416,-1.0,-1.0,100.569893,0.362,3.121564,-0.028145,-1.614983
832639.64944,0.11032326000000002,0.48858705,9.71644203,0.003333,-0.003973,0.010228,-96.036957,103.122116,-118.793961,60.187691,24.830145,13.967055,10.50416,-1.0,-1.0,100.569893,0.362,3.121533,-0.028114,-1.615142
832639.669426,0.028586340000000002,0.34862778,9.795334050000001,0.003873,0.001511,0.000846,-96.678421,103.290405,-118.990448,60.187691,24.830145,13.967055,10.50416,-1.0,-1.0,100.569893,0.362,3.121508,-0.028107,-1.615184
832639.689412,0.15253569,0.28905165000000005,9.82241946,0.002721,-0.00516,-7e-05,-96.686646,103.503143,-118.803802,60.187691,24.830145,13.967055,10.50416,-1.0,-1.0,100.569893,0.362,3.121504,-0.028117,-1.615089
832639.709397,0.19414971,0.32751666,9.74219328,0.003019,0.004547,0.007222,-97.13295,103.596848,-119.100616,60.187691,24.830145,13.967055,10.503875,-1.0,-1.0,100.569893,0.362,3.121482,-0.0281,-1.615038
832639.729383,0.11451213,0.27647523,9.81538569,0.000679,-0.005077,0.004943,-97.81337,103.51918,-118.854767,60.187691,24.830145,13.967055,10.503875,-1.0,-1.0,100.569893,0.362,3.121465,-0.028081,-1.615101
832639.729383,0.11451213,0.27647523,9.81538569,0.000679,-0.005077,0.004943,-97.81337,103.51918,-118.854767,60.187691,24.830145,13.967055,10.503875,-1.0,-1.0,100.569893,0.362,3.121465,-0.028081,-1.615101
832639.749369,0.11106882000000001,0.27243351000000005,9.811343970000001,0.002567,0.002035,0.002504,-98.000717,103.731018,-118.873474,60.187691,24.830145,13.967055,10.503875,-1.0,-1.0,100.569893,0.362,3.121449,-0.028057,-1.615121
832639.78934,0.13472073,0.26105391,9.80041563,0.005287,-0.00072,0.007079,-98.991104,103.82605,-119.272812,60.187691,24.830145,13.967055,10.503875,-1.0,-1.0,100.569893,0.362,3.121401,-0.028051,-1.615153
832639.809326,0.11211849,0.25611948,9.78470001,0.000356,-0.002702,0.004445,-99.385483,103.890366,-119.052536,60.187691,24.830145,13.967055,10.503875,-1.0,-1.0,100.569893,0.362,3.121371,-0.02804,-1.615193
832639.849297,0.12977649,0.23096664,9.77646942,0.003614,-0.00644,0.006563,-99.963196,103.88533,-119.649918,60.187691,24.830145,13.967055,10.503875,-1.0,-1.0,100.569893,0.362,3.12134,-0.027995,-1.615215
832639.849297,0.12977649,0.23096664,9.77646942,0.003614,-0.00644,0.006563,-99.963196,103.88533,-119.649918,60.187691,24.830145,13.967055,10.503875,-1.0,-1.0,100.569893,0.362,3.12134,-0.027995,-1.615215
832639.889269,0.12498921000000002,0.21809592,9.77392863,0.003978,-0.004239,0.005566,-100.712646,103.648697,-120.11676,60.187691,24.830145,13.967055,10.503875,-1.0,-1.0,100.569893,0.362,3.121294,-0.027991,-1.615271
832639.909255,0.12034908,0.19310004,9.78141366,0.004505,0.000696,0.005629,-100.681061,103.591125,-120.185593,60.187691,24.830145,13.967055,10.503875,-1.0,-1.0,100.569893,0.362,3.121293,-0.027985,-1.615283
832639.92924,0.13187583,0.21584943000000004,9.78021684,0.001121,-0.000837,0.004593,-100.902588,103.478317,-120.718735,60.187691,24.830145,13.967055,10.503875,-1.0,-1.0,100.569893,0.362,3.121284,-0.027985,-1.615306
832639.949225,0.12948219000000002,0.20147778000000002,9.76149936,0.004922,-7.1e-05,0.003875,-101.035782,103.498322,-120.71608,60.187691,24.830145,13.967055,10.503875,-1.0,-1.0,100.569893,0.362,3.121309,-0.027971,-1.615313
832639.969212,0.11630736000000001,0.19564083,9.783650340000001,0.002345,-0.000166,0.004899,-100.943939,103.503128,-120.60257,60.187691,24.830145,13.967055,10.503875,-1.0,-1.0,100.569893,0.362,3.121326,-0.027966,-1.615324
832639.989198,0.13142457,0.20941407000000004,9.75776175,0.002058,0.000897,0.003855,-100.878601,103.526016,-120.873169,60.187691,24.830145,13.967055,10.503875,-1.0,-1.0,100.569893,0.362,3.121339,-0.027954,-1.615323
832640.009183,0.14400099,0.21450546,9.76568823,0.005304,-0.002409,0.005182,-101.134583,103.585754,-120.649582,60.187691,24.830145,13.967055,10.503875,-1.0,-1.0,100.569664,0.380493,3.121403,-0.0279,-1.615319
832640.029169,0.12663729,0.23216346000000002,9.77377167,0.002121,0.005074,0.004333,-100.805893,103.373108,-120.569672,60.187691,24.830145,13.967055,10.503875,-1.0,-1.0,100.569664,0.380493,3.121455,-0.027867,-1.615318
832640.029169,0.12663729,0.23216346000000002,9.77377167,0.002121,0.005074,0.004333,-100.805893,103.373108,-120.569672,60.187691,24.830145,13.967055,10.503875,-1.0,-1.0,100.569664,0.380493,3.121455,-0.027867,-1.615318
832640.069141,0.1332198,0.27662238,9.77751909,0.003919,0.002247,0.005229,-100.764435,103.375,-120.313187,60.187691,24.830145,13.967055,10.503875,-1.0,-1.0,100.569664,0.380493,3.121559,-0.027795,-1.615312
832640.089126,0.12962934,0.27707364,9.77482134,0.001382,-0.000612,0.004645,-100.575287,103.733032,-120.317032,60.187691,24.830145,13.967055,10.503875,-1.0,-1.0,100.569664,0.380493,3.121579,-0.027795,-1.61532
832640.109112,0.13831119,0.31000581,9.77617512,0.003661,-0.001775,0.004873,-100.47496,103.85257,-120.393723,60.187691,24.830145,13.967055,10.503875,-1.0,-1.0,100.569664,0.380493,3.121583,-0.027777,-1.615343
832640.129098,0.13337676,0.30850488,9.77661657,0.002711,-0.000234,0.003709,-100.243088,103.879013,-120.37439,60.187691,24.830145,13.967055,10.503875,-1.0,-1.0,100.569664,0.380493,3.121584,-0.027766,-1.615341
832640.149083,0.14804271000000002,0.31554846000000003,9.77692068,0.003285,-0.000184,0.003782,-100.093933,103.929108,-119.994629,60.187691,24.830145,13.967055,10.503875,-1.0,-1.0,100.569664,0.380493,3.121598,-0.027776,-1.615323
832640.169069,0.1360647,0.3034233,9.775871010000001,0.004177,-0.00339,0.004389,-100.05542,103.946884,-120.237762,60.187691,24.830145,13.967055,10.503875,-1.0,-1.0,100.569664,0.380493,3.121608,-0.027769,-1.615316
832640.189055,0.14190165000000002,0.29893032,9.775419750000001,0.003311,0.002184,0.004633,-100.194855,103.826981,-120.147934,60.187691,24.830145,13.967055,10.503875,-1.0,-1.0,100.569664,0.380493,3.121604,-0.02777,-1.61532
832640.209041,0.11975067000000002,0.29278926000000005,9.771829290000001,0.002729,-0.002935,0.004114,-100.155914,103.777191,-120.396484,60.187691,24.830145,13.967055,10.503875,-1.0,-1.0,100.569664,0.380493,3.121635,-0.027779,-1.615328
832640.229026,-0.05299362,0.12948219000000002,9.55942317,-0.014423,0.03199,-0.029294,-99.863327,103.812225,-120.329926,60.187691,24.830145,13.967055,10.503875,-1.0,-1.0,100.569664,0.380493,3.121647,-0.02785,-1.61515
832640.249012,0.16974243,0.37871505,9.04464342,0.015679,-0.018736,-0.008337,-99.668716,103.817932,-119.99939,60.187691,24.830145,13.967055,10.503875,-1.0,-1.0,100.569664,0.380493,3.121681,-0.02783,-1.614643
832640.268998,0.40117014,0.28979721,9.90550035,0.00794,0.008965,0.039397,-99.926132,103.745956,-119.476715,60.187691,24.830145,13.967055,10.503875,-1.0,-1.0,100.569664,0.380493,3.121704,-0.027732,-1.614571
832640.288984,0.14833701000000002,0.24444558,10.094107410000001,-0.012037,0.002839,0.036222,-100.267914,103.543961,-119.937378,60.187691,24.830145,13.967055,10.503875,-1.0,-1.0,100.569664,0.380493,3.121698,-0.027874,-1.615361
832640.308969,0.12469491,0.56088675,9.40659318,0.016838,-0.003055,0.01969,-100.683563,103.341751,-119.833389,60.187691,24.830145,13.967055,10.503875,-1.0,-1.0,100.569664,0.380493,3.121691,-0.027707,-1.615879
832640.328955,-0.036826740000000004,0.23381154,10.1194074,0.002603,0.000871,-0.005365,-100.936417,103.65567,-120.343552,60.187691,24.830145,13.967055,10.503875,-1.0,-1.0,100.569664,0.380493,3.121714,-0.027757,-1.616182
832640.328955,-0.036826740000000004,0.23381154,10.1194074,0.002603,0.000871,-0.005365,-100.936417,103.65567,-120.343552,60.187691,24.830145,13.967055,10.503875,-1.0,-1.0,100.569664,0.380493,3.121714,-0.027757,-1.616182
832640.368927,0.24923286000000003,0.3501189,9.68156748,0.010259,0.000464,0.004706,-100.941284,103.40799,-119.602356,60.187691,24.830145,13.967055,10.503875,-1.0,-1.0,100.569664,0.380493,3.121665,-0.027762,-1.615209
832640.388912,0.25925868,0.17139051000000002,9.98258733,-0.001581,-0.005819,0.011824,-101.144913,103.009171,-119.968842,60.187691,24.830145,13.967055,10.503875,-1.0,-1.0,100.569664,0.380493,3.121651,-0.027804,-1.615327
832640.408898,0.18112203000000002,0.29233800000000004,9.731716200000001,0.004189,-0.000164,0.013864,-101.457855,103.06665,-119.836624,60.187691,24.830145,13.967055,10.503875,-1.0,-1.0,100.569664,0.380493,3.121656,-0.027778,-1.615456
832640.428883,-0.08188407,0.1966905,9.82856052,0.005182,0.002639,-0.002176,-101.236023,103.240036,-119.724548,60.187691,24.830145,13.967055,10.503875,-1.0,-1.0,100.569664,0.380493,3.121623,-0.027775,-1.615582
832640.448869,0.27273762,0.23007393000000004,9.84577707,0.001307,-0.003914,0.002425,-101.229034,103.077988,-120.06781,60.187691,24.830145,13.967055,10.503875,-1.0,-1.0,100.569664,0.380493,3.121656,-0.027788,-1.615468
832640.468854,0.14280417,0.25222491,9.759409830000001,0.003639,-0.001914,0.007233,-101.364304,103.135056,-119.97818,60.187691,24.830145,13.967055,10.503875,-1.0,-1.0,100.569664,0.380493,3.121645,-0.027789,-1.615451
832640.48884,0.07439904,0.23096664,9.81074556,0.006057,-0.0003,0.003728,-101.251846,103.272903,-119.648605,60.187691,24.830145,13.967055,10.503875,-1.0,-1.0,100.569664,0.380493,3.121626,-0.027779,-1.615516
832640.508826,0.19100070000000002,0.25207776000000004,9.81389457,-0.000202,0.000774,0.003557,-101.250397,103.0177,-120.138382,60.187691,24.830145,13.967055,10.503875,-1.0,-1.0,100.569664,0.380493,3.121651,-0.027798,-1.615512
832640.548797,0.13127742,0.25207776000000004,9.84592422,0.001292,-0.002725,0.004763,-101.037323,103.314529,-119.611755,60.187691,24.830145,13.967055,10.503875,-1.0,-1.0,100.569664,0.380493,3.121648,-0.02779,-1.61549
832640.568783,0.12888378,0.31988447999999997,9.73844586,0.00306,0.001663,0.005627,-100.942047,103.467636,-119.802109,60.187691,24.830145,13.967055,10.503875,-1.0,-1.0,100.569664,0.380493,3.121645,-0.027772,-1.615493
832640.588769,0.12544047,0.28965006000000004,9.80086689,0.005406,-0.000902,0.004345,-100.639069,103.456024,-119.710938,60.187691,24.830145,13.967055,10.503875,-1.0,-1.0,100.569664,0.380493,3.12165,-0.027777,-1.61548
832640.608754,0.14804271000000002,0.2951829,9.80865603,0.001513,-0.001325,0.005631,-100.665405,103.465851,-119.50946,60.187691,24.830145,13.967055,10.503875,-1.0,-1.0,100.569664,0.380493,3.121683,-0.027784,-1.615492
832640.62874,0.10673280000000002,0.32167971,9.75671208,0.003347,0.000256,0.005107,-100.77005,103.583694,-119.811813,60.187691,24.830145,13.967055,10.503875,-1.0,-1.0,100.569664,0.380493,3.121679,-0.027778,-1.615501
832640.62874,0.10673280000000002,0.32167971,9.75671208,0.003347,0.000256,0.005107,-100.77005,103.583694,-119.811813,60.187691,24.830145,13.967055,10.503875,-1.0,-1.0,100.569664,0.380493,3.121679,-0.027778,-1.615501
832640.62874,0.10673280000000002,0.32167971,9.75671208,0.003347,0.000256,0.005107,-100.77005,103.583694,-119.811813,60.187691,24.830145,13.967055,10.503875,-1.0,-1.0,100.569664,0.380493,3.121679,-0.027778,-1.615501
832640.688698,0.10642868999999999,0.29697813,9.75416148,0.004323,-0.002946,0.005563,-100.801086,103.409927,-119.885376,60.187691,24.830145,13.967055,10.503875,-1.0,-1.0,100.569664,0.380493,3.121678,-0.027753,-1.615512
832640.708683,0.12993345,0.26629245,9.77646942,0.005193,-0.000216,0.00359,-100.942123,103.661713,-120.134384,60.187691,24.830145,13.967055,10.503875,-1.0,-1.0,100.569664,0.380493,3.121681,-0.027765,-1.615525
832640.728669,0.14654178,0.28829628,9.75446559,0.002655,7.1e-05,0.004982,-101.126633,103.551025,-120.165665,60.187691,24.830145,13.967055,10.503875,-1.0,-1.0,100.569664,0.380493,3.121694,-0.02778,-1.615531
832640.748655,0.13307265000000001,0.24578955000000002,9.80041563,0.005865,-0.002187,0.003884,-101.257629,103.319916,-119.77597,60.187691,24.830145,13.967055,10.503875,-1.0,-1.0,100.569664,0.380493,3.121705,-0.027785,-1.615537
832640.76864,0.12693159,0.24773193000000002,9.80176941,0.002262,0.001051,0.004133,-101.000381,103.426208,-119.68869,60.187691,24.830145,13.967055,10.503875,-1.0,-1.0,100.569664,0.380493,3.121711,-0.027795,-1.615546
832640.788626,0.13876245,0.26255484,9.77003406,0.003221,-0.000126,0.003638,-101.000381,103.426208,-119.68869,60.187691,24.830145,13.967055,10.503875,-1.0,-1.0,100.569664,0.380493,3.121717,-0.027785,-1.615546
832640.808612,0.13651596,0.24160068,9.79443153,0.00453,-0.002014,0.004412,-101.184952,103.42453,-119.728073,60.187691,24.830145,13.967055,10.503875,-1.0,-1.0,100.569664,0.380493,3.121737,-0.027786,-1.615538
832640.828598,0.12498921000000002,0.26030835,9.7784118,0.002082,0.001708,0.002753,-101.149261,103.583939,-119.978058,60.187691,24.830145,13.967055,10.503875,-1.0,-1.0,100.569664,0.380493,3.121757,-0.02778,-1.615547
832640.848583,0.12903093000000002,0.26509562999999997,9.759704130000001,0.00434,-0.002651,0.003932,-100.947266,103.512436,-119.850388,60.187691,24.830145,13.967055,10.503875,-1.0,-1.0,100.569664,0.380493,3.121778,-0.027765,-1.615542
832640.868569,0.12993345,0.26210358,9.787250610000001,0.005049,-0.000513,0.002657,-101.135315,103.416641,-119.877808,60.187691,24.830145,13.967055,10.503875,-1.0,-1.0,100.569664,0.380493,3.121799,-0.027754,-1.615536
832640.888555,0.13950801,0.27797616,9.79712928,0.001402,0.001433,0.003511,-100.938553,103.466537,-119.76944,60.187691,24.830145,13.967055,10.503875,-1.0,-1.0,100.569664,0.380493,3.121808,-0.027747,-1.615523
832640.908541,0.13696722,0.2894931,9.78170796,0.00539,-0.003387,0.00523,-100.936844,103.529068,-119.789383,60.187691,24.830145,13.967055,10.503875,-1.0,-1.0,100.569664,0.380493,3.121835,-0.027728,-1.615521
832640.928526,0.13472073,0.28021284,9.803113380000001,0.003614,0.002212,0.004836,-100.82016,103.375732,-119.84404,60.187691,24.830145,13.967055,10.503875,-1.0,-1.0,100.569664,0.380493,3.121877,-0.027713,-1.615532
832640.928526,0.13472073,0.28021284,9.803113380000001,0.003614,0.002212,0.004836,-100.82016,103.375732,-119.84404,60.187691,24.830145,13.967055,10.503875,-1.0,-1.0,100.569664,0.380493,3.121877,-0.027713,-1.615532
832640.968498,0.1300806,0.28425456,9.8043102,0.005207,-0.001476,0.003385,-100.735733,103.610077,-120.068497,60.187691,24.830145,13.967055,10.503875,-1.0,-1.0,100.569664,0.380493,3.121954,-0.027709,-1.615536
832640.988484,0.13756563000000002,0.29443734,9.78964425,0.003193,0.002466,0.003742,-100.767914,103.332321,-119.863007,60.187691,24.830145,13.967055,10.503875,-1.0,-1.0,100.569664,0.380493,3.121971,-0.027709,-1.615536
832641.008469,0.13651596,0.27363033000000003,9.79457868,0.003606,-0.001992,0.003563,-100.776047,103.496033,-119.730637,60.187691,24.830145,13.967055,10.503875,-1.0,-1.0,100.569664,0.380493,3.121976,-0.027712,-1.615541
832641.008469,0.13651596,0.27363033000000003,9.79457868,0.003606,-0.001992,0.003563,-100.776047,103.496033,-119.730637,60.187691,24.830145,13.967055,10.503875,-1.0,-1.0,100.569664,0.380493,3.121976,-0.027712,-1.615541
832641.048441,0.12993345,0.27841761000000004,9.7812567,0.000825,0.000915,0.003021,-100.79216,103.42598,-119.903275,60.187691,24.830145,13.967055,10.503875,-1.0,-1.0,100.569664,0.380493,3.122003,-0.027728,-1.615542
832641.068427,0.1300806,0.26839179,9.80385894,0.00371,-0.001662,0.006093,-100.877731,103.371994,-120.144745,60.187691,24.830145,13.967055,10.503875,-1.0,-1.0,100.569664,0.380493,3.122021,-0.027714,-1.615545
832641.088413,0.13337676,0.26075961000000003,9.79847325,0.002451,0.001154,0.002659,-101.04184,103.031509,-119.857376,60.187691,24.830145,13.967055,10.503875,-1.0,-1.0,100.569664,0.380493,3.122051,-0.027706,-1.615561
832641.108398,0.14205861,0.26001405,9.78934014,0.002834,0.002435,0.004938,-100.940521,103.333908,-119.944641,60.187691,24.830145,13.967055,10.503875,-1.0,-1.0,100.569664,0.380493,3.122069,-0.0277,-1.615546
832641.128384,0.12349809,0.25985709,9.81299205,0.004883,-0.002891,0.004444,-100.65152,103.404251,-119.552246,60.187691,24.830145,13.967055,10.503875,-1.0,-1.0,100.569664,0.380493,3.122117,-0.02768,-1.615542
832641.14837,0.12214431,0.26105391,9.810304109999999,0.002571,0.002167,0.004088,-100.937195,103.287994,-120.276306,60.187691,24.830145,13.967055,10.503875,-1.0,-1.0,100.569664,0.380493,3.122132,-0.027681,-1.615544
832641.168355,0.13621185,0.27781920000000004,9.77692068,0.00467,-0.000994,0.005546,-100.500778,103.523193,-119.469025,60.187691,24.830145,13.967055,10.503875,-1.0,-1.0,100.569664,0.380493,3.122158,-0.027683,-1.61555
832641.188341,0.12469491,0.2689902,9.79727643,0.004892,-0.001957,0.004335,-100.900589,103.385361,-120.070923,60.187691,24.830145,13.967055,10.503875,-1.0,-1.0,100.569664,0.380493,3.122178,-0.027667,-1.615547
832641.208327,0.12589173,0.26853894,9.7986204,0.00061,0.001372,0.004112,-100.606522,103.517349,-119.703125,60.187691,24.830145,13.967055,10.503875,-1.0,-1.0,100.569664,0.380493,3.122187,-0.027673,-1.615552
832641.228313,0.12753,0.2806641,9.76988691,0.004229,-0.002655,0.004489,-100.811172,103.439224,-119.539154,60.187691,24.830145,13.967055,10.503875,-1.0,-1.0,100.569664,0.380493,3.122214,-0.027671,-1.615562
832641.228313,0.12753,0.2806641,9.76988691,0.004229,-0.002655,0.004489,-100.811172,103.439224,-119.539154,60.187691,24.830145,13.967055,10.503875,-1.0,-1.0,100.569664,0.380493,3.122214,-0.027671,-1.615562
832641.268284,0.1360647,0.28201788,9.799817220000001,0.002222,0.001704,0.00464,-100.866852,103.228714,-119.672226,60.187691,24.830145,13.967055,10.503875,-1.0,-1.0,100.569664,0.380493,3.122278,-0.027668,-1.615585
832641.28827,0.13232709,0.28575549,9.77257485,0.004256,-0.002508,0.004609,-100.667786,103.259338,-119.680832,60.187691,24.830145,13.967055,10.503875,-1.0,-1.0,100.569664,0.380493,3.122324,-0.027666,-1.615582
832641.308256,0.13816404,0.26808768000000005,9.780658290000002,0.001215,0.002344,0.003204,-100.710373,103.42305,-119.689682,60.187691,24.830145,13.967055,10.503875,-1.0,-1.0,100.569664,0.380493,3.122357,-0.02766,-1.615584
832641.328242,0.13936086,0.27841761000000004,9.79473564,0.002504,-0.00025,0.003944,-100.592484,103.514236,-119.932068,60.187691,24.830145,13.967055,10.503875,-1.0,-1.0,100.569664,0.380493,3.122405,-0.027673,-1.615578
832641.348227,0.13232709,0.28006569000000003,9.78545538,0.003693,-0.001117,0.004399,-100.813416,103.43573,-120.0271,60.187691,24.830145,13.967055,10.503875,-1.0,-1.0,100.569664,0.380493,3.122462,-0.027656,-1.615586
832641.388199,0.1360647,0.27991854,9.791292330000001,0.004626,-0.001801,0.00534,-100.928253,103.440826,-119.948685,60.187691,24.830145,13.967055,10.503875,-1.0,-1.0,100.569664,0.380493,3.122536,-0.02764,-1.61558
832641.408185,0.13621185,0.26674371,9.78620094,0.00274,0.000941,0.003367,-101.040833,103.30397,-120.282242,60.187691,24.830145,13.967055,10.503875,-1.0,-1.0,100.569664,0.380493,3.122588,-0.027641,-1.615596
832641.42817,0.1357704,0.27482715,9.784248750000001,0.002449,-0.000564,0.003636,-101.013229,103.173828,-120.010895,60.187691,24.830145,13.967055,10.503875,-1.0,-1.0,100.569664,0.380493,3.122626,-0.027642,-1.615588
832641.448156,0.12857967,0.25282332,9.79562835,0.004976,-0.001548,0.003698,-100.892776,103.593231,-119.952805,60.187691,24.830145,13.967055,10.503875,-1.0,-1.0,100.569664,0.380493,3.122685,-0.027642,-1.61558
832641.468142,0.12199716,0.2718351,9.768533130000002,0.002374,0.002168,0.002962,-100.881134,103.400772,-120.125092,60.187691,24.830145,13.967055,10.503875,-1.0,-1.0,100.569664,0.380493,3.122722,-0.027646,-1.615577
832641.488128,0.13831119,0.28725642,9.7695828,0.004599,0.000113,0.002627,-101.148636,103.556015,-119.933853,60.187691,24.830145,13.967055,10.503875,-1.0,-1.0,100.569664,0.380493,3.122763,-0.027636,-1.615573
832641.508113,0.12424365,0.27168795,9.78889869,0.004137,-0.000501,0.00485,-101.148636,103.556015,-119.933853,60.187691,24.830145,13.967055,10.503875,-1.0,-1.0,100.569664,0.380493,3.122816,-0.02764,-1.615576
832641.528099,0.13785993,0.27273762,9.779314320000001,0.002664,0.004586,0.003298,-100.945312,103.507736,-119.851013,60.187691,24.830145,13.967055,10.503875,-1.0,-1.0,100.569664,0.380493,3.122854,-0.027631,-1.615575
832641.528099,0.13785993,0.27273762,9.779314320000001,0.002664,0.004586,0.003298,-100.945312,103.507736,-119.851013,60.187691,24.830145,13.967055,10.503875,-1.0,-1.0,100.569664,0.380493,3.122854,-0.027631,-1.615575
832641.528099,0.13785993,0.27273762,9.779314320000001,0.002664,0.004586,0.003298,-100.945312,103.507736,-119.851013,60.187691,24.830145,13.967055,10.503875,-1.0,-1.0,100.569664,0.380493,3.122854,-0.027631,-1.615575
832641.588056,0.13277835000000002,0.28261629000000005,9.775272600000001,0.003814,0.001004,0.005181,-100.968002,103.465027,-119.551361,60.187691,24.830145,13.967055,10.503875,-1.0,-1.0,100.569664,0.380493,3.122997,-0.027618,-1.615571
832641.608042,0.12993345,0.26764623000000004,9.79787484,0.002739,-0.002367,0.006034,-101.002121,103.428772,-119.954681,60.187691,24.830145,13.967055,10.503875,-1.0,-1.0,100.569664,0.380493,3.123054,-0.027617,-1.615588
832641.628028,0.13022775,0.28245933,9.77512545,0.002767,0.001642,0.003418,-100.988342,103.349289,-119.677338,60.187691,24.830145,13.967055,10.503875,-1.0,-1.0,100.569664,0.380493,3.123087,-0.0276,-1.615594
832641.648014,0.12618603,0.26075961000000003,9.80640954,0.001286,-0.001413,0.004593,-100.819061,103.461746,-119.828934,60.187691,24.830145,13.967055,10.503875,-1.0,-1.0,100.569664,0.380493,3.123123,-0.027608,-1.615599
832641.668,0.14280417,0.27468000000000004,9.78889869,0.004778,0.000108,0.00289,-100.937912,103.323166,-120.055725,60.187691,24.830145,13.967055,10.503875,-1.0,-1.0,100.569664,0.380493,3.123169,-0.027611,-1.615599
832641.687985,0.12274272000000001,0.2860596,9.77317326,0.001908,0.002114,0.004097,-101.022797,103.292465,-119.901001,60.187691,24.830145,13.967055,10.503875,-1.0,-1.0,100.569664,0.380493,3.123209,-0.027626,-1.61559
832641.707971,0.12393954,0.26554689,9.78245352,0.004005,-0.002285,0.003183,-100.861069,103.293686,-119.950226,60.187691,24.830145,13.967055,10.503875,-1.0,-1.0,100.569664,0.380493,3.123265,-0.027619,-1.615588
832641.727957,0.14070483,0.27722079,9.78305193,0.001742,0.001187,0.003569,-100.765671,103.384125,-119.535904,60.187691,24.830145,13.967055,10.503875,-1.0,-1.0,100.569664,0.380493,3.123298,-0.027621,-1.615586
832641.747943,0.13801689,0.28709946000000003,9.775723860000001,0.002933,0.001113,0.004418,-100.768112,103.427521,-119.634796,60.187691,24.830145,13.967055,10.503875,-1.0,-1.0,100.569664,0.380493,3.123323,-0.027596,-1.615574
832641.767928,0.12484206,0.26344755000000003,9.76195062,0.004187,-0.00229,0.004058,-100.884827,103.324112,-120.014679,60.187691,24.830145,13.967055,10.503875,-1.0,-1.0,100.569664,0.380493,3.123371,-0.027592,-1.615562
832641.787914,0.13367106,0.27707364,9.77377167,0.002455,0.000837,0.005458,-100.837097,103.226089,-119.764893,60.187691,24.830145,13.967055,10.503875,-1.0,-1.0,100.569664,0.380493,3.12342,-0.0276,-1.615562
832641.8079,0.12364524000000002,0.27422874,9.77721498,0.002174,-0.000317,0.006071,-101.051025,103.184464,-119.6008,60.187691,24.830145,13.967055,10.503875,-1.0,-1.0,100.569664,0.380493,3.123451,-0.027597,-1.615578
832641.827886,0.13307265000000001,0.265851,9.76913154,0.002348,-0.002303,0.004374,-101.060822,103.436493,-119.600708,60.187691,24.830145,13.967055,10.503875,-1.0,-1.0,100.569664,0.380493,3.123489,-0.027589,-1.615577
832641.827886,0.13307265000000001,0.265851,9.76913154,0.002348,-0.002303,0.004374,-101.060822,103.436493,-119.600708,60.187691,24.830145,13.967055,10.503875,-1.0,-1.0,100.569664,0.380493,3.123489,-0.027589,-1.615577
832641.867857,0.13771278,0.283509,9.771682140000001,0.004302,-0.001614,0.004343,-100.69989,103.541351,-120.026291,60.187691,24.830145,13.967055,10.503875,-1.0,-1.0,100.569664,0.380493,3.123562,-0.027577,-1.615571
832641.887843,0.12513636,0.27168795,9.77677353,0.002663,3.4e-05,0.003567,-100.77803,103.250122,-119.68985,60.187691,24.830145,13.967055,10.503875,-1.0,-1.0,100.569664,0.380493,3.123598,-0.02758,-1.615574
832641.907829,0.13307265000000001,0.26509562999999997,9.79173378,0.00179,0.00045,0.002991,-100.930435,103.298584,-119.407349,60.187691,24.830145,13.967055,10.503875,-1.0,-1.0,100.569664,0.380493,3.123618,-0.027588,-1.615555
832641.927815,0.13172868000000001,0.27049113,9.780511140000002,0.003985,-0.002996,0.003718,-100.873245,103.356567,-119.768982,60.187691,24.830145,13.967055,10.503875,-1.0,-1.0,100.569664,0.380493,3.123648,-0.027598,-1.615538
832641.9478,0.12933504,0.28365615,9.755966520000001,0.002179,0.001913,0.004559,-100.902878,103.339294,-119.929184,60.187691,24.830145,13.967055,10.503875,-1.0,-1.0,100.569664,0.380493,3.123675,-0.027587,-1.615538
832641.967786,0.12364524000000002,0.26509562999999997,9.784405710000001,0.00334,-1.7e-05,0.003308,-100.905762,103.312195,-119.877945,60.187691,24.830145,13.967055,10.503875,-1.0,-1.0,100.569664,0.380493,3.123704,-0.027592,-1.615545
832641.987772,0.13142457,0.29668383,9.780658290000002,0.004735,-0.00139,0.004047,-100.977448,103.388382,-119.393417,60.187691,24.830145,13.967055,10.503875,-1.0,-1.0,100.569664,0.380493,3.123743,-0.027588,-1.61554
832642.027744,0.1357704,0.27737775000000003,9.787250610000001,0.00241,-0.003261,0.005507,-101.021698,103.378036,-119.695801,60.187691,24.830145,13.967055,10.503875,-1.0,-1.0,100.569664,0.380493,3.123815,-0.027592,-1.615545
832642.047729,0.1417545,0.27737775000000003,9.77362452,0.002654,-0.000547,0.004133,-100.857132,103.389389,-119.909317,60.187691,24.830145,13.967055,10.503875,-1.0,-1.0,100.569664,0.380493,3.123837,-0.027599,-1.615543
832642.067715,0.13053186,0.27288477000000005,9.772280550000001,0.002647,-0.000863,0.003677,-100.889618,103.398895,-119.793808,60.187691,24.830145,13.967055,10.503875,-1.0,-1.0,100.569664,0.380493,3.12385,-0.027594,-1.615546
832642.067715,0.13053186,0.27288477000000005,9.772280550000001,0.002647,-0.000863,0.003677,-100.889618,103.398895,-119.793808,60.187691,24.830145,13.967055,10.503875,-1.0,-1.0,100.569664,0.380493,3.12385,-0.027594,-1.615546
832642.107687,0.13067901,0.27348318,9.75760479,0.002653,0.00088,0.004567,-100.69101,103.42775,-119.899292,60.187691,24.830145,13.967055,10.503875,-1.0,-1.0,100.569664,0.380493,3.123909,-0.027622,-1.615563
832642.127672,0.12288987000000001,0.27722079,9.77467419,0.0044,-0.000397,0.002879,-100.896973,103.377808,-119.6474,60.187691,24.830145,13.967055,10.503875,-1.0,-1.0,100.569664,0.380493,3.123926,-0.027606,-1.615562
832642.127672,0.12288987000000001,0.27722079,9.77467419,0.0044,-0.000397,0.002879,-100.896973,103.377808,-119.6474,60.187691,24.830145,13.967055,10.503875,-1.0,-1.0,100.569664,0.380493,3.123926,-0.027606,-1.615562
832642.127672,0.12288987000000001,0.27722079,9.77467419,0.0044,-0.000397,0.002879,-100.896973,103.377808,-119.6474,60.187691,24.830145,13.967055,10.503875,-1.0,-1.0,100.569664,0.380493,3.123926,-0.027606,-1.615562
832642.18763,0.14385384,0.27632808,9.78275763,0.00467,-0.001013,0.003302,-100.743088,103.503006,-119.980423,60.187691,24.830145,13.967055,10.503875,-1.0,-1.0,100.570084,0.343502,3.123977,-0.027615,-1.61554
832642.207616,0.13352391,0.27677934,9.779010210000001,0.004286,-0.000404,0.00377,-101.056778,103.37767,-119.911255,60.187691,24.830145,13.967055,10.503875,-1.0,-1.0,100.570084,0.343502,3.124013,-0.027635,-1.615541
832642.227601,0.12753,0.27602397,9.78185511,0.003572,0.000646,0.002839,-101.056778,103.37767,-119.911255,60.187691,24.830145,13.967055,10.503875,-1.0,-1.0,100.570084,0.343502,3.124029,-0.027646,-1.61554
832642.247587,0.14445225,0.27377748,9.79488279,0.004555,-0.003883,0.004646,-100.846069,103.572632,-119.641373,60.187691,24.830145,13.967055,10.503875,-1.0,-1.0,100.570084,0.343502,3.124055,-0.027656,-1.61552
832642.267573,0.13381821000000002,0.26659656,9.78021684,0.001672,0.002285,0.003999,-100.879257,103.468735,-119.622559,60.187691,24.830145,13.967055,10.503875,-1.0,-1.0,100.570084,0.343502,3.124063,-0.027653,-1.615514
832642.287559,0.13457358,0.27737775000000003,9.775723860000001,0.002973,-0.000343,0.002654,-100.754211,103.433228,-119.741119,60.187691,24.830145,13.967055,10.503875,-1.0,-1.0,100.570084,0.343502,3.124089,-0.027646,-1.61551
832642.287559,0.13457358,0.27737775000000003,9.775723860000001,0.002973,-0.000343,0.002654,-100.754211,103.433228,-119.741119,60.187691,24.830145,13.967055,10.503875,-1.0,-1.0,100.570084,0.343502,3.124089,-0.027646,-1.61551
832642.32753,0.1300806,0.26375166,9.78679935,0.002773,0.00285,0.004296,-101.039444,103.075851,-119.685318,60.187691,24.830145,13.967055,10.503875,-1.0,-1.0,100.570084,0.343502,3.124141,-0.027649,-1.615508
832642.347516,0.13531914,0.2749743,9.79053696,0.00476,-0.002747,0.00568,-100.812103,103.40657,-119.529236,60.187691,24.830145,13.967055,10.503875,-1.0,-1.0,100.570084,0.343502,3.12418,-0.027657,-1.615513
832642.367502,0.12917808,0.27258066000000003,9.796373910000002,0.003512,0.001301,0.004876,-100.692902,103.443115,-119.764328,60.187691,24.830145,13.967055,10.503875,-1.0,-1.0,100.570084,0.343502,3.124205,-0.027664,-1.615522
832642.387488,0.1300806,0.26913735,9.80191656,0.001009,-0.000676,0.002812,-100.883789,103.380356,-119.636063,60.187691,24.830145,13.967055,10.503875,-1.0,-1.0,100.570084,0.343502,3.124229,-0.02768,-1.615526
832642.407473,0.13696722,0.27482715,9.7784118,0.004194,-0.002613,0.003853,-100.713547,103.501282,-120.261658,60.187691,24.830145,13.967055,10.503875,-1.0,-1.0,100.570084,0.343502,3.124234,-0.027671,-1.615526
832642.427459,0.13785993,0.27513126000000004,9.78290478,0.002343,0.001568,0.0038,-100.745209,103.683273,-119.838913,60.187691,24.830145,13.967055,10.503875,-1.0,-1.0,100.570084,0.343502,3.124232,-0.027668,-1.615518
832642.427459,0.13785993,0.27513126000000004,9.78290478,0.002343,0.001568,0.0038,-100.745209,103.683273,-119.838913,60.187691,24.830145,13.967055,10.503875,-1.0,-1.0,100.570084,0.343502,3.124232,-0.027668,-1.615518
832642.447446,0.13517199,0.25866027,9.79189074,0.004131,-0.001196,0.004308,-100.927475,103.596085,-120.102386,60.187691,24.830145,13.967055,10.503875,-1.0,-1.0,100.570084,0.343502,3.124243,-0.027669,-1.615519
832642.487417,0.13711437,0.28186092,9.775419750000001,0.001094,0.002844,0.004661,-100.914337,103.660172,-119.744263,60.187691,24.830145,13.967055,10.503875,-1.0,-1.0,100.570084,0.343502,3.124266,-0.027681,-1.615513
832642.507403,0.15103476000000002,0.27797616,9.77632227,0.005333,-0.001565,0.005564,-100.668701,103.342957,-119.861313,60.187691,24.830145,13.967055,10.503875,-1.0,-1.0,100.570084,0.343502,3.1243,-0.027672,-1.615514
832642.527389,0.11750418000000001,0.26525259,9.76704201,0.005333,-0.001565,0.005564,-100.790222,103.296204,-119.980392,60.187691,24.830145,13.967055,10.503875,-1.0,-1.0,100.570084,0.343502,3.124328,-0.027684,-1.61552
832642.567361,0.13202298,0.27063828,9.77108373,0.003844,-0.001452,0.002487,-100.854782,103.461609,-120.037842,60.187691,24.830145,13.967055,10.503875,-1.0,-1.0,100.570084,0.343502,3.124381,-0.027686,-1.615524
832642.587346,0.1329255,0.27797616,9.74547963,0.003653,0.0012,0.004493,-100.624863,103.444244,-119.998795,60.187691,24.830145,13.967055,10.503875,-1.0,-1.0,100.570084,0.343502,3.12441,-0.027686,-1.615518
832642.587346,0.1329255,0.27797616,9.74547963,0.003653,0.0012,0.004493,-100.624863,103.444244,-119.998795,60.187691,24.830145,13.967055,10.503875,-1.0,-1.0,100.570084,0.343502,3.12441,-0.027686,-1.615518
832642.627318,0.13666311,0.27677934,9.787093650000001,0.005295,-4.2e-05,0.00238,-100.745392,103.486008,-120.026138,60.187691,24.830145,13.967055,10.503875,-1.0,-1.0,100.570084,0.343502,3.124443,-0.027695,-1.615521
832642.647304,0.12708855,0.27303192,9.75745764,0.001668,0.001639,0.00295,-100.540421,103.503555,-119.799026,60.187691,24.830145,13.967055,10.503875,-1.0,-1.0,100.570084,0.343502,3.12445,-0.027705,-1.615502
832642.66729,0.13217994,0.2689902,9.78170796,0.003471,-0.001512,0.000469,-100.647858,103.627502,-119.695435,60.187691,24.830145,13.967055,10.503875,-1.0,-1.0,100.570084,0.343502,3.12446,-0.027704,-1.6155
832642.66729,0.13217994,0.2689902,9.78170796,0.003471,-0.001512,0.000469,-100.647858,103.627502,-119.695435,60.187691,24.830145,13.967055,10.503875,-1.0,-1.0,100.570084,0.343502,3.12446,-0.027704,-1.6155
832642.707261,0.12888378,0.27557271000000005,9.77333022,0.002638,0.002396,0.003272,-100.749405,103.455353,-119.80571,60.187691,24.830145,13.967055,10.503875,-1.0,-1.0,100.570084,0.343502,3.124478,-0.027715,-1.615505
832642.727247,0.13232709,0.27049113,9.80086689,0.005006,-0.003468,0.005331,-100.841324,103.366882,-119.993408,60.187691,24.830145,13.967055,10.503875,-1.0,-1.0,100.570084,0.343502,3.124495,-0.02771,-1.615503
832642.727247,0.13232709,0.27049113,9.80086689,0.005006,-0.003468,0.005331,-100.841324,103.366882,-119.993408,60.187691,24.830145,13.967055,10.503875,-1.0,-1.0,100.570084,0.343502,3.124495,-0.02771,-1.615503
832642.727247,0.13232709,0.27049113,9.80086689,0.005006,-0.003468,0.005331,-100.841324,103.366882,-119.993408,60.187691,24.830145,13.967055,10.503875,-1.0,-1.0,100.570084,0.343502,3.124495,-0.02771,-1.615503
832642.787204,0.12229146,0.26569404,9.77437008,0.005589,-0.002528,0.003866,-100.579666,103.492508,-119.617218,60.187691,24.830145,13.967055,10.503875,-1.0,-1.0,100.570084,0.343502,3.124542,-0.027705,-1.615502
832642.80719,0.12484206,0.26270199,9.783208890000001,0.001855,2.3e-05,0.004614,-100.436523,103.548004,-119.580444,60.187691,24.830145,13.967055,10.503875,-1.0,-1.0,100.570084,0.343502,3.124562,-0.027716,-1.615503
832642.827176,0.12199716,0.25940583,9.780815250000002,0.005372,-0.003189,0.004245,-100.820923,103.426132,-119.869019,60.187691,24.830145,13.967055,10.503875,-1.0,-1.0,100.570084,0.343502,3.124582,-0.027721,-1.615506
832642.847162,0.12828537,0.26480133,9.783503190000001,0.003465,0.000621,0.004209,-100.842499,103.513046,-119.627533,60.187691,24.830145,13.967055,10.503875,-1.0,-1.0,100.570084,0.343502,3.124588,-0.027723,-1.615511
832642.867147,0.12005478000000001,0.27617112,9.784248750000001,0.002021,-0.000545,0.003275,-100.599319,103.591766,-119.850128,60.187691,24.830145,13.967055,10.503875,-1.0,-1.0,100.570084,0.343502,3.124599,-0.027727,-1.615506
832642.887133,0.1357704,0.2689902,9.82272357,0.004916,-0.004307,0.0051,-100.833908,103.523666,-120.026031,60.187691,24.830145,13.967055,10.503875,-1.0,-1.0,100.570084,0.343502,3.124622,-0.027722,-1.615508
832642.907119,0.13053186,0.26944146,9.79758054,0.003546,0.003041,0.004115,-100.814407,103.665955,-119.95285,60.187691,24.830145,13.967055,10.503875,-1.0,-1.0,100.570084,0.343502,3.124641,-0.027713,-1.615521
832642.907119,0.13053186,0.26944146,9.79758054,0.003546,0.003041,0.004115,-100.814407,103.665955,-119.95285,60.187691,24.830145,13.967055,10.503875,-1.0,-1.0,100.570084,0.343502,3.124641,-0.027713,-1.615521
832642.947091,0.14130324,0.26494848000000004,9.790988220000001,0.004967,-0.002326,0.003435,-100.669891,103.662003,-119.945709,60.187691,24.830145,13.967055,10.503875,-1.0,-1.0,100.570084,0.343502,3.12468,-0.0277,-1.615522
832642.967076,0.12993345,0.28216503000000004,9.80162226,0.001133,0.002066,0.004806,-100.661377,103.525269,-119.872101,60.187691,24.830145,13.967055,10.503875,-1.0,-1.0,100.570084,0.343502,3.124695,-0.027703,-1.615517
832642.987062,0.11645451,0.27003987,9.77063247,0.003163,-0.00407,0.003119,-100.820114,103.578995,-120.009918,60.187691,24.830145,13.967055,10.503875,-1.0,-1.0,100.570084,0.343502,3.124708,-0.027703,-1.61552
832643.007048,0.12843252,0.27602397,9.79248915,0.003911,0.000938,0.003624,-100.642456,103.809662,-119.752899,60.187691,24.830145,13.967055,10.503875,-1.0,-1.0,100.570084,0.343502,3.124718,-0.027691,-1.615508
832643.027034,0.13711437,0.27303192,9.78919299,0.000737,0.001353,0.003627,-100.645233,103.659149,-119.90097,60.187691,24.830145,13.967055,10.503875,-1.0,-1.0,100.570084,0.343502,3.124731,-0.02771,-1.615504
832643.027034,0.13711437,0.27303192,9.78919299,0.000737,0.001353,0.003627,-100.645233,103.659149,-119.90097,60.187691,24.830145,13.967055,10.503875,-1.0,-1.0,100.570084,0.343502,3.124731,-0.02771,-1.615504
832643.067005,0.13426947,0.27393444,9.7610481,0.001967,0.002119,0.003422,-100.631424,103.557648,-119.702469,60.187691,24.830145,13.967055,10.503875,-1.0,-1.0,100.570084,0.343502,3.124776,-0.027702,-1.615506
832643.086991,0.13142457,0.26808768000000005,9.7784118,0.00328,-0.001549,0.003232,-100.860458,103.536209,-119.781937,60.187691,24.830145,13.967055,10.503875,-1.0,-1.0,100.570084,0.343502,3.124801,-0.027698,-1.615508
832643.106977,0.13457358,0.26360451,9.783807300000001,0.004883,-0.00027,0.005041,-100.715088,103.596146,-119.746872,60.187691,24.830145,13.967055,10.503875,-1.0,-1.0,100.570084,0.343502,3.124816,-0.027696,-1.615496
832643.126963,0.12873663,0.28410741,9.78814332,0.000585,0.001237,0.003635,-100.688171,103.534164,-119.894913,60.187691,24.830145,13.967055,10.503875,-1.0,-1.0,100.570084,0.343502,3.124824,-0.0277,-1.6155
832643.146948,0.13801689,0.28245933,9.77946147,0.004049,-0.000953,0.00445,-101.037369,103.448212,-119.864563,60.187691,24.830145,13.967055,10.503875,-1.0,-1.0,100.570084,0.343502,3.124847,-0.027694,-1.615499
832643.166934,0.1357704,0.28111536000000004,9.783954450000001,0.003496,0.000306,0.003259,-100.822083,103.397675,-119.878693,60.187691,24.830145,13.967055,10.503875,-1.0,-1.0,100.570084,0.343502,3.124871,-0.027699,-1.615499
832643.206906,0.14340258,0.2630061,9.772280550000001,0.004132,-0.000552,0.004843,-100.855667,103.370651,-119.874619,60.187691,24.830145,13.967055,10.503875,-1.0,-1.0,100.570084,0.343502,3.124896,-0.02769,-1.61551
832643.226892,0.12544047,0.27138384000000004,9.755966520000001,0.002558,0.002006,0.002775,-100.749237,103.767929,-119.762283,60.187691,24.830145,13.967055,10.503875,-1.0,-1.0,100.570084,0.343502,3.124917,-0.027694,-1.615505
832643.226892,0.12544047,0.27138384000000004,9.755966520000001,0.002558,0.002006,0.002775,-100.749237,103.767929,-119.762283,60.187691,24.830145,13.967055,10.503875,-1.0,-1.0,100.570084,0.343502,3.124917,-0.027694,-1.615505
832643.266863,0.13142457,0.28186092,9.78185511,0.004644,-0.002263,0.005304,-100.720642,103.495483,-119.858765,60.187691,24.830145,13.967055,10.503875,-1.0,-1.0,100.570694,0.293297,3.12496,-0.027722,-1.615503
832643.286849,0.12589173,0.27138384000000004,9.768238830000001,0.003365,0.001688,0.00392,-100.886597,103.655823,-119.643127,60.187691,24.830145,13.967055,10.503875,-1.0,-1.0,100.570694,0.293297,3.124963,-0.027717,-1.615515
832643.306835,0.12857967,0.28245933,9.7869465,0.005938,-0.003219,0.002931,-100.817123,103.51033,-119.543411,60.187691,24.830145,13.967055,10.503875,-1.0,-1.0,100.570694,0.293297,3.124976,-0.027714,-1.615513
832643.326821,0.12903093000000002,0.26165232000000005,9.796373910000002,0.003234,-0.000103,0.004671,-100.7211,103.517822,-119.473969,60.187691,24.830145,13.967055,10.503875,-1.0,-1.0,100.570694,0.293297,3.124981,-0.027721,-1.615501
832643.326821,0.12903093000000002,0.26165232000000005,9.796373910000002,0.003234,-0.000103,0.004671,-100.7211,103.517822,-119.473969,60.187691,24.830145,13.967055,10.503875,-1.0,-1.0,100.570694,0.293297,3.124981,-0.027721,-1.615501
832643.326821,0.12903093000000002,0.26165232000000005,9.796373910000002,0.003234,-0.000103,0.004671,-100.7211,103.517822,-119.473969,60.187691,24.830145,13.967055,10.503875,-1.0,-1.0,100.570694,0.293297,3.124981,-0.027721,-1.615501
832643.386778,0.12259557,0.27049113,9.78679935,0.002526,0.001545,0.004775,-100.781998,103.57077,-119.30603,60.187691,24.830145,13.967055,10.503875,-1.0,-1.0,100.570694,0.293297,3.125026,-0.027741,-1.615507
832643.406764,0.13666311,0.28216503000000004,9.78889869,0.003645,-0.001254,0.00396,-100.698593,103.639221,-119.594498,60.187691,24.830145,13.967055,10.503875,-1.0,-1.0,100.570694,0.293297,3.125039,-0.027742,-1.61551
832643.426749,0.13682007,0.27841761000000004,9.77946147,0.004273,-0.003219,0.003857,-100.812241,103.526031,-119.500549,60.187691,24.830145,13.967055,10.503875,-1.0,-1.0,100.570694,0.293297,3.12503,-0.027742,-1.615498
832643.446735,0.13053186,0.27093258000000003,9.78829047,0.002157,0.002185,0.00472,-100.812347,103.411987,-119.545242,60.187691,24.830145,13.967055,10.503875,-1.0,-1.0,100.570694,0.293297,3.125023,-0.027741,-1.615482
832643.466721,0.12917808,0.27557271000000005,9.780815250000002,0.002839,-0.001835,0.00322,-100.85231,103.589447,-119.736511,60.187691,24.830145,13.967055,10.503875,-1.0,-1.0,100.570694,0.293297,3.125031,-0.027737,-1.615483
832643.486707,0.12469491,0.28096821,9.77991273,0.005239,0.000491,0.003435,-100.826187,103.393784,-119.576019,60.187691,24.830145,13.967055,10.503875,-1.0,-1.0,100.570694,0.293297,3.125055,-0.02772,-1.615474
832643.506693,0.14773860000000003,0.26435007,9.79203789,0.003,0.001294,0.003692,-100.712769,103.549561,-119.386978,60.187691,24.830145,13.967055,10.503875,-1.0,-1.0,100.570694,0.293297,3.125072,-0.027744,-1.615483
832643.506693,0.14773860000000003,0.26435007,9.79203789,0.003,0.001294,0.003692,-100.712769,103.549561,-119.386978,60.187691,24.830145,13.967055,10.503875,-1.0,-1.0,100.570694,0.293297,3.125072,-0.027744,-1.615483
832643.546664,0.12993345,0.28276344,9.78036399,0.00302,0.001602,0.003396,-100.799576,103.510147,-119.736038,60.187691,24.830145,13.967055,10.503875,-1.0,-1.0,100.570694,0.293297,3.125121,-0.027742,-1.615473
832643.56665,0.12469491,0.28530423000000005,9.77018121,0.00258,-0.001887,0.003978,-100.825974,103.435181,-119.884338,60.187691,24.830145,13.967055,10.503875,-1.0,-1.0,100.570694,0.293297,3.125129,-0.027749,-1.615455
832643.56665,0.12469491,0.28530423000000005,9.77018121,0.00258,-0.001887,0.003978,-100.825974,103.435181,-119.884338,60.187691,24.830145,13.967055,10.503875,-1.0,-1.0,100.570694,0.293297,3.125129,-0.027749,-1.615455
832643.56665,0.12469491,0.28530423000000005,9.77018121,0.00258,-0.001887,0.003978,-100.825974,103.435181,-119.884338,60.187691,24.830145,13.967055,10.503875,-1.0,-1.0,100.570694,0.293297,3.125129,-0.027749,-1.615455
832643.606622,0.13816404,0.26839179,9.771976440000001,0.001229,0.00264,0.004719,-100.733902,103.330063,-119.770157,60.187691,24.830145,13.967055,10.503875,-1.0,-1.0,100.570694,0.293297,3.125135,-0.027727,-1.615431
832643.626607,0.12484206,0.26808768000000005,9.77960862,0.003736,-0.001468,0.005454,-100.764038,103.646194,-119.597321,60.187691,24.830145,13.967055,10.503875,-1.0,-1.0,100.570694,0.293297,3.125147,-0.027723,-1.615441
832643.646593,0.1357704,0.26884305000000003,9.780511140000002,0.002214,6.3e-05,0.002816,-100.79068,103.582764,-119.78801,60.187691,24.830145,13.967055,10.503875,-1.0,-1.0,100.570694,0.293297,3.125155,-0.027716,-1.615448
832643.686565,0.12544047,0.27662238,9.77856876,0.004021,-0.003393,0.004021,-100.914474,103.387787,-119.972565,60.187691,24.830145,13.967055,10.503875,-1.0,-1.0,100.570694,0.293297,3.125206,-0.0277,-1.615449
832643.706551,0.13801689,0.26480133,9.77797035,0.003745,7.1e-05,0.004271,-100.845505,103.296906,-119.767426,60.187691,24.830145,13.967055,10.503875,-1.0,-1.0,100.570694,0.293297,3.125217,-0.027706,-1.61544
832643.726536,0.13816404,0.27198225000000004,9.79069392,0.003023,-0.000381,0.004327,-100.887177,103.542725,-119.896759,60.187691,24.830145,13.967055,10.503875,-1.0,-1.0,100.570694,0.293297,3.125234,-0.027702,-1.615443
832643.746522,0.13546629000000002,0.27108954,9.77797035,0.00604,-0.002317,0.004396,-100.703598,103.546692,-119.581772,60.187691,24.830145,13.967055,10.503875,-1.0,-1.0,100.570694,0.293297,3.125242,-0.027701,-1.615433
832643.766508,0.12783411,0.27977139,9.79203789,0.002381,0.00174,0.002508,-100.673019,103.588058,-119.578186,60.187691,24.830145,13.967055,10.503875,-1.0,-1.0,100.570694,0.293297,3.125251,-0.027712,-1.615437
832643.786494,0.13082616000000002,0.27827046,9.77946147,0.0042,-0.001774,0.003878,-100.816101,103.328537,-119.809677,60.187691,24.830145,13.967055,10.503875,-1.0,-1.0,100.570694,0.293297,3.125269,-0.027725,-1.615433
832643.80648,0.12484206,0.27108954,9.77362452,0.004242,-0.00031,0.005425,-100.665298,103.425522,-119.66008,60.187691,24.830145,13.967055,10.503875,-1.0,-1.0,100.570694,0.293297,3.12528,-0.027718,-1.615426
832643.826465,0.13845834,0.26001405,9.78529842,0.001478,0.001636,0.004194,-100.542664,103.585754,-119.888916,60.187691,24.830145,13.967055,10.503875,-1.0,-1.0,100.570694,0.293297,3.125288,-0.02772,-1.615427
832643.866437,0.14280417,0.27857457,9.768690090000002,0.002509,0.000844,0.00246,-100.721207,103.547241,-119.655121,60.187691,24.830145,13.967055,10.503875,-1.0,-1.0,100.570694,0.293297,3.125303,-0.027721,-1.615442
832643.866437,0.14280417,0.27857457,9.768690090000002,0.002509,0.000844,0.00246,-100.721207,103.547241,-119.655121,60.187691,24.830145,13.967055,10.503875,-1.0,-1.0,100.570694,0.293297,3.125303,-0.027721,-1.615442
832643.906409,0.11840670000000002,0.28425456,9.771525180000001,0.00521,-0.001734,0.003228,-100.832977,103.478424,-119.634598,60.187691,24.830145,13.967055,10.503875,-1.0,-1.0,100.570694,0.293297,3.125334,-0.027722,-1.615444
832643.906409,0.11840670000000002,0.28425456,9.771525180000001,0.00521,-0.001734,0.003228,-100.832977,103.478424,-119.634598,60.187691,24.830145,13.967055,10.503875,-1.0,-1.0,100.570694,0.293297,3.125334,-0.027722,-1.615444
832643.926395,0.13591755,0.26284914,9.78305193,0.001597,0.00263,0.005402,-100.628616,103.459671,-119.950485,60.187691,24.830145,13.967055,10.503875,-1.0,-1.0,100.570694,0.293297,3.125333,-0.027719,-1.61544
832643.926395,0.13591755,0.26284914,9.78305193,0.001597,0.00263,0.005402,-100.628616,103.459671,-119.950485,60.187691,24.830145,13.967055,10.503875,-1.0,-1.0,100.570694,0.293297,3.125333,-0.027719,-1.61544
832643.986352,0.12857967,0.26030835,9.78964425,7.8e-05,0.000985,0.005718,-100.635071,103.496323,-119.933945,60.187691,24.830145,13.967055,10.503875,-1.0,-1.0,100.570694,0.293297,3.125368,-0.02772,-1.615436
832644.006338,0.13651596,0.27273762,9.78275763,0.003414,-0.002765,0.005471,-100.815323,103.425125,-119.871643,60.187691,24.830145,13.967055,10.503875,-1.0,-1.0,100.570694,0.293297,3.125396,-0.027715,-1.615445
832644.026324,0.14100894,0.26973576,9.76599234,0.003376,0.000847,0.00336,-100.79422,103.493347,-119.991669,60.187691,24.830145,13.967055,10.503875,-1.0,-1.0,100.570694,0.293297,3.125401,-0.027709,-1.615459
832644.046309,0.13113027000000002,0.26734212,9.77781339,0.002257,-1.3e-05,0.004601,-100.800186,103.510056,-119.953369,60.187691,24.830145,13.967055,10.503875,-1.0,-1.0,100.570694,0.293297,3.125416,-0.027724,-1.615466
832644.066295,0.13666311,0.2689902,9.78455286,0.005117,-0.001922,0.003777,-100.85199,103.505203,-119.85025,60.187691,24.830145,13.967055,10.503875,-1.0,-1.0,100.570694,0.293297,3.125431,-0.027723,-1.615458
832644.086281,0.14534496,0.28800198,9.79053696,0.002788,0.00262,0.002875,-100.627625,103.477646,-119.854004,60.187691,24.830145,13.967055,10.503875,-1.0,-1.0,100.570694,0.293297,3.125438,-0.027729,-1.615464
832644.106267,0.13172868000000001,0.27437589,9.78605379,0.002554,-0.001657,0.005348,-100.906311,103.405563,-119.908676,60.187691,24.830145,13.967055,10.503875,-1.0,-1.0,100.570694,0.293297,3.125464,-0.027731,-1.61547
832644.126253,0.13531914,0.26764623000000004,9.8043102,0.003824,-0.001116,0.004353,-100.708435,103.44606,-120.115051,60.187691,24.830145,13.967055,10.503875,-1.0,-1.0,100.570694,0.293297,3.125474,-0.027723,-1.61548
832644.146238,0.13217994,0.27977139,9.791586630000001,0.001271,0.002789,0.003676,-100.677063,103.380493,-120.079651,60.187691,24.830145,13.967055,10.503875,-1.0,-1.0,100.570694,0.293297,3.125472,-0.027727,-1.615485
832644.166224,0.12498921000000002,0.28620675,9.78874173,0.005689,-0.003328,0.007155,-100.761383,103.420807,-120.15564,60.187691,24.830145,13.967055,10.503875,-1.0,-1.0,100.570694,0.293297,3.125497,-0.027726,-1.615477
832644.18621,0.13247424000000002,0.2718351,9.78993855,0.002762,0.000171,0.005413,-100.671799,103.446121,-120.110962,60.187691,24.830145,13.967055,10.503875,-1.0,-1.0,100.570694,0.293297,3.125491,-0.027731,-1.615499
832644.18621,0.13247424000000002,0.2718351,9.78993855,0.002762,0.000171,0.005413,-100.671799,103.446121,-120.110962,60.187691,24.830145,13.967055,10.503875,-1.0,-1.0,100.570694,0.293297,3.125491,-0.027731,-1.615499
832644.226182,0.13157172,0.27288477000000005,9.78829047,0.004983,-0.003772,0.003194,-100.910736,103.313187,-119.853256,60.187691,24.830145,13.967055,10.503875,-1.0,-1.0,100.570694,0.293297,3.125506,-0.027726,-1.615515
832644.226182,0.13157172,0.27288477000000005,9.78829047,0.004983,-0.003772,0.003194,-100.910736,103.313187,-119.853256,60.187691,24.830145,13.967055,10.503875,-1.0,-1.0,100.570694,0.293297,3.125506,-0.027726,-1.615515
832644.246168,0.13876245,0.27018702,9.77946147,0.001731,0.002261,0.004366,-100.813034,103.177917,-120.097092,60.187691,24.830145,13.967055,10.503875,-1.0,-1.0,100.570694,0.293297,3.125505,-0.027727,-1.615514
832644.286139,0.13472073,0.27198225000000004,9.77601816,0.004638,-0.001702,0.003832,-100.725311,103.439041,-120.141113,60.187691,24.830145,13.967055,10.503875,-1.0,-1.0,100.570694,0.293297,3.125554,-0.02774,-1.615523
832644.306125,0.13921371000000002,0.27677934,9.7897914,0.001923,0.001927,0.003743,-100.778488,103.414948,-119.684372,60.187691,24.830145,13.967055,10.503875,-1.0,-1.0,100.570694,0.293297,3.125563,-0.027752,-1.615522
832644.326111,0.12828537,0.26853894,9.77826465,0.003928,-0.00369,0.005496,-100.713379,103.333328,-119.790283,60.187691,24.830145,13.967055,10.503875,-1.0,-1.0,100.571136,0.256306,3.125577,-0.027743,-1.615514
832644.346097,0.13457358,0.26944146,9.780511140000002,0.00221,0.00338,0.005539,-100.842636,103.316483,-119.740524,60.187691,24.830145,13.967055,10.503875,-1.0,-1.0,100.571136,0.256306,3.125578,-0.027749,-1.615525
832644.366083,0.1329255,0.27797616,9.779010210000001,0.002778,-0.000868,0.003704,-100.713058,103.411179,-119.841827,60.187691,24.830145,13.967055,10.503875,-1.0,-1.0,100.571136,0.256306,3.125595,-0.027759,-1.61553
832644.386068,0.12768696000000002,0.2721294,9.775272600000001,0.00562,-0.002561,0.003551,-100.713058,103.411179,-119.841827,60.187691,24.830145,13.967055,10.503875,-1.0,-1.0,100.571136,0.256306,3.125595,-0.027748,-1.615521
832644.406054,0.13561344,0.26509562999999997,9.77018121,0.001463,0.000866,0.002728,-100.56633,103.554611,-119.883514,60.187691,24.830145,13.967055,10.503875,-1.0,-1.0,100.571136,0.256306,3.125599,-0.027743,-1.615513
832644.42604,0.13726152,0.28156662,9.78261048,0.002244,-0.001693,0.004924,-100.743256,103.484344,-120.188583,60.187691,24.830145,13.967055,10.503875,-1.0,-1.0,100.571136,0.256306,3.125614,-0.027726,-1.615513
832644.466012,0.14070483,0.26509562999999997,9.78874173,0.002219,0.002043,0.004043,-100.791382,103.40712,-120.117203,60.187691,24.830145,13.967055,10.503875,-1.0,-1.0,100.571136,0.256306,3.12562,-0.027712,-1.615515
832644.466012,0.14070483,0.26509562999999997,9.78874173,0.002219,0.002043,0.004043,-100.791382,103.40712,-120.117203,60.187691,24.830145,13.967055,10.503875,-1.0,-1.0,100.571136,0.256306,3.12562,-0.027712,-1.615515
832644.505983,0.13172868000000001,0.28261629000000005,9.779010210000001,0.003122,0.000447,0.004063,-100.555771,103.415512,-119.970169,60.187691,24.830145,13.967055,10.503875,-1.0,-1.0,100.571136,0.256306,3.125662,-0.027701,-1.615505
832644.505983,0.13172868000000001,0.28261629000000005,9.779010210000001,0.003122,0.000447,0.004063,-100.555771,103.415512,-119.970169,60.187691,24.830145,13.967055,10.503875,-1.0,-1.0,100.571136,0.256306,3.125662,-0.027701,-1.615505
832644.525969,0.13172868000000001,0.26929431000000004,9.78679935,0.00012,-0.000317,0.004968,-100.783737,103.376297,-120.09166,60.187691,24.830145,13.967055,10.503875,-1.0,-1.0,100.571136,0.256306,3.125671,-0.027703,-1.615511
832644.525969,0.13172868000000001,0.26929431000000004,9.78679935,0.00012,-0.000317,0.004968,-100.783737,103.376297,-120.09166,60.187691,24.830145,13.967055,10.503875,-1.0,-1.0,100.571136,0.256306,3.125671,-0.027703,-1.615511
832644.585927,0.12453795000000001,0.27602397,9.77826465,0.004323,-0.000818,0.003446,-100.849731,103.421463,-119.878845,60.187691,24.830145,13.967055,10.503875,-1.0,-1.0,100.571136,0.256306,3.125695,-0.027695,-1.615488
832644.605912,0.14340258,0.26465418,9.79742358,0.004667,-0.002225,0.002965,-100.671753,103.46669,-119.824448,60.187691,24.830145,13.967055,10.503875,-1.0,-1.0,100.571136,0.256306,3.125706,-0.027708,-1.615482
832644.625898,0.1300806,0.27482715,9.7897914,0.002301,0.002154,0.002795,-100.663269,103.439453,-120.007568,60.187691,24.830145,13.967055,10.503875,-1.0,-1.0,100.571136,0.256306,3.125709,-0.027711,-1.615483
832644.645884,0.12109464000000002,0.27587682,9.784101600000001,0.004818,-0.002585,0.003189,-100.740753,103.442841,-119.893875,60.187691,24.830145,13.967055,10.503875,-1.0,-1.0,100.571136,0.256306,3.125732,-0.027715,-1.615474
832644.66587,0.12798126,0.26704782,9.79517709,0.003907,0.001339,0.00159,-100.552795,103.459579,-119.770569,60.187691,24.830145,13.967055,10.503875,-1.0,-1.0,100.571136,0.256306,3.125729,-0.027727,-1.615447
832644.685856,0.12603888000000002,0.27557271000000005,9.77048532,0.001278,0.001506,0.00503,-100.720398,103.370697,-119.878372,60.187691,24.830145,13.967055,10.503875,-1.0,-1.0,100.571136,0.256306,3.125749,-0.027733,-1.615433
832644.705842,0.13890960000000002,0.27108954,9.79758054,0.004411,-0.003315,0.00407,-100.722794,103.468491,-119.997757,60.187691,24.830145,13.967055,10.503875,-1.0,-1.0,100.571136,0.256306,3.125771,-0.027723,-1.615447
832644.725827,0.13636881,0.27258066000000003,9.787692060000001,0.002093,0.000987,0.003724,-100.845901,103.543335,-120.142303,60.187691,24.830145,13.967055,10.503875,-1.0,-1.0,100.571136,0.256306,3.125774,-0.027716,-1.615451
832644.745813,0.12888378,0.27437589,9.77032836,0.002713,-0.00055,0.003931,-100.667938,103.477829,-120.255295,60.187691,24.830145,13.967055,10.503875,-1.0,-1.0,100.571136,0.256306,3.125782,-0.02772,-1.615445
832644.765799,0.14055768000000002,0.26405577,9.7866522,0.00386,-0.001581,0.003207,-100.703506,103.645844,-120.125092,60.187691,24.830145,13.967055,10.503875,-1.0,-1.0,100.571136,0.256306,3.125806,-0.02771,-1.615454
832644.785785,0.13741848,0.27168795,9.77003406,0.00279,0.002937,0.004813,-100.773071,103.355042,-119.975357,60.187691,24.830145,13.967055,10.503875,-1.0,-1.0,100.571136,0.256306,3.125804,-0.027725,-1.615451
832644.805771,0.13876245,0.26420292,9.78605379,0.003344,-0.001648,0.002878,-100.581573,103.577713,-119.686279,60.187691,24.830145,13.967055,10.503875,-1.0,-1.0,100.571136,0.256306,3.125822,-0.027728,-1.61546
832644.825757,0.12828537,0.27542556,9.78021684,0.003208,-0.001495,0.004061,-100.723434,103.418732,-119.851929,60.187691,24.830145,13.967055,10.503875,-1.0,-1.0,100.571136,0.256306,3.125842,-0.027723,-1.615445
832644.825757,0.12828537,0.27542556,9.78021684,0.003208,-0.001495,0.004061,-100.723434,103.418732,-119.851929,60.187691,24.830145,13.967055,10.503875,-1.0,-1.0,100.571136,0.256306,3.125842,-0.027723,-1.615445
832644.825757,0.12828537,0.27542556,9.78021684,0.003208,-0.001495,0.004061,-100.723434,103.418732,-119.851929,60.187691,24.830145,13.967055,10.503875,-1.0,-1.0,100.571136,0.256306,3.125842,-0.027723,-1.615445
832644.825757,0.12828537,0.27542556,9.78021684,0.003208,-0.001495,0.004061,-100.723434,103.418732,-119.851929,60.187691,24.830145,13.967055,10.503875,-1.0,-1.0,100.571136,0.256306,3.125842,-0.027723,-1.615445
832644.845743,0.13262139,0.27513126000000004,9.78305193,0.003281,-0.000681,0.004012,-100.772156,103.374619,-119.853867,60.187691,24.830145,13.967055,10.503875,-1.0,-1.0,100.571136,0.256306,3.125842,-0.027726,-1.615437
832644.9057,0.14160735,0.28006569000000003,9.76554108,0.00366,-0.000916,0.003661,-100.766983,103.393951,-120.020432,60.187691,24.830145,13.967055,10.503875,-1.0,-1.0,100.571136,0.256306,3.125865,-0.027744,-1.615416
832644.945672,0.13771278,0.26869590000000004,9.78005988,0.001419,3.8e-05,0.004903,-100.794891,103.499329,-119.958801,60.187691,24.830145,13.967055,10.503875,-1.0,-1.0,100.571136,0.256306,3.125872,-0.027734,-1.615394
832644.965658,0.13113027000000002,0.27138384000000004,9.78574968,0.005126,-0.002513,0.003062,-100.754379,103.363434,-119.978088,60.187691,24.830145,13.967055,10.503875,-1.0,-1.0,100.571136,0.256306,3.12588,-0.027728,-1.615386
832644.985643,0.14070483,0.26644941,9.767189160000001,0.004807,0.001035,0.004418,-100.688278,103.450089,-119.962051,60.187691,24.830145,13.967055,10.503875,-1.0,-1.0,100.571136,0.256306,3.125895,-0.02774,-1.615377
832645.025615,0.13097331,0.2749743,9.76913154,0.005603,-0.003109,0.004777,-100.779694,103.455429,-119.914764,60.187691,24.830145,13.967055,10.503875,-1.0,-1.0,100.571136,0.256306,3.125919,-0.02776,-1.615369
832645.025615,0.13097331,0.2749743,9.76913154,0.005603,-0.003109,0.004777,-100.779694,103.455429,-119.914764,60.187691,24.830145,13.967055,10.503875,-1.0,-1.0,100.571136,0.256306,3.125919,-0.02776,-1.615369
832645.065587,0.14025357000000002,0.27872172,9.784405710000001,0.004475,-0.002027,0.002778,-100.603043,103.695511,-119.700729,60.187691,24.830145,13.967055,10.503875,-1.0,-1.0,100.571136,0.256306,3.125931,-0.027772,-1.615364
832645.065587,0.14025357000000002,0.27872172,9.784405710000001,0.004475,-0.002027,0.002778,-100.603043,103.695511,-119.700729,60.187691,24.830145,13.967055,10.503875,-1.0,-1.0,100.571136,0.256306,3.125931,-0.027772,-1.615364
832645.105558,0.13741848,0.26465418,9.77003406,0.001272,-8e-05,0.003629,-100.703415,103.646576,-119.659119,60.187691,24.830145,13.967055,10.503875,-1.0,-1.0,100.571136,0.256306,3.12594,-0.027775,-1.615334
832645.125544,0.12678444,0.27258066000000003,9.765246780000002,0.004794,-0.002846,0.004173,-100.802536,103.61734,-119.868912,60.187691,24.830145,13.967055,10.503875,-1.0,-1.0,100.571136,0.256306,3.125934,-0.027768,-1.61532
832645.125544,0.12678444,0.27258066000000003,9.765246780000002,0.004794,-0.002846,0.004173,-100.802536,103.61734,-119.868912,60.187691,24.830145,13.967055,10.503875,-1.0,-1.0,100.571136,0.256306,3.125934,-0.027768,-1.61532
832645.125544,0.12678444,0.27258066000000003,9.765246780000002,0.004794,-0.002846,0.004173,-100.802536,103.61734,-119.868912,60.187691,24.830145,13.967055,10.503875,-1.0,-1.0,100.571136,0.256306,3.125934,-0.027768,-1.61532
832645.165516,0.14505066000000003,0.26465418,9.79802199,0.001411,0.000403,0.003894,-100.813843,103.480957,-120.095474,60.187691,24.830145,13.967055,10.503875,-1.0,-1.0,100.571136,0.256306,3.125934,-0.027753,-1.615356
832645.205488,0.12484206,0.28500993,9.76599234,0.002192,0.001733,0.003248,-100.808823,103.383575,-120.191467,60.187691,24.830145,13.967055,10.503875,-1.0,-1.0,100.571136,0.256306,3.125943,-0.027726,-1.615369
832645.225474,0.13247424000000002,0.26644941,9.78005988,0.002372,-0.001172,0.00393,-100.641861,103.569229,-119.935074,60.187691,24.830145,13.967055,10.503875,-1.0,-1.0,100.571136,0.256306,3.125959,-0.027721,-1.615358
832645.245459,0.13517199,0.2721294,9.784101600000001,0.004551,-0.002293,0.003366,-100.585968,103.572861,-120.242859,60.187691,24.830145,13.967055,10.503875,-1.0,-1.0,100.571136,0.256306,3.125978,-0.027719,-1.615347
832645.265445,0.13457358,0.28785483,9.76613949,0.001972,0.002602,0.003549,-100.691895,103.538544,-120.056412,60.187691,24.830145,13.967055,10.503875,-1.0,-1.0,100.571136,0.256306,3.12597,-0.027723,-1.615344
832645.285431,0.12857967,0.26839179,9.77601816,0.001972,0.002602,0.003549,-100.717178,103.590622,-120.009201,60.187691,24.830145,13.967055,10.503875,-1.0,-1.0,100.571136,0.256306,3.125987,-0.027731,-1.615342
832645.305417,0.13097331,0.26554689,9.76419711,0.004034,-0.001378,0.001572,-100.803665,103.582245,-120.197266,60.187691,24.830145,13.967055,10.503875,-1.0,-1.0,100.571136,0.256306,3.125989,-0.027726,-1.615346
832645.325403,0.12663729,0.27243351000000005,9.771230880000001,0.000953,9.9e-05,0.004439,-100.856812,103.664978,-120.032242,60.187691,24.830145,13.967055,10.503875,-1.0,-1.0,100.571136,0.256306,3.125969,-0.027731,-1.615336
832645.345389,0.1300806,0.26824464000000003,9.77257485,0.005282,-0.002519,0.003248,-100.842056,103.365036,-120.288757,60.187691,24.830145,13.967055,10.503875,-1.0,-1.0,100.571136,0.256306,3.125986,-0.027721,-1.615341
832645.365374,0.13696722,0.26465418,9.79069392,0.003348,0.000711,0.004502,-100.919113,103.395798,-120.29924,60.187691,24.830145,13.967055,10.503875,-1.0,-1.0,100.571136,0.256306,3.126001,-0.027731,-1.615338
832645.38536,0.13127742,0.27348318,9.76135221,0.002622,-0.00049,0.003664,-100.997818,103.403702,-120.208755,60.187691,24.830145,13.967055,10.503875,-1.0,-1.0,100.571136,0.256306,3.126015,-0.027739,-1.615345
832645.405346,0.13157172,0.27123669,9.755809560000001,0.004585,-0.00258,0.004149,-100.905121,103.343567,-120.0923,60.187691,24.830145,13.967055,10.503875,-1.0,-1.0,100.571793,0.200817,3.12604,-0.027729,-1.615343
832645.425332,0.12199716,0.25806186000000003,9.779010210000001,0.002239,0.0022,0.004374,-100.905502,103.465317,-120.272507,60.187691,24.830145,13.967055,10.503875,-1.0,-1.0,100.571793,0.200817,3.126045,-0.027742,-1.615336
832645.425332,0.12199716,0.25806186000000003,9.779010210000001,0.002239,0.0022,0.004374,-100.905502,103.465317,-120.272507,60.187691,24.830145,13.967055,10.503875,-1.0,-1.0,100.571793,0.200817,3.126045,-0.027742,-1.615336
832645.445318,0.14250006,0.26719497000000003,9.76913154,0.005652,-0.003973,0.004298,-100.8237,103.480606,-120.538498,60.187691,24.830145,13.967055,10.503875,-1.0,-1.0,100.571793,0.200817,3.12606,-0.027741,-1.615337
832645.48529,0.13561344,0.27437589,9.779314320000001,0.001959,-5e-06,0.003946,-100.911484,103.562668,-120.3638,60.187691,24.830145,13.967055,10.503875,-1.0,-1.0,100.571793,0.200817,3.126076,-0.027749,-1.615349
832645.505275,0.13232709,0.2689902,9.7781175,0.004506,-0.001459,0.005455,-100.759506,103.496338,-119.640518,60.187691,24.830145,13.967055,10.503875,-1.0,-1.0,100.571793,0.200817,3.126087,-0.027745,-1.615354
832645.525261,0.12917808,0.2718351,9.793087560000002,0.002421,0.001111,0.00237,-100.725677,103.657928,-120.35939,60.187691,24.830145,13.967055,10.503875,-1.0,-1.0,100.571793,0.200817,3.126099,-0.027746,-1.61537
832645.545247,0.12185001000000001,0.26435007,9.78110955,0.001875,-0.002816,0.00344,-100.666977,103.520218,-120.440872,60.187691,24.830145,13.967055,10.503875,-1.0,-1.0,100.571793,0.200817,3.1261,-0.027745,-1.615364
832645.565233,0.13127742,0.2749743,9.77751909,0.004239,-0.000532,0.004382,-100.630508,103.599823,-119.719604,60.187687,24.830153,13.091616,9.489835,-1.0,-1.0,100.571793,0.200817,3.1261,-0.027744,-1.615361
832645.585219,0.11451213,0.28006569000000003,9.755515260000001,0.002431,0.001176,0.004682,-100.901047,103.590469,-120.172256,60.187687,24.830153,13.091616,9.489835,-1.0,-1.0,100.571793,0.200817,3.126099,-0.027758,-1.615382
832645.625191,0.13157172,0.27557271000000005,9.77991273,0.003137,-0.000923,0.004683,-100.836014,103.602417,-120.316422,60.187687,24.830153,13.091616,9.489835,-1.0,-1.0,100.571793,0.200817,3.126113,-0.027767,-1.615405
832645.625191,0.13157172,0.27557271000000005,9.77991273,0.003137,-0.000923,0.004683,-100.836014,103.602417,-120.316422,60.187687,24.830153,13.091616,9.489835,-1.0,-1.0,100.571793,0.200817,3.126113,-0.027767,-1.615405
832645.665162,0.13426947,0.28096821,9.759704130000001,0.004946,-0.00365,0.003539,-100.792648,103.66304,-120.208786,60.187687,24.830153,13.091616,9.489835,-1.0,-1.0,100.571793,0.200817,3.126118,-0.027752,-1.615399
832645.665162,0.13426947,0.28096821,9.759704130000001,0.004946,-0.00365,0.003539,-100.792648,103.66304,-120.208786,60.187687,24.830153,13.091616,9.489835,-1.0,-1.0,100.571793,0.200817,3.126118,-0.027752,-1.615399
832645.705134,0.12513636,0.27437589,9.77377167,0.002367,0.000128,0.00494,-100.621323,103.601913,-120.449173,60.187687,24.830153,13.091616,9.489835,-1.0,-1.0,100.571793,0.200817,3.12613,-0.027745,-1.615417
832645.72512,0.13965516,0.26674371,9.79248915,0.004138,-0.002115,0.00379,-100.435547,103.541489,-120.576294,60.187687,24.830153,13.091616,9.489835,-1.0,-1.0,100.571793,0.200817,3.126145,-0.027744,-1.615419
832645.72512,0.13965516,0.26674371,9.79248915,0.004138,-0.002115,0.00379,-100.435547,103.541489,-120.576294,60.187687,24.830153,13.091616,9.489835,-1.0,-1.0,100.571793,0.200817,3.126145,-0.027744,-1.615419
832645.72512,0.13965516,0.26674371,9.79248915,0.004138,-0.002115,0.00379,-100.435547,103.541489,-120.576294,60.187687,24.830153,13.091616,9.489835,-1.0,-1.0,100.571793,0.200817,3.126145,-0.027744,-1.615419
832645.785077,0.12768696000000002,0.27153099,9.79457868,0.005292,0.000215,0.00287,-100.563202,103.61821,-120.231918,60.187687,24.830153,13.091616,9.489835,-1.0,-1.0,100.571793,0.200817,3.1262,-0.027717,-1.615408
832645.805063,0.13666311,0.26420292,9.78470001,0.002995,0.00146,0.003959,-100.680847,103.50473,-119.782791,60.187687,24.830153,13.091616,9.489835,-1.0,-1.0,100.571793,0.200817,3.126203,-0.027726,-1.615396
832645.825049,0.13337676,0.28291059,9.77677353,0.005613,-0.003057,0.003945,-100.680847,103.50473,-119.782791,60.187687,24.830153,13.091616,9.489835,-1.0,-1.0,100.571793,0.200817,3.126225,-0.027725,-1.615387
832645.825049,0.13337676,0.28291059,9.77677353,0.005613,-0.003057,0.003945,-100.680847,103.50473,-119.782791,60.187687,24.830153,13.091616,9.489835,-1.0,-1.0,100.571793,0.200817,3.126225,-0.027725,-1.615387
832645.865021,0.12962934,0.27303192,9.79742358,0.003324,-0.000917,0.004362,-100.879593,103.412613,-119.62912,60.187687,24.830153,13.091616,9.489835,-1.0,-1.0,100.571793,0.200817,3.126224,-0.027722,-1.615396
832645.885007,0.13771278,0.26689086,9.79488279,0.005118,-0.001285,0.005672,-100.579712,103.531509,-119.82016,60.187687,24.830153,13.091616,9.489835,-1.0,-1.0,100.571793,0.200817,3.126246,-0.027716,-1.615398
832645.904993,0.13457358,0.28006569000000003,9.78485697,0.002336,0.002334,0.004774,-100.800308,103.584686,-120.06897,60.187687,24.830153,13.091616,9.489835,-1.0,-1.0,100.571793,0.200817,3.126252,-0.027724,-1.615416
832645.924978,0.13022775,0.26344755000000003,9.79697232,0.004439,-0.001643,0.004619,-100.898575,103.56813,-120.33139,60.187687,24.830153,13.091616,9.489835,-1.0,-1.0,100.571793,0.200817,3.12627,-0.027728,-1.615422
832645.944964,0.13486788,0.26674371,9.8068608,0.003819,0.000363,0.005314,-100.758087,103.494141,-120.078629,60.187687,24.830153,13.091616,9.489835,-1.0,-1.0,100.571793,0.200817,3.126288,-0.027736,-1.615435
832645.96495,0.12977649,0.27917298,9.79038981,0.002555,0.000861,0.004151,-100.694473,103.679672,-120.123398,60.187687,24.830153,13.091616,9.489835,-1.0,-1.0,100.571793,0.200817,3.126296,-0.027744,-1.615419
832645.984936,0.13486788,0.28141947,9.77706783,0.00425,-0.003487,0.00297,-100.780441,103.426941,-120.090912,60.187687,24.830153,13.091616,9.489835,-1.0,-1.0,100.571793,0.200817,3.12631,-0.027748,-1.615422
832646.004922,0.13441662000000001,0.27393444,9.79084107,0.002667,0.001025,0.002745,-100.71904,103.528854,-119.855057,60.187687,24.830153,13.091616,9.489835,-1.0,-1.0,100.571793,0.200817,3.126314,-0.027747,-1.615412
832646.024908,0.12948219000000002,0.26599815,9.7926363,0.001677,-0.00177,0.004666,-100.522705,103.562012,-119.873138,60.187687,24.830153,13.091616,9.489835,-1.0,-1.0,100.571793,0.200817,3.12632,-0.027748,-1.615409
832646.024908,0.12948219000000002,0.26599815,9.7926363,0.001677,-0.00177,0.004666,-100.522705,103.562012,-119.873138,60.187687,24.830153,13.091616,9.489835,-1.0,-1.0,100.571793,0.200817,3.12632,-0.027748,-1.615409
832646.044894,0.13457358,0.28006569000000003,9.783807300000001,0.00434,1e-05,0.003749,-100.57901,103.470627,-120.090317,60.187687,24.830153,13.091616,9.489835,-1.0,-1.0,100.571793,0.200817,3.126325,-0.027746,-1.61541
832646.084865,0.12977649,0.27003987,9.74982546,0.003922,-0.003187,0.003749,-100.738892,103.449402,-119.941864,60.187687,24.830153,13.091616,9.489835,-1.0,-1.0,100.571793,0.200817,3.126349,-0.027762,-1.615405
832646.104851,0.12843252,0.26719497000000003,9.772133400000001,0.004515,-0.000278,0.003686,-100.727676,103.725647,-120.09491,60.187687,24.830153,13.091616,9.489835,-1.0,-1.0,100.571793,0.200817,3.12635,-0.027755,-1.615415
832646.124837,0.12933504,0.26525259,9.783503190000001,0.002001,0.000423,0.004159,-100.820633,103.38028,-119.860352,60.187687,24.830153,13.091616,9.489835,-1.0,-1.0,100.571793,0.200817,3.126336,-0.027752,-1.615408
832646.144823,0.13950801,0.27482715,9.764795520000002,0.004293,-0.001107,0.005251,-100.54245,103.848557,-120.124802,60.187687,24.830153,13.091616,9.489835,-1.0,-1.0,100.571793,0.200817,3.126343,-0.02774,-1.61541
832646.164809,0.13082616000000002,0.27393444,9.76733631,0.003263,0.002109,0.003354,-100.51886,103.849396,-119.98703,60.187687,24.830153,13.091616,9.489835,-1.0,-1.0,100.571793,0.200817,3.126354,-0.02773,-1.615416
832646.204781,0.13441662000000001,0.27258066000000003,9.755662410000001,0.005883,-0.001111,0.004474,-100.841888,103.5625,-120.18483,60.187687,24.830153,13.091616,9.489835,-1.0,-1.0,100.571793,0.200817,3.126369,-0.027732,-1.615409
832646.244752,0.13441662000000001,0.27093258000000003,9.77781339,0.003602,-0.004153,0.003586,-100.773026,103.496536,-120.35733,60.187687,24.830153,13.091616,9.489835,-1.0,-1.0,100.571793,0.200817,3.126393,-0.02774,-1.61541
832646.264738,0.13232709,0.26569404,9.790988220000001,0.001496,-0.000129,0.004043,-100.535004,103.516144,-120.050842,60.187687,24.830153,13.091616,9.489835,-1.0,-1.0,100.571793,0.200817,3.126396,-0.027748,-1.615417
832646.264738,0.13232709,0.26569404,9.790988220000001,0.001496,-0.000129,0.004043,-100.535004,103.516144,-120.050842,60.187687,24.830153,13.091616,9.489835,-1.0,-1.0,100.571793,0.200817,3.126396,-0.027748,-1.615417
832646.30471,0.13771278,0.26884305000000003,9.78245352,0.005494,-0.002747,0.004211,-100.671616,103.540039,-120.181061,60.187687,24.830153,13.091616,9.489835,-1.0,-1.0,100.571793,0.200817,3.126403,-0.027729,-1.615407
832646.324696,0.13381821000000002,0.26135802,9.78156081,0.00294,0.002037,0.003595,-100.588608,103.556992,-119.926727,60.187687,24.830153,13.091616,9.489835,-1.0,-1.0,100.571793,0.200817,3.126408,-0.027721,-1.615414
832646.324696,0.13381821000000002,0.26135802,9.78156081,0.00294,0.002037,0.003595,-100.588608,103.556992,-119.926727,60.187687,24.830153,13.091616,9.489835,-1.0,-1.0,100.571793,0.200817,3.126408,-0.027721,-1.615414
832646.344682,0.13756563000000002,0.26494848000000004,9.783650340000001,0.002411,-0.000129,0.004545,-100.588867,103.441528,-119.867523,60.187687,24.830153,13.091616,9.489835,-1.0,-1.0,100.571793,0.200817,3.126422,-0.027718,-1.615416
832646.384653,0.13142457,0.27781920000000004,9.771829290000001,0.00068,0.002082,0.00569,-100.553482,103.496445,-119.737137,60.187687,24.830153,13.091616,9.489835,-1.0,-1.0,100.571793,0.200817,3.126439,-0.027744,-1.615423
832646.404639,0.13711437,0.27692649,9.77601816,0.003107,-0.003468,0.003526,-100.685532,103.407654,-119.934631,60.187687,24.830153,13.091616,9.489835,-1.0,-1.0,100.571793,0.200817,3.126457,-0.027737,-1.615436
832646.424625,0.12393954,0.27168795,9.772133400000001,0.002932,0.001379,0.002059,-100.632584,103.331818,-119.82428,60.187687,24.830153,13.091616,9.489835,-1.0,-1.0,100.571793,0.200817,3.126459,-0.027719,-1.615448
832646.464596,0.1272357,0.26989272000000003,9.7897914,0.004367,-0.002051,0.003064,-100.637329,103.399521,-119.684616,60.187687,24.830153,13.091616,9.489835,-1.0,-1.0,100.571793,0.200817,3.126487,-0.027695,-1.615441
832646.464596,0.1272357,0.26989272000000003,9.7897914,0.004367,-0.002051,0.003064,-100.637329,103.399521,-119.684616,60.187687,24.830153,13.091616,9.489835,-1.0,-1.0,100.571793,0.200817,3.126487,-0.027695,-1.615441
832646.504568,0.13816404,0.26973576,9.77362452,0.002941,-0.002145,0.003728,-100.770554,103.290161,-119.648697,60.187687,24.830153,13.091616,9.489835,-1.0,-1.0,100.571983,0.184963,3.1265,-0.02771,-1.615428
832646.524554,0.12094749,0.28905165000000005,9.76628664,0.004123,-0.001474,0.004403,-100.783478,103.24585,-119.75145,60.187687,24.830153,13.091616,9.489835,-1.0,-1.0,100.571983,0.184963,3.126507,-0.027704,-1.615421
832646.544539,0.1332198,0.27422874,9.768385980000001,0.002939,0.0012,0.005141,-100.783478,103.24585,-119.75145,60.187687,24.830153,13.091616,9.489835,-1.0,-1.0,100.571983,0.184963,3.126504,-0.027715,-1.615417
832646.564525,0.13113027000000002,0.26958861,9.787544910000001,0.002271,-0.002396,0.00407,-100.546707,103.246307,-119.826813,60.187687,24.830153,13.091616,9.489835,-1.0,-1.0,100.571983,0.184963,3.12653,-0.027721,-1.615429
832646.584511,0.12708855,0.26794053,9.783954450000001,0.005124,0.001499,0.003826,-100.618408,103.582458,-119.929871,60.187687,24.830153,13.091616,9.489835,-1.0,-1.0,100.571983,0.184963,3.126532,-0.027718,-1.615421
832646.604497,0.12857967,0.28546119000000003,9.775272600000001,0.003019,-6e-05,0.003464,-100.533218,103.653992,-119.497284,60.187687,24.830153,13.091616,9.489835,-1.0,-1.0,100.571983,0.184963,3.126535,-0.027733,-1.615416
832646.624483,0.14160735,0.27198225000000004,9.77467419,0.004433,-0.001264,0.005293,-100.558823,103.38826,-119.779694,60.187687,24.830153,13.091616,9.489835,-1.0,-1.0,100.571983,0.184963,3.126541,-0.027741,-1.615428
832646.624483,0.14160735,0.27198225000000004,9.77467419,0.004433,-0.001264,0.005293,-100.558823,103.38826,-119.779694,60.187687,24.830153,13.091616,9.489835,-1.0,-1.0,100.571983,0.184963,3.126541,-0.027741,-1.615428
832646.624483,0.14160735,0.27198225000000004,9.77467419,0.004433,-0.001264,0.005293,-100.558823,103.38826,-119.779694,60.187687,24.830153,13.091616,9.489835,-1.0,-1.0,100.571983,0.184963,3.126541,-0.027741,-1.615428
832646.644469,0.13711437,0.27333603,9.787544910000001,0.003372,0.002009,0.003418,-100.787277,103.455429,-119.751907,60.187687,24.830153,13.091616,9.489835,-1.0,-1.0,100.571983,0.184963,3.126545,-0.027736,-1.615443
832646.704426,0.14115609,0.2718351,9.78156081,0.001555,0.001472,0.005004,-100.681076,103.579025,-120.129013,60.187687,24.830153,13.091616,9.489835,-1.0,-1.0,100.571983,0.184963,3.126569,-0.027754,-1.61544
832646.744398,0.14699304000000002,0.27977139,9.75087513,0.004119,0.000379,0.004364,-100.481567,103.718964,-120.14444,60.187687,24.830153,13.091616,9.489835,-1.0,-1.0,100.571983,0.184963,3.12658,-0.027756,-1.615443
832646.764384,0.1300806,0.28201788,9.77003406,0.001973,-0.000744,0.005553,-100.428146,103.852737,-119.771317,60.187687,24.830153,13.091616,9.489835,-1.0,-1.0,100.571983,0.184963,3.126587,-0.027744,-1.615438
832646.78437,0.13127742,0.26764623000000004,9.779167170000001,0.005836,-0.003961,0.005619,-100.570633,103.700592,-119.874237,60.187687,24.830153,13.091616,9.489835,-1.0,-1.0,100.571983,0.184963,3.12659,-0.027745,-1.615437
832646.804356,0.12933504,0.26989272000000003,9.76195062,0.002742,0.0015,0.00535,-100.505768,103.674332,-119.782928,60.187687,24.830153,13.091616,9.489835,-1.0,-1.0,100.571983,0.184963,3.126583,-0.027753,-1.61544
832646.824342,0.13397517,0.26989272000000003,9.768385980000001,0.001857,-0.000923,0.004291,-100.648361,103.653702,-120.25618,60.187687,24.830153,13.091616,9.489835,-1.0,-1.0,100.571983,0.184963,3.126581,-0.027749,-1.615452
832646.844328,0.14474655,0.265851,9.77632227,0.005218,-0.001648,0.003983,-100.878159,103.397598,-120.009262,60.187687,24.830153,13.091616,9.489835,-1.0,-1.0,100.571983,0.184963,3.126601,-0.027744,-1.615447
832646.864313,0.13936086,0.27662238,9.76434426,0.001885,0.002687,0.004724,-100.784302,103.508911,-119.798203,60.187687,24.830153,13.091616,9.489835,-1.0,-1.0,100.571983,0.184963,3.126597,-0.027756,-1.615453
832646.884299,0.1300806,0.26644941,9.78649524,0.004595,-0.002669,0.00363,-100.899292,103.710098,-120.147049,60.187687,24.830153,13.091616,9.489835,-1.0,-1.0,100.571983,0.184963,3.126619,-0.027757,-1.615461
832646.904285,0.12738285000000002,0.26989272000000003,9.78515127,0.003812,0.000516,0.002944,-100.92572,103.541763,-119.586655,60.187687,24.830153,13.091616,9.489835,-1.0,-1.0,100.571983,0.184963,3.126619,-0.027757,-1.615466
832646.924271,0.12977649,0.27542556,9.764491410000002,0.001704,0.000168,0.004146,-100.755478,103.607498,-120.024292,60.187687,24.830153,13.091616,9.489835,-1.0,-1.0,100.571983,0.184963,3.126621,-0.027764,-1.615466
832646.924271,0.12977649,0.27542556,9.764491410000002,0.001704,0.000168,0.004146,-100.755478,103.607498,-120.024292,60.187687,24.830153,13.091616,9.489835,-1.0,-1.0,100.571983,0.184963,3.126621,-0.027764,-1.615466
832646.964243,0.13517199,0.28081125,9.791292330000001,0.001774,0.001852,0.003526,-100.71492,103.621689,-119.694397,60.187687,24.830153,13.091616,9.489835,-1.0,-1.0,100.571983,0.184963,3.126621,-0.027748,-1.61547
832646.984229,0.12513636,0.27078543,9.76943565,0.003468,-0.002291,0.005249,-100.771896,103.669647,-119.583267,60.187687,24.830153,13.091616,9.489835,-1.0,-1.0,100.571983,0.184963,3.126624,-0.027747,-1.615462
832647.004215,0.13426947,0.27123669,9.77422293,0.00434,-0.001093,0.005272,-100.927734,103.769577,-119.731079,60.187687,24.830153,13.091616,9.489835,-1.0,-1.0,100.571983,0.184963,3.12662,-0.027757,-1.615464
832647.0242,0.14923953,0.26135802,9.78904584,0.001882,0.002089,0.003675,-100.916473,103.427383,-119.823135,60.187687,24.830153,13.091616,9.489835,-1.0,-1.0,100.571983,0.184963,3.126631,-0.027763,-1.61547
832647.064172,0.12020193000000001,0.28680516,9.784101600000001,0.004333,-0.001101,0.004801,-100.70636,103.553436,-119.848282,60.187687,24.830153,13.091616,9.489835,-1.0,-1.0,100.571983,0.184963,3.12664,-0.027767,-1.615467
832647.084158,0.13157172,0.27932013,9.796530870000002,0.001825,0.001345,0.004048,-100.768982,103.427124,-119.904068,60.187687,24.830153,13.091616,9.489835,-1.0,-1.0,100.571983,0.184963,3.126642,-0.027782,-1.615471
832647.104144,0.12693159,0.26569404,9.77407578,0.003072,-0.002744,0.003109,-100.735565,103.347519,-120.044724,60.187687,24.830153,13.091616,9.489835,-1.0,-1.0,100.571983,0.184963,3.126641,-0.027787,-1.615454
832647.104144,0.12693159,0.26569404,9.77407578,0.003072,-0.002744,0.003109,-100.735565,103.347519,-120.044724,60.187687,24.830153,13.091616,9.489835,-1.0,-1.0,100.571983,0.184963,3.126641,-0.027787,-1.615454
832647.144116,0.13457358,0.26689086,9.759409830000001,0.000797,-0.001116,0.00531,-100.487991,103.428528,-119.647446,60.187687,24.830153,13.091616,9.489835,-1.0,-1.0,100.571983,0.184963,3.126654,-0.027792,-1.615435
832647.164102,0.11420802000000001,0.27243351000000005,9.7695828,0.003151,-0.001771,0.005229,-100.511551,103.581375,-119.873672,60.187687,24.830153,13.091616,9.489835,-1.0,-1.0,100.571983,0.184963,3.126659,-0.027773,-1.615436
832647.184088,0.13412232000000002,0.27288477000000005,9.77377167,0.002277,0.001602,0.004652,-100.560532,103.526871,-119.997513,60.187687,24.830153,13.091616,9.489835,-1.0,-1.0,100.571983,0.184963,3.126657,-0.027787,-1.615438
832647.184088,0.13412232000000002,0.27288477000000005,9.77377167,0.002277,0.001602,0.004652,-100.560532,103.526871,-119.997513,60.187687,24.830153,13.091616,9.489835,-1.0,-1.0,100.571983,0.184963,3.126657,-0.027787,-1.615438
832647.224059,0.13412232000000002,0.27003987,9.75865446,0.003521,0.000576,0.003803,-100.537842,103.592255,-119.760391,60.187687,24.830153,13.091616,9.489835,-1.0,-1.0,100.571983,0.184963,3.126692,-0.027791,-1.61543
832647.224059,0.13412232000000002,0.27003987,9.75865446,0.003521,0.000576,0.003803,-100.537842,103.592255,-119.760391,60.187687,24.830153,13.091616,9.489835,-1.0,-1.0,100.571983,0.184963,3.126692,-0.027791,-1.61543
832647.244045,0.13636881,0.29233800000000004,9.7664436,0.0012,-8.7e-05,0.002746,-100.475204,103.4991,-119.669907,60.187687,24.830153,13.091616,9.489835,-1.0,-1.0,100.571983,0.184963,3.126695,-0.027794,-1.615429
832647.284017,0.1360647,0.26719497000000003,9.77797035,0.004442,0.003026,0.004213,-100.706787,103.65773,-120.064728,60.187687,24.830153,13.091616,9.489835,-1.0,-1.0,100.571983,0.184963,3.126737,-0.027778,-1.615413
832647.304003,0.11989782,0.27422874,9.77317326,0.000468,-0.001433,0.0029,-100.518234,103.554932,-119.867142,60.187687,24.830153,13.091616,9.489835,-1.0,-1.0,100.571983,0.184963,3.126752,-0.027785,-1.615422
832647.343975,0.13591755,0.27198225000000004,9.77991273,0.001876,0.002451,0.003692,-100.50293,103.689224,-119.759369,60.187687,24.830153,13.091616,9.489835,-1.0,-1.0,100.571983,0.184963,3.126744,-0.027786,-1.615418
832647.343975,0.13591755,0.27198225000000004,9.77991273,0.001876,0.002451,0.003692,-100.50293,103.689224,-119.759369,60.187687,24.830153,13.091616,9.489835,-1.0,-1.0,100.571983,0.184963,3.126744,-0.027786,-1.615418
832647.383947,0.13053186,0.28500993,9.771976440000001,0.005355,-0.00137,0.003968,-100.582855,103.462494,-120.023438,60.187687,24.830153,13.091616,9.489835,-1.0,-1.0,100.571983,0.184963,3.126766,-0.027776,-1.61542
832647.403932,0.13921371000000002,0.28845324,9.78275763,0.002293,0.000851,0.003688,-100.49585,103.519745,-119.792053,60.187687,24.830153,13.091616,9.489835,-1.0,-1.0,100.571983,0.184963,3.126763,-0.027777,-1.615417
832647.403932,0.13921371000000002,0.28845324,9.78275763,0.002293,0.000851,0.003688,-100.49585,103.519745,-119.792053,60.187687,24.830153,13.091616,9.489835,-1.0,-1.0,100.571983,0.184963,3.126763,-0.027777,-1.615417
