timestamp,accel_x,accel_y,accel_z,gyro_x,gyro_y,gyro_z,mag_x,mag_y,mag_z,gps_lat,gps_lon,gps_alt,gps_accuracy,gps_speed,gps_course,pressure,altitude,roll,pitch,yaw
842475.377048,-9.4279986,-0.14818986,-2.69364942,0.011009,0.022216,0.004617,-117.071793,104.867752,-192.751648,60.187613,24.830123,11.977013,15.5201,-1.0,-1.0,100.614403,-1.093918,-1.292087,0.023286,-1.919679
842475.397035,-9.43233462,-0.23980545000000003,-2.71924371,0.006935,-0.000348,0.003686,-117.152222,105.077652,-192.655426,60.187613,24.830123,11.977013,15.5201,-1.0,-1.0,100.614403,-1.093918,-1.292099,0.023279,-1.919655
842475.417022,-9.521252460000001,-0.23964849,-2.6846634600000003,-0.001753,0.001578,0.003886,-117.102432,104.788727,-192.793579,60.187613,24.830123,11.977013,15.5201,-1.0,-1.0,100.614403,-1.093918,-1.292132,0.023296,-1.919619
842475.437008,-9.41362695,-0.22872015,-2.76684183,0.001472,-0.003957,0.003308,-117.107132,104.720871,-192.754608,60.187613,24.830123,11.977013,15.5201,-1.0,-1.0,100.614403,-1.093918,-1.292096,0.023294,-1.919663
842475.456995,-9.46332441,-0.22572810000000001,-2.70951219,0.005903,-0.004082,0.003882,-117.079803,104.796417,-192.782822,60.187613,24.830123,11.977013,15.5201,-1.0,-1.0,100.614403,-1.093918,-1.292105,0.023299,-1.919699
842475.476982,-9.477087840000001,-0.26853894,-2.6355644099999997,0.002198,0.005484,0.003453,-116.854507,104.762512,-192.917023,60.187613,24.830123,11.977013,15.5201,-1.0,-1.0,100.614403,-1.093918,-1.292108,0.023302,-1.91967
842475.496969,-9.4049451,-0.20926692000000002,-2.75157747,0.004379,0.002117,0.003231,-116.752731,104.938553,-192.50975,60.187613,24.830123,11.977013,15.5201,-1.0,-1.0,100.614403,-1.093918,-1.292087,0.023301,-1.919671
842475.536942,-9.45972414,-0.25327458,-2.68226982,0.001029,-0.001756,0.004182,-116.874039,104.719574,-192.778214,60.187613,24.830123,11.977013,15.5201,-1.0,-1.0,100.614403,-1.093918,-1.292103,0.023309,-1.919668
842475.536942,-9.45972414,-0.25327458,-2.68226982,0.001029,-0.001756,0.004182,-116.874039,104.719574,-192.778214,60.187613,24.830123,11.977013,15.5201,-1.0,-1.0,100.614403,-1.093918,-1.292103,0.023309,-1.919668
842475.576916,-9.460930770000001,-0.24309180000000002,-2.66834943,0.002053,0.000246,0.004055,-117.077377,104.552185,-193.060028,60.187613,24.830123,11.977013,15.5201,-1.0,-1.0,100.614403,-1.093918,-1.292097,0.023317,-1.919628
842475.576916,-9.460930770000001,-0.24309180000000002,-2.66834943,0.002053,0.000246,0.004055,-117.077377,104.552185,-193.060028,60.187613,24.830123,11.977013,15.5201,-1.0,-1.0,100.614403,-1.093918,-1.292097,0.023317,-1.919628
842475.616889,-9.433531440000001,-0.22543380000000002,-2.7559233,0.00429,-0.002273,0.002736,-117.116943,104.592865,-192.888138,60.187613,24.830123,11.977013,15.5201,-1.0,-1.0,100.614403,-1.093918,-1.292102,0.023324,-1.91966
842475.616889,-9.433531440000001,-0.22543380000000002,-2.7559233,0.00429,-0.002273,0.002736,-117.116943,104.592865,-192.888138,60.187613,24.830123,11.977013,15.5201,-1.0,-1.0,100.614403,-1.093918,-1.292102,0.023324,-1.91966
842475.656863,-9.4453623,-0.24249339000000003,-2.69350227,0.003483,0.00108,0.004239,-116.957428,104.785095,-192.848434,60.187613,24.830123,11.977013,15.5201,-1.0,-1.0,100.614403,-1.093918,-1.292099,0.023333,-1.919634
842475.656863,-9.4453623,-0.24249339000000003,-2.69350227,0.003483,0.00108,0.004239,-116.957428,104.785095,-192.848434,60.187613,24.830123,11.977013,15.5201,-1.0,-1.0,100.614403,-1.093918,-1.292099,0.023333,-1.919634
842475.696836,-9.46376586,-0.2456424,-2.68870518,0.000811,0.001313,0.004092,-117.032944,104.81546,-193.108612,60.187613,24.830123,11.977013,15.5201,-1.0,-1.0,100.614403,-1.093918,-1.292108,0.023353,-1.919646
842475.716823,-9.45583938,-0.22273605000000002,-2.70742266,0.005401,-0.000739,0.0045,-116.671082,104.678268,-192.716873,60.187613,24.830123,11.977013,15.5201,-1.0,-1.0,100.614403,-1.093918,-1.2921,0.023348,-1.919654
842475.73681,-9.43592508,-0.21046374,-2.71984212,0.00401,-0.002713,0.004015,-117.133499,104.591187,-193.00145,60.187613,24.830123,11.977013,15.5201,-1.0,-1.0,100.614403,-1.093918,-1.292107,0.023342,-1.919652
842475.756797,-9.47349738,-0.23755896,-2.68212267,0.001881,0.002135,0.00393,-116.956726,104.515533,-192.871185,60.187613,24.830123,11.977013,15.5201,-1.0,-1.0,100.614403,-1.093918,-1.292114,0.023341,-1.919635
842475.776783,-9.4598811,-0.24354306000000003,-2.7129555000000005,0.003329,-0.002369,0.00511,-116.880066,104.626358,-193.070114,60.187613,24.830123,11.977013,15.5201,-1.0,-1.0,100.614403,-1.093918,-1.29212,0.023322,-1.919647
842475.776783,-9.4598811,-0.24354306000000003,-2.7129555000000005,0.003329,-0.002369,0.00511,-116.880066,104.626358,-193.070114,60.187613,24.830123,11.977013,15.5201,-1.0,-1.0,100.614403,-1.093918,-1.29212,0.023322,-1.919647
842475.776783,-9.4598811,-0.24354306000000003,-2.7129555000000005,0.003329,-0.002369,0.00511,-116.880066,104.626358,-193.070114,60.187613,24.830123,11.977013,15.5201,-1.0,-1.0,100.614403,-1.093918,-1.29212,0.023322,-1.919647
842475.836744,-9.446255010000002,-0.22737618,-2.71520199,0.00365,-0.001135,0.002622,-116.840286,104.744675,-192.769989,60.187613,24.830123,11.977013,15.5201,-1.0,-1.0,100.614403,-1.093918,-1.292105,0.023321,-1.919632
842475.85673,-9.44685342,-0.22393287,-2.7243351000000002,0.002427,0.001811,0.004292,-116.815079,104.69574,-192.398361,60.187613,24.830123,11.977013,15.5201,-1.0,-1.0,100.614464,-1.099205,-1.292106,0.023333,-1.919642
842475.876717,-9.46332441,-0.23980545000000003,-2.68900929,0.003265,-9.3e-05,0.004801,-116.996826,104.611649,-192.963913,60.187613,24.830123,11.977013,15.5201,-1.0,-1.0,100.614464,-1.099205,-1.292106,0.02334,-1.91963
842475.896704,-9.45254322,-0.21330864,-2.7184981500000003,0.00344,-0.001643,0.005048,-117.081512,104.522614,-192.541718,60.187613,24.830123,11.977013,15.5201,-1.0,-1.0,100.614464,-1.099205,-1.292096,0.023321,-1.919634
842475.916691,-9.4453623,-0.2282787,-2.7039793500000004,0.002671,0.001411,0.004121,-116.808365,104.712082,-192.590134,60.187613,24.830123,11.977013,15.5201,-1.0,-1.0,100.614464,-1.099205,-1.292098,0.023336,-1.919625
842475.936677,-9.45897858,-0.2282787,-2.69214849,0.004332,-0.00081,0.004028,-116.69046,104.449982,-192.239334,60.187613,24.830123,11.977013,15.5201,-1.0,-1.0,100.614464,-1.099205,-1.29209,0.023327,-1.919615
842475.956664,-9.44460693,-0.23036823,-2.71445643,0.000329,5.3e-05,0.004633,-116.872574,104.494797,-192.421173,60.187613,24.830123,11.977013,15.5201,-1.0,-1.0,100.614464,-1.099205,-1.292079,0.023331,-1.919603
842475.976651,-9.45074799,-0.22722903,-2.70502902,0.003642,-6.2e-05,0.002287,-116.69368,104.597443,-192.368393,60.187613,24.830123,11.977013,15.5201,-1.0,-1.0,100.614464,-1.099205,-1.292098,0.023336,-1.91959
842475.996638,-9.42680178,-0.16390548000000002,-2.7211959000000006,-0.001232,-0.008781,0.004075,-116.69368,104.597443,-192.368393,60.187613,24.830123,11.977013,15.5201,-1.0,-1.0,100.614464,-1.099205,-1.292078,0.023365,-1.919569
842476.016625,-9.489811410000002,-0.22034241,-2.66970321,-0.003017,-0.001077,0.006243,-116.75528,104.488449,-192.155212,60.187613,24.830123,11.977013,15.5201,-1.0,-1.0,100.614464,-1.099205,-1.29217,0.023424,-1.919694
842476.036611,-9.452690370000001,-0.20327301,-2.7222357600000002,0.008812,0.007552,0.005218,-116.907104,104.633133,-192.357758,60.187613,24.830123,11.977013,15.5201,-1.0,-1.0,100.614464,-1.099205,-1.292225,0.023418,-1.919857
842476.056598,-9.38039067,-0.23516532,-2.75996502,0.00598,-0.002698,0.007815,-116.880508,104.439316,-192.507751,60.187613,24.830123,11.977013,15.5201,-1.0,-1.0,100.614464,-1.099205,-1.292158,0.023429,-1.919827
842476.076585,-9.52214517,-0.19444401,-2.64993606,3.7e-05,0.000463,0.006754,-116.876282,104.343277,-192.463165,60.187613,24.830123,11.977013,15.5201,-1.0,-1.0,100.614464,-1.099205,-1.292232,0.023413,-1.919775
842476.096572,-9.446255010000002,-0.25686504,-2.68482042,0.000201,0.000108,0.003893,-116.838776,104.2715,-192.393723,60.187613,24.830123,11.977013,15.5201,-1.0,-1.0,100.614464,-1.099205,-1.292198,0.023405,-1.91977
842476.116558,-9.43323714,-0.19414971,-2.7276312600000003,0.004247,0.004733,0.003182,-116.706421,104.143509,-192.655624,60.187613,24.830123,11.977013,15.5201,-1.0,-1.0,100.614464,-1.099205,-1.29213,0.023416,-1.919838
842476.136545,-9.39131901,-0.38036313000000005,-2.6716455900000002,0.000111,0.005316,0.008021,-116.909943,104.181442,-192.630173,60.187613,24.830123,11.977013,15.5201,-1.0,-1.0,100.614464,-1.099205,-1.292041,0.023441,-1.919841
842476.156532,-9.513021870000001,-0.18427104,-2.7268758900000005,0.016504,0.007824,0.013446,-116.957108,104.28299,-192.336273,60.187613,24.830123,11.977013,15.5201,-1.0,-1.0,100.614464,-1.099205,-1.292108,0.023334,-1.919875
842476.176519,-9.40898682,-0.23830452000000002,-2.79993096,0.012235,-0.006001,0.002712,-117.084747,104.354156,-192.454468,60.187613,24.830123,11.977013,15.5201,-1.0,-1.0,100.614464,-1.099205,-1.291966,0.02322,-1.919616
842476.216492,-9.39131901,-0.44382402,-2.75652171,0.036158,0.000404,0.012073,-117.246948,104.493729,-192.413132,60.187613,24.830123,11.977013,15.5201,-1.0,-1.0,100.614464,-1.099205,-1.291674,0.023152,-1.918811
842476.236479,-9.37979226,-0.5029587000000001,-2.68257393,0.017685,-0.026955,-0.005344,-117.242065,104.617401,-192.259811,60.187613,24.830123,11.977013,15.5201,-1.0,-1.0,100.614464,-1.099205,-1.291498,0.023129,-1.918174
842476.256466,-9.44311581,-0.49756320000000004,-2.6984367,-0.013769,-0.007557,0.000104,-118.232056,105.095856,-192.334213,60.187613,24.830123,11.977013,15.5201,-1.0,-1.0,100.614464,-1.099205,-1.291647,0.023361,-1.917913
842476.276453,-9.545797080000002,-0.38065743,-2.55473982,-0.04606,0.000359,-0.006804,-119.503387,105.27507,-192.728745,60.187613,24.830123,11.977013,15.5201,-1.0,-1.0,100.614464,-1.099205,-1.291584,0.023433,-1.918208
842476.296439,-9.5321808,-0.30641535000000003,-2.63422044,-0.051814,0.011995,-0.014012,-120.920395,104.700012,-192.641907,60.187613,24.830123,11.977013,15.5201,-1.0,-1.0,100.614464,-1.099205,-1.291472,0.023393,-1.919153
842476.296439,-9.5321808,-0.30641535000000003,-2.63422044,-0.051814,0.011995,-0.014012,-120.920395,104.700012,-192.641907,60.187613,24.830123,11.977013,15.5201,-1.0,-1.0,100.614464,-1.099205,-1.291472,0.023393,-1.919153
842476.336413,-9.43443396,-0.29788065,-2.73107457,-0.041085,0.01249,-0.000952,-122.216934,102.691742,-193.537064,60.187613,24.830123,11.977013,15.5201,-1.0,-1.0,100.614464,-1.099205,-1.291186,0.023274,-1.92124
842476.336413,-9.43443396,-0.29788065,-2.73107457,-0.041085,0.01249,-0.000952,-122.216934,102.691742,-193.537064,60.187613,24.830123,11.977013,15.5201,-1.0,-1.0,100.614464,-1.099205,-1.291186,0.023274,-1.92124
842476.3564,-9.401354640000001,-0.23545962,-2.65607712,-0.066926,0.001898,-0.014073,-121.474548,101.721832,-194.26828,60.187613,24.830123,11.977013,15.5201,-1.0,-1.0,100.614464,-1.099205,-1.29089,0.02316,-1.922126
842476.3564,-9.401354640000001,-0.23545962,-2.65607712,-0.066926,0.001898,-0.014073,-121.474548,101.721832,-194.26828,60.187613,24.830123,11.977013,15.5201,-1.0,-1.0,100.614464,-1.099205,-1.29089,0.02316,-1.922126
842476.41636,-9.4516407,-0.21450546,-3.1763995200000004,0.006428,-0.033686,0.007814,-118.123138,101.68811,-193.649399,60.187613,24.830123,11.977013,15.5201,-1.0,-1.0,100.614464,-1.099205,-1.29081,0.023053,-1.925973
842476.436347,-9.727821630000001,-0.07139718,-2.68736121,0.005485,-0.012096,0.024178,-117.421844,102.219223,-193.37175,60.187613,24.830123,11.977013,15.5201,-1.0,-1.0,100.614464,-1.099205,-1.29063,0.023036,-1.925877
842476.456334,-9.67842828,-0.27273762,-2.63332773,-0.008677,-0.002293,-0.002225,-116.92659,102.680283,-193.412842,60.187613,24.830123,11.977013,15.5201,-1.0,-1.0,100.614464,-1.099205,-1.290417,0.0228,-1.925561
842476.47632,-9.281594160000001,-0.25626663,-2.9773055700000004,0.014957,-0.015992,0.002166,-116.357925,103.165543,-193.099991,60.187613,24.830123,11.977013,15.5201,-1.0,-1.0,100.614464,-1.099205,-1.290412,0.022788,-1.925719
842476.496307,-9.26812503,-0.03398184,-2.80142208,0.011268,-0.051714,0.00401,-116.280273,103.615875,-193.612747,60.187613,24.830123,11.977013,15.5201,-1.0,-1.0,100.614464,-1.099205,-1.290959,0.022848,-1.925625
842476.496307,-9.26812503,-0.03398184,-2.80142208,0.011268,-0.051714,0.00401,-116.280273,103.615875,-193.612747,60.187613,24.830123,11.977013,15.5201,-1.0,-1.0,100.614464,-1.099205,-1.290959,0.022848,-1.925625
842476.536281,-9.327406860000002,0.2630061,-2.5038455400000004,-0.088876,-0.155124,-0.023272,-116.388397,103.129089,-193.050583,60.187613,24.830123,11.977013,15.5201,-1.0,-1.0,100.614464,-1.099205,-1.294103,0.022947,-1.926301
842476.556268,-9.338031090000001,0.07499745000000001,-2.62539144,-0.146406,-0.239241,-0.037464,-117.045776,102.579803,-193.363693,60.187613,24.830123,11.977013,15.5201,-1.0,-1.0,100.614464,-1.099205,-1.296875,0.022958,-1.928166
842476.576254,-9.13206033,-0.09071307,-2.6661029400000005,-0.201708,-0.328383,-0.066197,-118.695984,101.426788,-193.52536,60.187613,24.830123,11.977013,15.5201,-1.0,-1.0,100.614464,-1.099205,-1.301335,0.022984,-1.931164
842476.576254,-9.13206033,-0.09071307,-2.6661029400000005,-0.201708,-0.328383,-0.066197,-118.695984,101.426788,-193.52536,60.187613,24.830123,11.977013,15.5201,-1.0,-1.0,100.614464,-1.099205,-1.301335,0.022984,-1.931164
842476.616228,-9.386080470000001,-0.36090009000000006,-2.90785077,-0.275377,-0.391758,-0.05267,-123.14917,101.606628,-193.216522,60.187613,24.830123,11.977013,15.5201,-1.0,-1.0,100.614464,-1.099205,-1.315334,0.022639,-1.940419
842476.636215,-9.31947057,-0.31898196000000006,-2.7981357300000003,-0.27006,-0.474329,-0.047738,-123.832794,103.239746,-192.187668,60.187613,24.830123,11.977013,15.5201,-1.0,-1.0,100.614464,-1.099205,-1.323243,0.022351,-1.94606
842476.656202,-9.2085489,-0.36898353,-2.75636475,-0.295041,-0.627621,-0.065307,-123.62291,104.329086,-191.303314,60.187613,24.830123,11.977013,15.5201,-1.0,-1.0,100.614464,-1.099205,-1.332502,0.022086,-1.95172
842476.676188,-9.22097817,0.00628821,-2.6746376400000003,-0.261558,-0.72854,-0.055375,-123.109848,105.540237,-190.281799,60.187613,24.830123,11.977013,15.5201,-1.0,-1.0,100.614464,-1.099205,-1.344609,0.022044,-1.957729
842476.696175,-9.286685550000001,-0.14759145,-2.10896361,-0.291339,-0.82714,-0.043254,-122.019943,105.854355,-189.535553,60.187613,24.830123,11.977013,15.5201,-1.0,-1.0,100.614464,-1.099205,-1.35884,0.022047,-1.963437
842476.716162,-9.25360623,-0.18681183,-2.64125421,-0.259685,-0.939532,-0.044954,-122.019943,105.854355,-189.535553,60.187613,24.830123,11.977013,15.5201,-1.0,-1.0,100.614464,-1.099205,-1.375088,0.021884,-1.969184
842476.736149,-8.82759717,-0.39787398,-2.35819647,-0.264395,-1.094989,-0.034676,-120.860825,105.75354,-188.562866,60.187613,24.830123,11.977013,15.5201,-1.0,-1.0,100.614464,-1.099205,-1.393318,0.021807,-1.974592
842476.756136,-8.98521444,-0.11496339000000001,-1.9871136,-0.265319,-1.238576,-0.016347,-120.069122,104.651352,-188.105774,60.187613,24.830123,11.977013,15.5201,-1.0,-1.0,100.614464,-1.099205,-1.414591,0.02164,-1.979834
842476.776122,-9.19298043,-0.08157996,-1.4468867100000002,-0.278392,-1.322081,-0.006754,-120.025604,103.224304,-187.649124,60.187613,24.830123,11.977013,15.5201,-1.0,-1.0,100.614464,-1.099205,-1.438672,0.021323,-1.98512
842476.796109,-9.17786322,-0.18695898,-1.1201254200000001,-0.293327,-1.48143,0.015603,-120.964081,101.296051,-187.795731,60.187613,24.830123,11.977013,15.5201,-1.0,-1.0,100.614464,-1.099205,-1.465503,0.02088,-1.990773
842476.816096,-9.19582533,-0.41194152000000006,-0.88914897,-0.322677,-1.555688,0.036406,-123.762955,100.413544,-187.573715,60.187613,24.830123,11.977013,15.5201,-1.0,-1.0,100.614464,-1.099205,-1.4946,0.020206,-1.996704
842476.85607,-9.62962353,-0.55489284,-0.12917808,-0.295962,-1.593431,0.091162,-128.890701,104.209885,-183.887482,60.187613,24.830123,11.977013,15.5201,-1.0,-1.0,100.614464,-1.099205,-1.557814,0.017853,-2.009506
842476.85607,-9.62962353,-0.55489284,-0.12917808,-0.295962,-1.593431,0.091162,-128.890701,104.209885,-183.887482,60.187613,24.830123,11.977013,15.5201,-1.0,-1.0,100.614464,-1.099205,-1.557814,0.017853,-2.009506
842476.896043,-13.253437530000001,0.0005984100000000001,2.28230631,-0.099601,-1.149212,0.613949,-128.578171,106.587433,-182.160873,60.187613,24.830123,11.977013,15.5201,-1.0,-1.0,100.614464,-1.099205,-1.61091,0.00358,-2.017536
842476.896043,-13.253437530000001,0.0005984100000000001,2.28230631,-0.099601,-1.149212,0.613949,-128.578171,106.587433,-182.160873,60.187613,24.830123,11.977013,15.5201,-1.0,-1.0,100.614464,-1.099205,-1.61091,0.00358,-2.017536
842476.936017,-10.694361690000001,0.10328949000000001,-0.18576216000000004,-0.041652,-0.581716,0.038579,-130.036469,105.176361,-181.894165,60.187613,24.830123,11.977013,15.5201,-1.0,-1.0,100.614464,-1.099205,-1.641102,0.001799,-2.018629
842476.956004,-10.634785560000001,0.3930867,0.24354306000000003,-0.010614,-0.44987,0.011078,-130.227692,105.321899,-181.495026,60.187613,24.830123,11.977013,15.5201,-1.0,-1.0,100.614464,-1.099205,-1.651837,0.001452,-2.019026
842476.97599,-10.145600100000001,0.17198892,0.42750999,0.00372,-0.417235,0.014835,-130.087173,104.991241,-181.138031,60.187613,24.830123,11.977013,15.5201,-1.0,-1.0,100.614464,-1.099205,-1.660844,0.001248,-2.019183
842476.97599,-10.145600100000001,0.17198892,0.42750999,0.00372,-0.417235,0.014835,-130.087173,104.991241,-181.138031,60.187613,24.830123,11.977013,15.5201,-1.0,-1.0,100.614464,-1.099205,-1.660844,0.001248,-2.019183
842477.015964,-9.69338853,0.14160735,0.78481962,-0.007149,-0.514298,0.024723,-127.747299,103.015274,-180.283768,60.187613,24.830123,11.977013,15.5201,-1.0,-1.0,100.614464,-1.099205,-1.678239,0.000786,-2.019197
842477.035951,-9.58546872,-0.16794720000000002,0.8689403700000001,-0.055631,-0.652415,0.041024,-126.131729,102.736343,-179.536133,60.187613,24.830123,11.977013,15.5201,-1.0,-1.0,100.614464,-1.099205,-1.688541,0.00037,-2.019463
842477.055938,-9.55897191,-0.1764819,0.8385588,-0.091586,-0.787537,0.050206,-124.651062,103.144333,-178.287384,60.187613,24.830123,11.977013,15.5201,-1.0,-1.0,100.614464,-1.099205,-1.701364,-0.000199,-2.020708
842477.075924,-9.73275606,0.03008727,0.9053158500000001,-0.088184,-0.862072,0.046517,-123.935562,104.128464,-176.743759,60.187613,24.830123,11.977013,15.5201,-1.0,-1.0,100.614464,-1.099205,-1.716687,-0.000886,-2.02264
842477.095911,-9.71899263,0.07244685000000001,1.0553009400000002,-0.053998,-0.913154,0.037445,-124.343857,105.817108,-175.342026,60.187613,24.830123,11.977013,15.5201,-1.0,-1.0,100.614464,-1.099205,-1.733639,-0.001451,-2.024486
842477.095911,-9.71899263,0.07244685000000001,1.0553009400000002,-0.053998,-0.913154,0.037445,-124.343857,105.817108,-175.342026,60.187613,24.830123,11.977013,15.5201,-1.0,-1.0,100.614464,-1.099205,-1.733639,-0.001451,-2.024486
842477.135885,-9.62722989,-0.10568313,1.40961852,0.019363,-1.029014,0.013853,-126.454239,108.16626,-172.278549,60.187613,24.830123,11.977013,15.5201,-1.0,-1.0,100.614464,-1.099205,-1.771189,-0.002187,-2.026348
842477.155872,-9.50329035,-0.12424365,1.7610912000000003,0.045594,-1.076813,0.009021,-127.687943,108.372742,-171.786316,60.187613,24.830123,11.977013,15.5201,-1.0,-1.0,100.614464,-1.099205,-1.791709,-0.00243,-2.02614
842477.175859,-9.41721741,-0.23920704,2.01496419,0.042524,-1.144667,0.007054,-128.291977,108.71225,-170.864777,60.187613,24.830123,11.977013,15.5201,-1.0,-1.0,100.614464,-1.099205,-1.813234,-0.002703,-2.025447
842477.175859,-9.41721741,-0.23920704,2.01496419,0.042524,-1.144667,0.007054,-128.291977,108.71225,-170.864777,60.187613,24.830123,11.977013,15.5201,-1.0,-1.0,100.614464,-1.099205,-1.813234,-0.002703,-2.025447
842477.215832,-9.18145368,0.17124336,2.70053604,0.116133,-1.200541,-0.014967,-128.549377,108.355103,-168.335205,60.187613,24.830123,11.977013,15.5201,-1.0,-1.0,100.614464,-1.099205,-1.859569,-0.003293,-2.023704
842477.235819,-9.83410317,0.57914316,2.94752241,0.148845,-1.08301,0.057733,-129.055038,108.709473,-167.205597,60.187613,24.830123,11.977013,15.5201,-1.0,-1.0,100.614464,-1.099205,-1.883363,-0.003752,-2.021643
842477.255806,-9.54519867,0.11032326000000002,2.65697964,0.172112,-1.084351,-0.086491,-129.753738,108.228516,-166.579575,60.187613,24.830123,11.977013,15.5201,-1.0,-1.0,100.614464,-1.099205,-1.904952,-0.005231,-2.018785
842477.275793,-9.99126918,0.0378666,3.2527311300000004,0.1753,-0.965472,0.010136,-129.98616,108.174454,-165.315231,60.187613,24.830123,11.977013,15.5201,-1.0,-1.0,100.614464,-1.099205,-1.926158,-0.004859,-2.014992
842477.295779,-8.24664897,0.15837263999999998,3.7729063800000002,0.150767,-0.882562,-0.070439,-129.949417,107.716248,-164.702957,60.187613,24.830123,11.977013,15.5201,-1.0,-1.0,100.614464,-1.099205,-1.94618,-0.005773,-2.012025
842477.295779,-8.24664897,0.15837263999999998,3.7729063800000002,0.150767,-0.882562,-0.070439,-129.949417,107.716248,-164.702957,60.187613,24.830123,11.977013,15.5201,-1.0,-1.0,100.614464,-1.099205,-1.94618,-0.005773,-2.012025
842477.335753,-8.541537570000001,0.22632651000000004,4.000733820000001,0.152269,-0.890818,-0.036951,-131.069229,106.607758,-164.327957,60.187613,24.830123,11.977013,15.5201,-1.0,-1.0,100.614464,-1.099205,-1.984682,-0.006961,-2.005995
842477.35574,-9.14088933,0.31434183000000004,4.62493431,0.140874,-0.819383,0.033035,-131.258698,105.585175,-163.666336,60.187613,24.830123,11.977013,15.5201,-1.0,-1.0,100.614464,-1.099205,-2.002786,-0.007739,-2.003024
842477.375727,-8.40382479,-0.28620675,4.90964013,0.091491,-0.821571,-0.002335,-131.123062,104.669754,-163.484772,60.187613,24.830123,11.977013,15.5201,-1.0,-1.0,100.614464,-1.099205,-2.019605,-0.009167,-2.000685
842477.395714,-8.438699340000001,-0.54022689,5.038072650000001,0.047931,-0.803208,0.027639,-130.706558,104.283875,-162.886414,60.187613,24.830123,11.977013,15.5201,-1.0,-1.0,100.614464,-1.099205,-2.035946,-0.010027,-1.999018
842477.4157,-8.8066332,-0.5089428,4.73660154,0.017867,-0.76921,0.028067,-130.524536,104.255173,-162.164154,60.187613,24.830123,11.977013,15.5201,-1.0,-1.0,100.614464,-1.099205,-2.051962,-0.010776,-1.998287
842477.435687,-8.422983720000001,0.01616688,4.69768527,0.005525,-0.769477,0.047261,-130.25238,104.29567,-161.330765,60.187613,24.830123,11.977013,15.5201,-1.0,-1.0,100.614464,-1.099205,-2.067518,-0.011433,-1.99831
842477.455674,-8.546177700000001,0.22048956,4.724623530000001,0.011614,-0.77698,0.037214,-130.25238,104.29567,-161.330765,60.187613,24.830123,11.977013,15.5201,-1.0,-1.0,100.614464,-1.099205,-2.08296,-0.012225,-1.998704
842477.475661,-8.44034742,0.09894366,4.67568144,0.011885,-0.812623,0.041464,-129.895035,104.407639,-160.394165,60.187613,24.830123,11.977013,15.5201,-1.0,-1.0,100.614464,-1.099205,-2.09857,-0.012893,-1.998942
842477.495648,-8.382870630000001,0.11346246,4.80904839,0.009008,-0.867409,0.043426,-129.638794,104.419037,-159.887985,60.187613,24.830123,11.977013,15.5201,-1.0,-1.0,100.614464,-1.099205,-2.114849,-0.013612,-1.99922
842477.495648,-8.382870630000001,0.11346246,4.80904839,0.009008,-0.867409,0.043426,-129.638794,104.419037,-159.887985,60.187613,24.830123,11.977013,15.5201,-1.0,-1.0,100.614464,-1.099205,-2.114849,-0.013612,-1.99922
842477.515635,-8.316103770000002,0.20462679,4.9472124299999996,0.019137,-0.905706,0.038907,-129.449554,104.257065,-158.808655,60.187613,24.830123,11.977013,15.5201,-1.0,-1.0,100.614464,-1.099205,-2.132079,-0.014327,-1.999527
842477.535621,-8.18991774,0.23845167,5.13791883,0.032954,-0.930308,0.039066,-129.074234,104.282532,-157.977142,60.187613,24.830123,11.977013,15.5201,-1.0,-1.0,100.614464,-1.099205,-2.15013,-0.015094,-1.999643
842477.535621,-8.18991774,0.23845167,5.13791883,0.032954,-0.930308,0.039066,-129.074234,104.282532,-157.977142,60.187613,24.830123,11.977013,15.5201,-1.0,-1.0,100.614464,-1.099205,-2.15013,-0.015094,-1.999643
842477.535621,-8.18991774,0.23845167,5.13791883,0.032954,-0.930308,0.039066,-129.074234,104.282532,-157.977142,60.187613,24.830123,11.977013,15.5201,-1.0,-1.0,100.614464,-1.099205,-2.15013,-0.015094,-1.999643
842477.615569,-7.53039144,0.11465928000000002,6.13184841,0.059434,-0.941249,0.034958,-127.760071,103.309555,-154.440125,60.187613,24.830123,11.977013,15.5201,-1.0,-1.0,100.614464,-1.099205,-2.224674,-0.018466,-2.000074
842477.635556,-7.9736170500000005,-0.025751250000000003,5.930517780000001,0.091712,-0.953448,0.010387,-127.342804,102.665176,-153.542511,60.187613,24.830123,11.977013,15.5201,-1.0,-1.0,100.614464,-1.099205,-2.243367,-0.019635,-1.999563
842477.655542,-7.21768788,0.03697389,6.07586274,0.077737,-1.033169,0.025959,-127.225861,102.507538,-152.652252,60.187613,24.830123,11.977013,15.5201,-1.0,-1.0,100.614464,-1.099205,-2.262596,-0.020872,-1.99835
842477.695516,-6.4204488,0.8541272700000001,6.5848055400000005,0.236137,-0.949083,0.001982,-126.06218,102.028519,-150.120804,60.187613,24.830123,11.977013,15.5201,-1.0,-1.0,100.614464,-1.099205,-2.301956,-0.024986,-1.994492
842477.695516,-6.4204488,0.8541272700000001,6.5848055400000005,0.236137,-0.949083,0.001982,-126.06218,102.028519,-150.120804,60.187613,24.830123,11.977013,15.5201,-1.0,-1.0,100.614464,-1.099205,-2.301956,-0.024986,-1.994492
842477.73549,-7.1757795600000005,0.17244018,6.4173096,0.26526,-1.046389,-0.032512,-124.951492,101.77063,-148.245239,60.187613,24.830123,11.977013,15.5201,-1.0,-1.0,100.614464,-1.099205,-2.34201,-0.029916,-1.988341
842477.755477,-6.4436494500000006,0.5601313800000001,6.82909416,0.256721,-1.112094,0.008291,-124.781128,101.717285,-147.862244,60.187613,24.830123,11.977013,15.5201,-1.0,-1.0,100.614464,-1.099205,-2.362842,-0.032953,-1.98441
842477.775463,-6.22165896,0.46118772,6.68554443,0.243192,-1.25206,0.04104,-123.98111,101.607864,-147.111191,60.187613,24.830123,11.977013,15.5201,-1.0,-1.0,100.614464,-1.099205,-2.38523,-0.036687,-1.980824
842477.775463,-6.22165896,0.46118772,6.68554443,0.243192,-1.25206,0.04104,-123.98111,101.607864,-147.111191,60.187613,24.830123,11.977013,15.5201,-1.0,-1.0,100.614464,-1.099205,-2.38523,-0.036687,-1.980824
842477.79545,-6.3141672600000005,0.6354329400000001,5.79130407,0.285775,-1.337963,0.075564,-122.587158,101.765182,-145.889801,60.187613,24.830123,11.977013,15.5201,-1.0,-1.0,100.614464,-1.099205,-2.409957,-0.04089,-1.977938
842477.835424,-5.61168297,0.63198963,7.17068817,0.340864,-1.53481,0.087179,-119.233688,102.215363,-143.563477,60.187613,24.830123,11.977013,15.5201,-1.0,-1.0,100.614464,-1.099205,-2.465533,-0.051736,-1.972069
842477.855411,-5.16157074,0.26465418,7.665406470000001,0.315502,-1.631266,0.133018,-116.966537,103.18988,-141.705734,60.187613,24.830123,11.977013,15.5201,-1.0,-1.0,100.614464,-1.099205,-2.496233,-0.057995,-1.969286
842477.855411,-5.16157074,0.26465418,7.665406470000001,0.315502,-1.631266,0.133018,-116.966537,103.18988,-141.705734,60.187613,24.830123,11.977013,15.5201,-1.0,-1.0,100.614464,-1.099205,-2.496233,-0.057995,-1.969286
842477.875398,-4.0300657200000005,-0.008377740000000002,8.09516295,0.257263,-1.716314,0.317177,-115.610992,105.040283,-139.92984,60.187613,24.830123,11.977013,15.5201,-1.0,-1.0,100.614464,-1.099205,-2.528905,-0.064621,-1.967785
842477.915371,-4.645290060000001,0.8906499,8.49334104,0.212056,-1.784055,0.453524,-118.195023,107.541702,-138.004913,60.187613,24.830123,11.977013,15.5201,-1.0,-1.0,100.614464,-1.099205,-2.599114,-0.08043,-1.974502
842477.935358,-4.06959021,1.42653096,8.28945981,0.269071,-1.68208,0.529572,-118.919769,106.500244,-137.90625,60.187613,24.830123,11.977013,15.5201,-1.0,-1.0,100.614464,-1.099205,-2.635245,-0.088631,-1.980182
842477.955345,-4.18454379,1.4293758600000002,9.37575054,0.24846,-1.650296,0.471466,-114.804047,105.627884,-136.919235,60.187613,24.830123,11.977013,15.5201,-1.0,-1.0,100.614464,-1.099205,-2.669927,-0.098036,-1.986896
842477.975332,-4.05387459,1.3469031900000001,9.55148688,0.216038,-1.569604,0.396091,-110.858627,107.173508,-134.341995,60.187613,24.830123,11.977013,15.5201,-1.0,-1.0,100.614464,-1.099205,-2.703735,-0.106699,-1.993342
842477.975332,-4.05387459,1.3469031900000001,9.55148688,0.216038,-1.569604,0.396091,-110.858627,107.173508,-134.341995,60.187613,24.830123,11.977013,15.5201,-1.0,-1.0,100.614464,-1.099205,-2.703735,-0.106699,-1.993342
842478.015305,-3.37068657,1.16981307,10.31954121,0.038633,-1.495477,0.203844,-112.149979,110.052063,-133.141205,60.187613,24.830123,11.977013,15.5201,-1.0,-1.0,100.614647,-1.115059,-2.766632,-0.118765,-2.002963
842478.035292,-3.33087759,1.27998918,9.839783160000001,0.005634,-1.397925,0.189591,-112.706299,109.661865,-132.9944,60.187613,24.830123,11.977013,15.5201,-1.0,-1.0,100.614647,-1.115059,-2.796851,-0.121108,-2.006544
842478.055279,-2.80321731,1.3961493900000002,9.49026267,0.022417,-1.273983,0.210307,-111.659668,108.118134,-132.398849,60.187613,24.830123,11.977013,15.5201,-1.0,-1.0,100.614647,-1.115059,-2.825142,-0.122366,-2.010146
842478.075266,-2.6655045299999998,1.4272863300000003,9.39700881,0.071561,-1.178494,0.249455,-108.865875,106.80397,-131.741028,60.187613,24.830123,11.977013,15.5201,-1.0,-1.0,100.614647,-1.115059,-2.851265,-0.12392,-2.013977
842478.095253,-1.87874253,1.4362624800000001,9.45089514,0.088441,-1.105526,0.28762,-105.815002,108.042816,-129.733566,60.187613,24.830123,11.977013,15.5201,-1.0,-1.0,100.614647,-1.115059,-2.87572,-0.12638,-2.018387
842478.11524,-1.7794947600000002,1.7860870800000002,9.7490799,0.118531,-0.966609,0.299772,-106.34433,110.426666,-128.073837,60.187613,24.830123,11.977013,15.5201,-1.0,-1.0,100.614647,-1.115059,-2.898496,-0.129491,-2.023505
842478.135227,-3.4955286300000004,1.02941235,11.31736536,-0.040003,-0.967567,0.01082,-107.681656,110.375381,-127.949326,60.187613,24.830123,11.977013,15.5201,-1.0,-1.0,100.614647,-1.115059,-2.919248,-0.1327,-2.02828
842478.135227,-3.4955286300000004,1.02941235,11.31736536,-0.040003,-0.967567,0.01082,-107.681656,110.375381,-127.949326,60.187613,24.830123,11.977013,15.5201,-1.0,-1.0,100.614647,-1.115059,-2.919248,-0.1327,-2.02828
842478.135227,-3.4955286300000004,1.02941235,11.31736536,-0.040003,-0.967567,0.01082,-107.681656,110.375381,-127.949326,60.187613,24.830123,11.977013,15.5201,-1.0,-1.0,100.614647,-1.115059,-2.919248,-0.1327,-2.02828
842478.135227,-3.4955286300000004,1.02941235,11.31736536,-0.040003,-0.967567,0.01082,-107.681656,110.375381,-127.949326,60.187613,24.830123,11.977013,15.5201,-1.0,-1.0,100.614647,-1.115059,-2.919248,-0.1327,-2.02828
842478.135227,-3.4955286300000004,1.02941235,11.31736536,-0.040003,-0.967567,0.01082,-107.681656,110.375381,-127.949326,60.187613,24.830123,11.977013,15.5201,-1.0,-1.0,100.614647,-1.115059,-2.919248,-0.1327,-2.02828
842478.135227,-3.4955286300000004,1.02941235,11.31736536,-0.040003,-0.967567,0.01082,-107.681656,110.375381,-127.949326,60.187613,24.830123,11.977013,15.5201,-1.0,-1.0,100.614647,-1.115059,-2.919248,-0.1327,-2.02828
842478.135227,-3.4955286300000004,1.02941235,11.31736536,-0.040003,-0.967567,0.01082,-107.681656,110.375381,-127.949326,60.187613,24.830123,11.977013,15.5201,-1.0,-1.0,100.614647,-1.115059,-2.919248,-0.1327,-2.02828
842478.135227,-3.4955286300000004,1.02941235,11.31736536,-0.040003,-0.967567,0.01082,-107.681656,110.375381,-127.949326,60.187613,24.830123,11.977013,15.5201,-1.0,-1.0,100.614647,-1.115059,-2.919248,-0.1327,-2.02828
842478.135227,-3.4955286300000004,1.02941235,11.31736536,-0.040003,-0.967567,0.01082,-107.681656,110.375381,-127.949326,60.187613,24.830123,11.977013,15.5201,-1.0,-1.0,100.614647,-1.115059,-2.919248,-0.1327,-2.02828
842478.135227,-3.4955286300000004,1.02941235,11.31736536,-0.040003,-0.967567,0.01082,-107.681656,110.375381,-127.949326,60.187613,24.830123,11.977013,15.5201,-1.0,-1.0,100.614647,-1.115059,-2.919248,-0.1327,-2.02828
842478.135227,-3.4955286300000004,1.02941235,11.31736536,-0.040003,-0.967567,0.01082,-107.681656,110.375381,-127.949326,60.187613,24.830123,11.977013,15.5201,-1.0,-1.0,100.614647,-1.115059,-2.919248,-0.1327,-2.02828
842478.135227,-3.4955286300000004,1.02941235,11.31736536,-0.040003,-0.967567,0.01082,-107.681656,110.375381,-127.949326,60.187613,24.830123,11.977013,15.5201,-1.0,-1.0,100.614647,-1.115059,-2.919248,-0.1327,-2.02828
842478.135227,-3.4955286300000004,1.02941235,11.31736536,-0.040003,-0.967567,0.01082,-107.681656,110.375381,-127.949326,60.187613,24.830123,11.977013,15.5201,-1.0,-1.0,100.614647,-1.115059,-2.919248,-0.1327,-2.02828
842478.135227,-3.4955286300000004,1.02941235,11.31736536,-0.040003,-0.967567,0.01082,-107.681656,110.375381,-127.949326,60.187613,24.830123,11.977013,15.5201,-1.0,-1.0,100.614647,-1.115059,-2.919248,-0.1327,-2.02828
842478.215174,-1.58370678,0.72404667,10.745403120000002,-0.001374,-0.47867,-0.218056,-107.235229,109.019196,-127.302643,60.187613,24.830123,11.977013,15.5201,-1.0,-1.0,100.614647,-1.115059,-2.979961,-0.131103,-2.022125
842478.295121,-0.9804604500000001,0.77972823,6.0375448800000004,-0.017354,-0.143936,-0.248826,-106.695923,107.333038,-125.054993,60.187613,24.830123,11.977013,15.5201,-1.0,-1.0,100.614647,-1.115059,-3.011317,-0.111244,-2.009965
842478.415042,-0.6723970200000001,0.95381649,9.258550470000001,-0.17295,-0.354823,-0.199353,-106.407471,106.043503,-124.074356,60.187636,24.830121,12.070293,12.682211,-1.0,-1.0,100.614647,-1.115059,-3.036481,-0.095581,-1.981831
842478.49499,-0.7289811,0.46822149,10.16955612,-0.342514,-0.635296,-0.107396,-99.656387,104.328415,-120.657272,60.187636,24.830121,12.070293,12.682211,-1.0,-1.0,100.614647,-1.115059,-3.074402,-0.07341,-1.969379
842478.514977,-0.6649218000000001,0.7324244100000001,9.576335610000001,-0.348418,-0.674079,-0.09859,-97.509125,104.964905,-119.528275,60.187636,24.830121,12.070293,12.682211,-1.0,-1.0,100.614647,-1.115059,-3.086971,-0.066445,-1.967612
842478.534964,-0.40894947000000004,0.7414103700000001,9.867035340000001,-0.356464,-0.715959,-0.103288,-96.768417,105.343964,-118.849319,60.187636,24.830121,12.070293,12.682211,-1.0,-1.0,100.614647,-1.115059,-3.1005,-0.059328,-1.965888
842478.55495,-0.09894366,1.03494519,9.63052605,-0.344815,-0.722884,-0.113144,-97.176331,105.824005,-117.835129,60.187636,24.830121,12.070293,12.682211,-1.0,-1.0,100.614647,-1.115059,-3.114834,-0.05204,-1.964018
842478.574937,0.36763956000000003,0.6009998400000001,9.56451456,-0.320071,-0.689466,-0.09121,-99.31337,105.782135,-117.430557,60.187636,24.830121,12.070293,12.682211,-1.0,-1.0,100.614647,-1.115059,-3.129147,-0.045011,-1.96189
842478.594924,0.40655583,0.45295713,10.02075804,-0.303519,-0.664968,-0.054259,-101.539322,104.601166,-118.130676,60.187636,24.830121,12.070293,12.682211,-1.0,-1.0,100.614647,-1.115059,3.13978,-0.038349,-1.959963
842478.614911,-1.8811361700000002,1.5640965900000001,9.513021870000001,0.134466,0.519202,-0.060163,-102.025421,102.75769,-119.069275,60.187636,24.830121,12.070293,12.682211,-1.0,-1.0,100.614647,-1.115059,3.126326,-0.032135,-1.958663
842478.634898,1.2088863,-0.37886220000000004,6.6524651100000005,0.134466,0.519202,-0.060163,-99.455719,101.508987,-118.802917,60.187636,24.830121,12.070293,12.682211,-1.0,-1.0,100.614647,-1.115059,3.124905,-0.031378,-1.958453
842478.654885,1.24990191,-0.09774684000000002,9.74293884,0.038592,0.194377,-0.081769,-95.955917,101.904205,-117.577255,60.187636,24.830121,12.070293,12.682211,-1.0,-1.0,100.614647,-1.115059,3.127125,-0.031827,-1.956434
842478.674872,-0.40999914,-0.17812998000000002,11.5309683,0.013939,0.055519,-0.132919,-94.980347,103.566055,-116.786942,60.187636,24.830121,12.070293,12.682211,-1.0,-1.0,100.614647,-1.115059,3.126378,-0.031631,-1.953928
842478.694858,-0.06316659000000001,-0.21450546,10.80693144,0.014881,0.005171,-0.178977,-95.224777,103.773087,-116.610657,60.187636,24.830121,12.070293,12.682211,-1.0,-1.0,100.614647,-1.115059,3.12653,-0.03157,-1.9512
842478.714845,-0.44157753,-0.5897772,10.56892122,-0.002399,0.005903,-0.250987,-95.607422,103.648773,-117.084793,60.187636,24.830121,12.070293,12.682211,-1.0,-1.0,100.614647,-1.115059,3.126211,-0.031643,-1.947576
842478.734832,0.04235958,-0.5204695500000001,9.888735060000002,0.005948,-0.024002,-0.281951,-96.031891,102.675674,-117.556519,60.187636,24.830121,12.070293,12.682211,-1.0,-1.0,100.614647,-1.115059,3.126109,-0.031717,-1.9426
842478.774806,0.28905165000000005,0.23560677000000002,9.66554775,0.005202,-0.01878,-0.342139,-99.760605,101.754044,-118.12587,60.187636,24.830121,12.070293,12.682211,-1.0,-1.0,100.614647,-1.115059,3.126097,-0.031971,-1.930614
842478.774806,0.28905165000000005,0.23560677000000002,9.66554775,0.005202,-0.01878,-0.342139,-99.760605,101.754044,-118.12587,60.187636,24.830121,12.070293,12.682211,-1.0,-1.0,100.614647,-1.115059,3.126097,-0.031971,-1.930614
842478.81478,0.30506157,0.28860039000000004,9.60252831,0.016839,-0.016372,-0.345947,-100.94342,104.313232,-117.348892,60.187636,24.830121,12.070293,12.682211,-1.0,-1.0,100.614647,-1.115059,3.125873,-0.032311,-1.91652
842478.834767,0.35341506000000006,0.2633004,9.82272357,0.001824,-0.01942,-0.279753,-98.232193,105.135635,-117.168762,60.187636,24.830121,12.070293,12.682211,-1.0,-1.0,100.614647,-1.115059,3.125696,-0.032641,-1.909532
842478.854753,0.29728224000000003,0.2894931,9.66330126,-0.004348,-0.01206,-0.227232,-96.322754,104.731766,-117.091141,60.187636,24.830121,12.070293,12.682211,-1.0,-1.0,100.614647,-1.115059,3.125505,-0.032824,-1.903732
842478.87474,0.41404086,0.33724818,9.605226060000001,0.007819,-0.011084,-0.152546,-95.643616,103.84465,-117.324539,60.187636,24.830121,12.070293,12.682211,-1.0,-1.0,100.614647,-1.115059,3.125445,-0.032949,-1.899028
842478.894727,0.13696722,0.28725642,9.73949553,0.001972,-0.005477,-0.113083,-95.643616,103.84465,-117.324539,60.187636,24.830121,12.070293,12.682211,-1.0,-1.0,100.614647,-1.115059,3.12551,-0.033012,-1.895768
842478.894727,0.13696722,0.28725642,9.73949553,0.001972,-0.005477,-0.113083,-95.643616,103.84465,-117.324539,60.187636,24.830121,12.070293,12.682211,-1.0,-1.0,100.614647,-1.115059,3.12551,-0.033012,-1.895768
842478.914714,0.2225889,0.29189655000000003,9.759851280000001,-0.000198,-0.022075,-0.093581,-95.532181,103.340912,-117.258774,60.187636,24.830121,12.070293,12.682211,-1.0,-1.0,100.614647,-1.115059,3.125474,-0.03305,-1.89341
842478.954688,0.12888378,0.20791314000000002,9.84098979,0.002169,-0.004453,-0.096185,-95.813583,102.166931,-117.485077,60.187636,24.830121,12.070293,12.682211,-1.0,-1.0,100.614647,-1.115059,3.125388,-0.033171,-1.889142
842478.974675,0.06960195,0.19085355,9.72587925,0.003545,0.000344,-0.063322,-95.848984,101.931259,-117.663208,60.187636,24.830121,12.070293,12.682211,-1.0,-1.0,100.614647,-1.115059,3.125292,-0.033183,-1.887116
842478.974675,0.06960195,0.19085355,9.72587925,0.003545,0.000344,-0.063322,-95.848984,101.931259,-117.663208,60.187636,24.830121,12.070293,12.682211,-1.0,-1.0,100.614647,-1.115059,3.125292,-0.033183,-1.887116
842479.014648,-0.06287229,0.18022932,9.82197801,0.003427,0.001469,-0.013338,-96.993454,100.992462,-118.035492,60.187636,24.830121,12.070293,12.682211,-1.0,-1.0,100.614647,-1.115059,3.125257,-0.033122,-1.884896
842479.034635,0.08906499000000001,0.27363033000000003,9.78230637,0.003664,0.001592,-0.003002,-98.140488,100.38736,-118.338654,60.187636,24.830121,12.070293,12.682211,-1.0,-1.0,100.614647,-1.115059,3.12523,-0.033069,-1.884518
842479.054622,0.16241436,0.32751666,9.83365191,-0.000668,-0.002151,-0.005791,-99.427155,99.975235,-118.479355,60.187636,24.830121,12.070293,12.682211,-1.0,-1.0,100.614647,-1.115059,3.125172,-0.033035,-1.884354
842479.074609,0.11197134000000002,0.2948886,9.78515127,0.004129,-0.001759,-0.003934,-100.340775,99.826981,-118.831955,60.187636,24.830121,12.070293,12.682211,-1.0,-1.0,100.614647,-1.115059,3.125125,-0.032997,-1.884139
842479.094596,0.08083440000000001,0.23081949000000002,9.85250673,-0.003587,0.001549,0.006309,-101.472061,99.730621,-118.677002,60.187636,24.830121,12.070293,12.682211,-1.0,-1.0,100.614708,-1.120342,3.125122,-0.032976,-1.883972
842479.114583,0.0782838,0.37616445,9.79758054,-0.003559,0.000207,0.009835,-101.9328,99.705917,-118.66925,60.187636,24.830121,12.070293,12.682211,-1.0,-1.0,100.614708,-1.120342,3.125141,-0.032873,-1.883998
842479.13457,0.06541308000000001,0.44217594000000005,9.75356307,9.9e-05,-0.001397,0.004573,-102.615021,100.053238,-118.302811,60.187636,24.830121,12.070293,12.682211,-1.0,-1.0,100.614708,-1.120342,3.125166,-0.032756,-1.884148
842479.154557,0.1761876,0.36209691,9.746235,0.001749,-0.005214,0.000459,-102.998199,100.384033,-118.286606,60.187636,24.830121,12.070293,12.682211,-1.0,-1.0,100.614708,-1.120342,3.125128,-0.032701,-1.884174
842479.174544,0.11661147000000001,0.33590421000000004,9.683961120000001,0.003623,-0.007757,0.00328,-103.120789,100.733353,-117.842117,60.187636,24.830121,12.070293,12.682211,-1.0,-1.0,100.614708,-1.120342,3.125147,-0.032704,-1.884097
842479.19453,-0.02499588,0.28860039000000004,9.7174917,0.000433,-0.000627,0.004914,-103.038498,101.367981,-117.741684,60.187636,24.830121,12.070293,12.682211,-1.0,-1.0,100.614708,-1.120342,3.125122,-0.032697,-1.88405
842479.214517,0.17858124000000003,0.32363190000000003,9.70252164,0.001581,-0.002868,0.003442,-102.398193,101.894257,-117.016571,60.187636,24.830121,12.070293,12.682211,-1.0,-1.0,100.614708,-1.120342,3.125149,-0.032667,-1.884065
842479.234504,0.08308089000000002,0.30926025,9.771682140000001,0.003296,0.000979,0.005985,-102.14386,102.252335,-116.951233,60.187636,24.830121,12.070293,12.682211,-1.0,-1.0,100.614708,-1.120342,3.125131,-0.032654,-1.884075
842479.254491,0.059428980000000006,0.32033574000000004,9.79593246,-0.000327,5.5e-05,0.002634,-101.670151,102.645142,-116.57576,60.187636,24.830121,12.070293,12.682211,-1.0,-1.0,100.614708,-1.120342,3.12514,-0.032641,-1.884092
842479.274478,0.13531914,0.32497587,9.780815250000002,0.004351,-0.000111,0.003527,-101.296295,102.988342,-116.623932,60.187636,24.830121,12.070293,12.682211,-1.0,-1.0,100.614708,-1.120342,3.125128,-0.032624,-1.884082
842479.294465,0.08712261,0.30297204000000005,9.80101404,0.001164,0.000825,0.004601,-100.700562,103.328796,-116.488739,60.187636,24.830121,12.070293,12.682211,-1.0,-1.0,100.614708,-1.120342,3.125121,-0.032618,-1.884072
842479.314452,0.10164141000000002,0.31658832000000003,9.77706783,0.002077,0.000258,0.003747,-100.100494,103.2155,-116.405365,60.187636,24.830121,12.070293,12.682211,-1.0,-1.0,100.614708,-1.120342,3.125134,-0.032572,-1.884084
842479.334439,0.08712261,0.31359627000000007,9.78993855,0.005099,0.002736,0.004839,-99.400146,103.620331,-116.119217,60.187636,24.830121,12.070293,12.682211,-1.0,-1.0,100.614708,-1.120342,3.125131,-0.032558,-1.88409
842479.354425,0.10298538000000002,0.31778514,9.77797035,0.002961,-0.001522,0.003013,-98.800278,103.632462,-116.068008,60.187636,24.830121,12.070293,12.682211,-1.0,-1.0,100.614708,-1.120342,3.125165,-0.032545,-1.88408
842479.374412,0.09176274,0.329616,9.756113670000001,0.003796,0.000254,0.005283,-98.385742,103.392715,-116.399445,60.187636,24.830121,12.070293,12.682211,-1.0,-1.0,100.614708,-1.120342,3.125156,-0.032543,-1.884069
842479.414386,0.09011466,0.34083863999999997,9.7664436,0.003798,-0.001115,0.005868,-97.6698,103.24086,-116.967911,60.187636,24.830121,12.070293,12.682211,-1.0,-1.0,100.614708,-1.120342,3.125186,-0.032549,-1.884119
842479.434373,0.08007903000000001,0.37272114,9.76090095,0.006031,-0.001413,0.005307,-97.375443,102.910538,-117.276871,60.187636,24.830121,12.070293,12.682211,-1.0,-1.0,100.614708,-1.120342,3.125188,-0.032568,-1.884152
842479.45436,0.09220419,0.37168128,9.79009551,0.004781,-0.002619,0.005478,-97.296768,102.749924,-117.242493,60.187636,24.830121,12.070293,12.682211,-1.0,-1.0,100.614708,-1.120342,3.125187,-0.032595,-1.884163
842479.474347,0.08981055,0.38335518,9.76508982,0.00262,0.000971,0.003348,-96.910004,102.287094,-117.805893,60.187636,24.830121,12.070293,12.682211,-1.0,-1.0,100.614708,-1.120342,3.125175,-0.032593,-1.88419
842479.494334,0.10014048,0.37916631,9.752219100000001,0.003762,-0.000732,0.00517,-97.540344,102.241821,-117.815765,60.187636,24.830121,12.070293,12.682211,-1.0,-1.0,100.614708,-1.120342,3.125178,-0.032595,-1.884214
842479.494334,0.10014048,0.37916631,9.752219100000001,0.003762,-0.000732,0.00517,-97.540344,102.241821,-117.815765,60.187636,24.830121,12.070293,12.682211,-1.0,-1.0,100.614708,-1.120342,3.125178,-0.032595,-1.884214
842479.534308,0.08981055,0.38649438,9.78529842,0.001137,0.0005,0.004274,-97.806274,101.473679,-118.35817,60.187636,24.830121,12.070293,12.682211,-1.0,-1.0,100.614708,-1.120342,3.125155,-0.032628,-1.884248
842479.554294,0.08442486000000002,0.38993769,9.7695828,0.005849,-8.9e-05,0.005313,-97.705261,101.337875,-118.413437,60.187636,24.830121,12.070293,12.682211,-1.0,-1.0,100.614708,-1.120342,3.125147,-0.032627,-1.884246
842479.574281,0.08382645000000001,0.39352815,9.77766624,0.003875,-0.00067,0.00419,-97.711365,101.363327,-118.073532,60.187636,24.830121,12.070293,12.682211,-1.0,-1.0,100.614708,-1.120342,3.12515,-0.03265,-1.884264
842479.574281,0.08382645000000001,0.39352815,9.77766624,0.003875,-0.00067,0.00419,-97.711365,101.363327,-118.073532,60.187636,24.830121,12.070293,12.682211,-1.0,-1.0,100.614708,-1.120342,3.12515,-0.03265,-1.884264
842479.614255,0.09609875999999999,0.38065743,9.791292330000001,0.004593,-0.001135,0.004983,-97.753387,101.299088,-118.402267,60.187636,24.830121,12.070293,12.682211,-1.0,-1.0,100.614708,-1.120342,3.125201,-0.032724,-1.884286
842479.634242,0.09774684000000002,0.37960776,9.775272600000001,0.001652,0.001062,0.003112,-97.822266,101.359573,-118.286011,60.187636,24.830121,12.070293,12.682211,-1.0,-1.0,100.614708,-1.120342,3.125235,-0.032758,-1.884293
842479.654229,0.09325386000000001,0.35939916000000005,9.77946147,0.002123,0.000672,0.003672,-97.813599,101.257477,-118.192886,60.187636,24.830121,12.070293,12.682211,-1.0,-1.0,100.614708,-1.120342,3.125278,-0.032792,-1.884287
842479.674216,0.08772102000000001,0.35087427000000004,9.775871010000001,0.004586,0.000981,0.004291,-97.573792,101.561844,-118.151016,60.187636,24.830121,12.070293,12.682211,-1.0,-1.0,100.614708,-1.120342,3.125316,-0.032812,-1.884272
842479.694203,0.08996751000000001,0.33964182000000004,9.77856876,0.002014,0.000502,0.003844,-97.616959,101.499908,-118.044678,60.187636,24.830121,12.070293,12.682211,-1.0,-1.0,100.614708,-1.120342,3.125339,-0.032843,-1.88426
842479.71419,0.09595161,0.31359627000000007,9.7664436,0.005142,0.000966,0.004456,-97.473663,101.818375,-117.870422,60.187636,24.830121,12.070293,12.682211,-1.0,-1.0,100.614708,-1.120342,3.125357,-0.032847,-1.88424
842479.734177,0.09325386000000001,0.29548701,9.790988220000001,0.00352,0.001922,0.004631,-97.530228,101.802612,-117.620499,60.187636,24.830121,12.070293,12.682211,-1.0,-1.0,100.614708,-1.120342,3.125379,-0.032845,-1.884237
842479.754163,0.11092167,0.29458449000000003,9.7781175,0.002667,-0.001145,0.004268,-97.593872,102.03891,-117.805298,60.187636,24.830121,12.070293,12.682211,-1.0,-1.0,100.614708,-1.120342,3.125397,-0.032861,-1.884228
842479.77415,0.08322804,0.28575549,9.803260530000001,0.004495,-0.000322,0.002759,-97.770142,102.060226,-118.030823,60.187636,24.830121,12.070293,12.682211,-1.0,-1.0,100.614708,-1.120342,3.125433,-0.032869,-1.884219
842479.794137,0.09131148000000001,0.28231218,9.76898439,0.00223,0.000649,0.004414,-97.694305,102.383377,-117.705475,60.187636,24.830121,12.070293,12.682211,-1.0,-1.0,100.614708,-1.120342,3.125441,-0.032869,-1.884226
842479.814124,0.09759969,0.27662238,9.771378030000001,0.002856,-0.000244,0.004207,-97.613937,102.302063,-117.816086,60.187636,24.830121,12.070293,12.682211,-1.0,-1.0,100.614708,-1.120342,3.125458,-0.032868,-1.884228
842479.834111,0.08726976,0.27408159,9.78814332,0.005745,-0.000214,0.004629,-97.584,102.336578,-117.764679,60.187636,24.830121,12.070293,12.682211,-1.0,-1.0,100.614708,-1.120342,3.125479,-0.032858,-1.884213
842479.854098,0.09834525,0.26704782,9.7926363,-0.000552,0.000972,0.002973,-97.458511,102.451675,-117.442291,60.187636,24.830121,12.070293,12.682211,-1.0,-1.0,100.614708,-1.120342,3.125476,-0.032865,-1.884227
842479.874085,0.10478061,0.26509562999999997,9.80985285,0.004091,-0.001737,0.003926,-97.302856,102.433792,-117.489761,60.187636,24.830121,12.070293,12.682211,-1.0,-1.0,100.614708,-1.120342,3.125501,-0.032858,-1.884225
842479.894072,0.08562168,0.28381311,9.77946147,0.003841,-0.000302,0.003468,-97.292953,102.436905,-117.535507,60.187636,24.830121,12.070293,12.682211,-1.0,-1.0,100.614708,-1.120342,3.125512,-0.032837,-1.884227
842479.914059,0.09580446000000001,0.29713509,9.784101600000001,0.00174,0.000388,0.003907,-97.529175,102.274734,-117.902039,60.187636,24.830121,12.070293,12.682211,-1.0,-1.0,100.614708,-1.120342,3.125541,-0.032826,-1.884234
842479.934046,0.08906499000000001,0.30641535000000003,9.795334050000001,0.005183,-0.002628,0.004409,-97.536789,102.320084,-117.476212,60.187636,24.830121,12.070293,12.682211,-1.0,-1.0,100.614708,-1.120342,3.125571,-0.032813,-1.884221
842479.954033,0.0896634,0.32452461,9.76988691,0.002972,-0.000239,0.003787,-97.422668,102.390594,-117.605621,60.187636,24.830121,12.070293,12.682211,-1.0,-1.0,100.614708,-1.120342,3.125586,-0.032791,-1.884224
842479.974019,0.09894366,0.33425613,9.768238830000001,0.00326,-0.001582,0.004902,-97.414246,102.098724,-117.48262,60.187636,24.830121,12.070293,12.682211,-1.0,-1.0,100.614708,-1.120342,3.125583,-0.032785,-1.88423
842479.994006,0.09295956000000001,0.33919056000000003,9.78335604,0.005241,-0.002535,0.004787,-97.232895,102.252106,-117.293671,60.187636,24.830121,12.070293,12.682211,-1.0,-1.0,100.614708,-1.120342,3.125593,-0.032769,-1.884247
842480.03398,0.0953532,0.35521029,9.78993855,0.00436,-0.001107,0.004057,-97.311707,102.074692,-117.65535,60.187636,24.830121,12.070293,12.682211,-1.0,-1.0,100.614708,-1.120342,3.12558,-0.032759,-1.884236
842480.03398,0.0953532,0.35521029,9.78993855,0.00436,-0.001107,0.004057,-97.311707,102.074692,-117.65535,60.187636,24.830121,12.070293,12.682211,-1.0,-1.0,100.614708,-1.120342,3.12558,-0.032759,-1.884236
842480.073954,0.08861373,0.34203546,9.78605379,0.000382,0.000109,0.003608,-97.577057,102.11676,-117.991608,60.187636,24.830121,12.070293,12.682211,-1.0,-1.0,100.614708,-1.120342,3.125595,-0.032752,-1.884211
842480.093941,0.08352234000000001,0.33574725,9.78335604,0.006216,-0.001333,0.004124,-97.664963,102.139664,-117.786255,60.187636,24.830121,12.070293,12.682211,-1.0,-1.0,100.614708,-1.120342,3.125618,-0.032761,-1.884207
842480.093941,0.08352234000000001,0.33574725,9.78335604,0.006216,-0.001333,0.004124,-97.664963,102.139664,-117.786255,60.187636,24.830121,12.070293,12.682211,-1.0,-1.0,100.614708,-1.120342,3.125618,-0.032761,-1.884207
842480.133915,0.08981055,0.30581694000000004,9.771378030000001,0.003232,-0.000416,0.003456,-97.42981,102.311676,-117.510788,60.187636,24.830121,12.070293,12.682211,-1.0,-1.0,100.614708,-1.120342,3.125687,-0.032782,-1.884176
842480.153902,0.09879651,0.31030011,9.76883724,0.004412,-0.00175,0.005343,-97.55806,102.12291,-117.442627,60.187636,24.830121,12.070293,12.682211,-1.0,-1.0,100.615036,-1.146767,3.125709,-0.032796,-1.884152
842480.173889,0.10403505,0.30596409,9.787093650000001,0.001972,0.000848,0.004689,-97.459381,102.410889,-117.408463,60.187636,24.830121,12.070293,12.682211,-1.0,-1.0,100.615036,-1.146767,3.125729,-0.03281,-1.884163
842480.173889,0.10403505,0.30596409,9.787093650000001,0.001972,0.000848,0.004689,-97.459381,102.410889,-117.408463,60.187636,24.830121,12.070293,12.682211,-1.0,-1.0,100.615036,-1.146767,3.125729,-0.03281,-1.884163
842480.193876,0.10119015,0.29278926000000005,9.780511140000002,0.003806,-0.00163,0.003953,-97.500854,102.444031,-117.194839,60.187636,24.830121,12.070293,12.682211,-1.0,-1.0,100.615036,-1.146767,3.125771,-0.032821,-1.884173
842480.233849,0.10628154000000001,0.30192237,9.77437008,0.002204,-0.000201,0.003343,-97.531998,102.490005,-117.455139,60.187636,24.830121,12.070293,12.682211,-1.0,-1.0,100.615036,-1.146767,3.125827,-0.032822,-1.884136
842480.253836,0.10238697000000001,0.29443734,9.77333022,0.00564,-0.000997,0.004715,-97.674545,102.371033,-117.621735,60.187636,24.830121,12.070293,12.682211,-1.0,-1.0,100.615036,-1.146767,3.12584,-0.032832,-1.884135
842480.273823,0.09999333,0.3008727,9.78560253,0.001992,-0.000585,0.004486,-97.500809,102.429108,-117.914307,60.187636,24.830121,12.070293,12.682211,-1.0,-1.0,100.615036,-1.146767,3.125857,-0.032846,-1.884145
842480.29381,0.08996751000000001,0.32048288999999996,9.791586630000001,0.000554,-0.000122,0.003849,-97.523697,102.353439,-117.604568,60.187636,24.830121,12.070293,12.682211,-1.0,-1.0,100.615036,-1.146767,3.125879,-0.032842,-1.884147
842480.313797,0.09655002,0.32122845000000005,9.76044969,0.005537,-0.000263,0.004015,-97.439743,102.134644,-117.646881,60.187636,24.830121,12.070293,12.682211,-1.0,-1.0,100.615036,-1.146767,3.125899,-0.032829,-1.884138
842480.333784,0.08861373,0.31584276000000006,9.78305193,0.000993,0.000565,0.004264,-97.538315,102.172882,-117.884567,60.187636,24.830121,12.070293,12.682211,-1.0,-1.0,100.615036,-1.146767,3.125925,-0.032828,-1.884131
842480.353771,0.11061756,0.31734369000000007,9.787849020000001,0.004723,-0.001474,0.004313,-97.538315,102.172882,-117.884567,60.187636,24.830121,12.070293,12.682211,-1.0,-1.0,100.615036,-1.146767,3.125951,-0.032824,-1.884137
842480.373758,0.08322804,0.33275520000000003,9.76584519,0.004168,0.000327,0.004534,-97.449661,102.394791,-117.786301,60.187636,24.830121,12.070293,12.682211,-1.0,-1.0,100.615036,-1.146767,3.125969,-0.032804,-1.88414
842480.393745,0.10208286000000001,0.32557428000000005,9.79428438,0.002296,0.000267,0.004097,-97.389618,102.358597,-117.616776,60.187636,24.830121,12.070293,12.682211,-1.0,-1.0,100.615036,-1.146767,3.125995,-0.032804,-1.884145
842480.413732,0.09490194,0.29907747,9.79727643,0.005139,0.000875,0.002832,-97.371002,102.413513,-117.442078,60.187636,24.830121,12.070293,12.682211,-1.0,-1.0,100.615036,-1.146767,3.126016,-0.03281,-1.884154
842480.433719,0.0981981,0.32811507,9.77302611,0.003527,-0.000311,0.003151,-97.459747,102.478745,-117.560699,60.187636,24.830121,12.070293,12.682211,-1.0,-1.0,100.615036,-1.146767,3.12605,-0.032805,-1.884151
842480.453705,0.08053028999999999,0.32722236,9.77407578,0.00308,0.000377,0.00465,-97.347,102.450027,-117.63002,60.187636,24.830121,12.070293,12.682211,-1.0,-1.0,100.615036,-1.146767,3.126066,-0.032811,-1.884143
842480.473692,0.08891784,0.31449879,9.80416305,0.004663,-0.000643,0.003381,-97.031403,102.58342,-117.387268,60.187636,24.830121,12.070293,12.682211,-1.0,-1.0,100.615036,-1.146767,3.126096,-0.032825,-1.884142
842480.493679,0.08667135000000001,0.31180104000000003,9.78185511,0.002173,7.4e-05,0.004795,-97.230438,102.505768,-117.30957,60.187636,24.830121,12.070293,12.682211,-1.0,-1.0,100.615036,-1.146767,3.126111,-0.032837,-1.884138
842480.513666,0.10747836000000001,0.29982303,9.77706783,0.004741,-0.000892,0.005167,-97.357956,102.29454,-117.818146,60.187636,24.830121,12.070293,12.682211,-1.0,-1.0,100.615036,-1.146767,3.126152,-0.032845,-1.884132
842480.533653,0.09355797,0.30326634,9.80954874,0.003544,-0.00051,0.002998,-97.474045,102.257446,-117.836502,60.187636,24.830121,12.070293,12.682211,-1.0,-1.0,100.615036,-1.146767,3.12617,-0.032852,-1.884119
842480.55364,0.09265545000000001,0.31090833,9.77677353,0.002138,0.001173,0.003479,-97.251663,102.355087,-117.71405,60.187636,24.830121,12.070293,12.682211,-1.0,-1.0,100.615036,-1.146767,3.126183,-0.032851,-1.884121
842480.573627,0.08741691000000001,0.29862621,9.78574968,0.005329,-0.000729,0.005383,-97.259583,102.349731,-117.593399,60.187636,24.830121,12.070293,12.682211,-1.0,-1.0,100.615036,-1.146767,3.126205,-0.032855,-1.884122
842480.593614,0.08636724,0.32122845000000005,9.79428438,0.001793,-0.001084,0.004458,-97.434555,102.394043,-117.587799,60.187636,24.830121,12.070293,12.682211,-1.0,-1.0,100.615036,-1.146767,3.126226,-0.032839,-1.884118
842480.613601,0.08412075,0.32766381,9.76254903,0.001793,-0.001084,0.004458,-97.484344,102.322815,-117.46933,60.187636,24.830121,12.070293,12.682211,-1.0,-1.0,100.615036,-1.146767,3.126233,-0.03283,-1.884124
842480.633588,0.08576883000000002,0.3094074,9.77333022,0.005814,-0.001805,0.005185,-97.532349,102.064621,-117.442474,60.187636,24.830121,12.070293,12.682211,-1.0,-1.0,100.615036,-1.146767,3.126253,-0.032818,-1.884125
842480.653575,0.08712261,0.31778514,9.75865446,0.001806,-0.002205,0.00263,-97.577057,102.193268,-117.67453,60.187636,24.830121,12.070293,12.682211,-1.0,-1.0,100.615036,-1.146767,3.126267,-0.032808,-1.884122
842480.673562,0.08532738,0.32213097,9.74967831,0.004475,-0.000454,0.002838,-97.484451,102.263702,-117.38533,60.187636,24.830121,12.070293,12.682211,-1.0,-1.0,100.615036,-1.146767,3.126283,-0.03281,-1.884123
842480.693549,0.09355797,0.30581694000000004,9.78589683,0.003514,-0.000753,0.005308,-97.430923,102.393875,-117.549881,60.187636,24.830121,12.070293,12.682211,-1.0,-1.0,100.615036,-1.146767,3.126324,-0.032805,-1.884116
842480.733522,0.10298538000000002,0.32377905,9.76195062,0.005858,-0.001415,0.004792,-97.093033,102.495285,-117.376938,60.187636,24.830121,12.070293,12.682211,-1.0,-1.0,100.615036,-1.146767,3.126371,-0.032807,-1.884075
842480.733522,0.10298538000000002,0.32377905,9.76195062,0.005858,-0.001415,0.004792,-97.093033,102.495285,-117.376938,60.187636,24.830121,12.070293,12.682211,-1.0,-1.0,100.615036,-1.146767,3.126371,-0.032807,-1.884075
842480.773496,0.10193571,0.31734369000000007,9.772133400000001,0.002987,0.000263,0.004904,-97.588593,102.391525,-117.715759,60.187636,24.830121,12.070293,12.682211,-1.0,-1.0,100.615036,-1.146767,3.126432,-0.032806,-1.884065
842480.773496,0.10193571,0.31734369000000007,9.772133400000001,0.002987,0.000263,0.004904,-97.588593,102.391525,-117.715759,60.187636,24.830121,12.070293,12.682211,-1.0,-1.0,100.615036,-1.146767,3.126432,-0.032806,-1.884065
842480.81347,0.09310671,0.3125466,9.79727643,0.002661,0.001826,0.003444,-97.348206,102.444046,-117.402298,60.187636,24.830121,12.070293,12.682211,-1.0,-1.0,100.615036,-1.146767,3.126463,-0.0328,-1.884061
842480.81347,0.09310671,0.3125466,9.79727643,0.002661,0.001826,0.003444,-97.348206,102.444046,-117.402298,60.187636,24.830121,12.070293,12.682211,-1.0,-1.0,100.615036,-1.146767,3.126463,-0.0328,-1.884061
842480.853444,0.09385227000000002,0.30985866000000006,9.77960862,0.0038,0.000164,0.00345,-97.648865,102.196671,-117.329971,60.187636,24.830121,12.070293,12.682211,-1.0,-1.0,100.615036,-1.146767,3.126518,-0.032796,-1.884039
842480.853444,0.09385227000000002,0.30985866000000006,9.77960862,0.0038,0.000164,0.00345,-97.648865,102.196671,-117.329971,60.187636,24.830121,12.070293,12.682211,-1.0,-1.0,100.615036,-1.146767,3.126518,-0.032796,-1.884039
842480.893418,0.10269108,0.30221667,9.79368597,0.004626,-0.001248,0.00379,-97.403717,102.380508,-117.428131,60.187636,24.830121,12.070293,12.682211,-1.0,-1.0,100.615036,-1.146767,3.126534,-0.032807,-1.884012
842480.893418,0.10269108,0.30221667,9.79368597,0.004626,-0.001248,0.00379,-97.403717,102.380508,-117.428131,60.187636,24.830121,12.070293,12.682211,-1.0,-1.0,100.615036,-1.146767,3.126534,-0.032807,-1.884012
842480.933392,0.07364367000000001,0.32452461,9.771682140000001,0.002626,0.000875,0.00414,-97.256638,102.434036,-117.623657,60.187636,24.830121,12.070293,12.682211,-1.0,-1.0,100.615036,-1.146767,3.126586,-0.032784,-1.884011
842480.933392,0.07364367000000001,0.32452461,9.771682140000001,0.002626,0.000875,0.00414,-97.256638,102.434036,-117.623657,60.187636,24.830121,12.070293,12.682211,-1.0,-1.0,100.615036,-1.146767,3.126586,-0.032784,-1.884011
842480.973366,0.09864936,0.32138541,9.799522920000001,0.001457,0.001912,0.004273,-97.501801,102.416824,-117.65181,60.187636,24.830121,12.070293,12.682211,-1.0,-1.0,100.615036,-1.146767,3.126633,-0.03276,-1.884017
842480.973366,0.09864936,0.32138541,9.799522920000001,0.001457,0.001912,0.004273,-97.501801,102.416824,-117.65181,60.187636,24.830121,12.070293,12.682211,-1.0,-1.0,100.615036,-1.146767,3.126633,-0.03276,-1.884017
842481.01334,0.09909081000000002,0.32018859000000005,9.787250610000001,0.005564,0.000974,0.003566,-97.525864,102.402542,-117.5961,60.187636,24.830121,12.070293,12.682211,-1.0,-1.0,100.615036,-1.146767,3.126683,-0.032741,-1.884035
842481.01334,0.09909081000000002,0.32018859000000005,9.787250610000001,0.005564,0.000974,0.003566,-97.525864,102.402542,-117.5961,60.187636,24.830121,12.070293,12.682211,-1.0,-1.0,100.615036,-1.146767,3.126683,-0.032741,-1.884035
842481.053313,0.09789399,0.31644117000000005,9.77706783,0.005588,-0.001762,0.004694,-97.36911,102.387146,-117.257858,60.187636,24.830121,12.070293,12.682211,-1.0,-1.0,100.615036,-1.146767,3.126727,-0.032759,-1.884033
842481.053313,0.09789399,0.31644117000000005,9.77706783,0.005588,-0.001762,0.004694,-97.36911,102.387146,-117.257858,60.187636,24.830121,12.070293,12.682211,-1.0,-1.0,100.615036,-1.146767,3.126727,-0.032759,-1.884033
842481.093287,0.08576883000000002,0.30476727000000003,9.796373910000002,0.001788,-0.00176,0.003846,-97.458221,102.343475,-117.440659,60.187636,24.830121,12.070293,12.682211,-1.0,-1.0,100.615036,-1.146767,3.126758,-0.032759,-1.884015
842481.093287,0.08576883000000002,0.30476727000000003,9.796373910000002,0.001788,-0.00176,0.003846,-97.458221,102.343475,-117.440659,60.187636,24.830121,12.070293,12.682211,-1.0,-1.0,100.615036,-1.146767,3.126758,-0.032759,-1.884015
842481.133261,0.08053028999999999,0.32122845000000005,9.77706783,0.003422,0.000418,0.003163,-97.397232,102.382156,-117.422867,60.187636,24.830121,12.070293,12.682211,-1.0,-1.0,100.615036,-1.146767,3.126801,-0.032756,-1.884021
842481.133261,0.08053028999999999,0.32122845000000005,9.77706783,0.003422,0.000418,0.003163,-97.397232,102.382156,-117.422867,60.187636,24.830121,12.070293,12.682211,-1.0,-1.0,100.615036,-1.146767,3.126801,-0.032756,-1.884021
842481.173235,0.08951625,0.31464594,9.78964425,0.004724,0.00106,0.004998,-97.235641,102.411819,-117.406281,60.187636,24.830121,12.070293,12.682211,-1.0,-1.0,100.615036,-1.146767,3.126829,-0.032765,-1.883994
842481.193222,0.10628154000000001,0.32122845000000005,9.76659075,0.001031,0.000271,0.004314,-97.299164,102.492203,-117.451645,60.187636,24.830121,12.070293,12.682211,-1.0,-1.0,100.615036,-1.146767,3.126864,-0.032751,-1.884004
842481.213209,0.09864936,0.31614687,9.79053696,0.004546,-0.001107,0.004907,-97.310043,102.462204,-117.56749,60.187636,24.830121,12.070293,12.682211,-1.0,-1.0,100.615036,-1.146767,3.126875,-0.032752,-1.884003
842481.233196,0.08667135000000001,0.32782077000000004,9.787093650000001,0.001295,0.000138,0.002735,-97.318039,102.432327,-117.325592,60.187636,24.830121,12.070293,12.682211,-1.0,-1.0,100.615707,-1.202255,3.126891,-0.032746,-1.884005
842481.253183,0.09968922,0.32018859000000005,9.7664436,0.002101,0.000698,0.00419,-97.314713,102.702316,-117.527496,60.187636,24.830121,12.070293,12.682211,-1.0,-1.0,100.615707,-1.202255,3.126918,-0.032743,-1.883998
842481.253183,0.09968922,0.32018859000000005,9.7664436,0.002101,0.000698,0.00419,-97.314713,102.702316,-117.527496,60.187636,24.830121,12.070293,12.682211,-1.0,-1.0,100.615707,-1.202255,3.126918,-0.032743,-1.883998
842481.293157,0.09909081000000002,0.3008727,9.78919299,0.002124,-0.000918,0.002967,-97.239685,102.472549,-117.834198,60.187636,24.830121,12.070293,12.682211,-1.0,-1.0,100.615707,-1.202255,3.126957,-0.032716,-1.883986
842481.313144,0.09160578000000001,0.31239945,9.78021684,0.003558,-0.000297,0.001437,-97.044724,102.430893,-117.727692,60.187636,24.830121,12.070293,12.682211,-1.0,-1.0,100.615707,-1.202255,3.126975,-0.032728,-1.88398
842481.333131,0.08517042000000001,0.31194819,9.79038981,0.005741,-0.001036,0.003676,-97.249802,102.538406,-117.848846,60.187636,24.830121,12.070293,12.682211,-1.0,-1.0,100.615707,-1.202255,3.126997,-0.03274,-1.883977
842481.353117,0.09490194,0.30895614000000005,9.7781175,0.001422,-0.000181,0.004522,-97.245972,102.296875,-117.724533,60.187636,24.830121,12.070293,12.682211,-1.0,-1.0,100.615707,-1.202255,3.127006,-0.032749,-1.88398
842481.373104,0.08801532000000001,0.31524435,9.78814332,0.005994,-0.001684,0.00487,-97.384277,102.28746,-117.240097,60.187636,24.830121,12.070293,12.682211,-1.0,-1.0,100.615707,-1.202255,3.12702,-0.032759,-1.883974
842481.393091,0.10343664,0.30716091,9.78275763,0.004033,-0.00046,0.003903,-97.264572,102.326797,-117.61261,60.187636,24.830121,12.070293,12.682211,-1.0,-1.0,100.615707,-1.202255,3.127033,-0.032754,-1.883989
842481.413078,0.10673280000000002,0.31658832000000003,9.795775500000001,0.001005,0.000208,0.004724,-97.398666,102.271423,-117.218216,60.187636,24.830121,12.070293,12.682211,-1.0,-1.0,100.615707,-1.202255,3.127059,-0.032773,-1.883982
842481.433065,0.09759969,0.31434183000000004,9.793087560000002,0.004197,-0.000628,0.004053,-97.411957,102.31691,-117.494537,60.187636,24.830121,12.070293,12.682211,-1.0,-1.0,100.615707,-1.202255,3.127085,-0.032784,-1.883975
842481.453052,0.09774684000000002,0.30670965,9.78275763,0.003531,-0.000359,0.003611,-97.473877,102.337463,-117.713867,60.187636,24.830121,12.070293,12.682211,-1.0,-1.0,100.615707,-1.202255,3.127088,-0.032783,-1.883958
842481.473039,0.08622009,0.32557428000000005,9.79024266,0.002016,0.001473,0.005464,-97.230545,102.390564,-117.500381,60.187636,24.830121,12.070293,12.682211,-1.0,-1.0,100.615707,-1.202255,3.127113,-0.032792,-1.883956
842481.473039,0.08622009,0.32557428000000005,9.79024266,0.002016,0.001473,0.005464,-97.230545,102.390564,-117.500381,60.187636,24.830121,12.070293,12.682211,-1.0,-1.0,100.615707,-1.202255,3.127113,-0.032792,-1.883956
842481.473039,0.08622009,0.32557428000000005,9.79024266,0.002016,0.001473,0.005464,-97.230545,102.390564,-117.500381,60.187636,24.830121,12.070293,12.682211,-1.0,-1.0,100.615707,-1.202255,3.127113,-0.032792,-1.883956
842481.493026,0.10837107,0.31419468,9.77512545,0.006142,-0.000954,0.003688,-97.336823,102.190765,-117.337799,60.187636,24.830121,12.070293,12.682211,-1.0,-1.0,100.615707,-1.202255,3.127133,-0.032785,-1.883962
842481.552987,0.09999333,0.31959018000000006,9.775419750000001,0.003505,1.7e-05,0.003579,-97.596466,102.119812,-117.385193,60.187636,24.830121,12.070293,12.682211,-1.0,-1.0,100.615707,-1.202255,3.127195,-0.032791,-1.883974
842481.572974,0.08756406,0.31404753,9.772280550000001,0.002316,0.001607,0.003778,-97.677048,102.168427,-117.385345,60.187636,24.830121,12.070293,12.682211,-1.0,-1.0,100.615707,-1.202255,3.12722,-0.032779,-1.883966
842481.612948,0.09774684000000002,0.31658832000000003,9.7781175,0.00283,-0.00159,0.004752,-97.562424,102.237686,-117.231354,60.187636,24.830121,12.070293,12.682211,-1.0,-1.0,100.615707,-1.202255,3.127242,-0.032778,-1.883961
842481.612948,0.09774684000000002,0.31658832000000003,9.7781175,0.00283,-0.00159,0.004752,-97.562424,102.237686,-117.231354,60.187636,24.830121,12.070293,12.682211,-1.0,-1.0,100.615707,-1.202255,3.127242,-0.032778,-1.883961
842481.632935,0.10253412,0.31614687,9.75461274,0.002729,-0.000492,0.00428,-97.419464,102.402039,-117.28627,60.187636,24.830121,12.070293,12.682211,-1.0,-1.0,100.615707,-1.202255,3.12725,-0.032791,-1.883945
842481.652922,0.08816247,0.30985866000000006,9.78141366,0.005466,-0.001296,0.00432,-97.500778,102.526672,-117.084671,60.187636,24.830121,12.070293,12.682211,-1.0,-1.0,100.615707,-1.202255,3.127258,-0.032797,-1.883932
842481.692896,0.09805095000000001,0.30431601,9.791135370000001,0.002774,-0.002658,0.006028,-97.544601,102.250763,-117.768845,60.187636,24.830121,12.070293,12.682211,-1.0,-1.0,100.615707,-1.202255,3.127275,-0.032816,-1.883912
842481.692896,0.09805095000000001,0.30431601,9.791135370000001,0.002774,-0.002658,0.006028,-97.544601,102.250763,-117.768845,60.187636,24.830121,12.070293,12.682211,-1.0,-1.0,100.615707,-1.202255,3.127275,-0.032816,-1.883912
842481.732869,0.08308089000000002,0.31449879,9.7579089,0.001922,0.000101,0.004653,-97.544464,102.341202,-117.247955,60.187636,24.830121,12.070293,12.682211,-1.0,-1.0,100.615707,-1.202255,3.127279,-0.032809,-1.883908
842481.732869,0.08308089000000002,0.31449879,9.7579089,0.001922,0.000101,0.004653,-97.544464,102.341202,-117.247955,60.187636,24.830121,12.070293,12.682211,-1.0,-1.0,100.615707,-1.202255,3.127279,-0.032809,-1.883908
842481.772843,0.09564750000000001,0.32332779000000006,9.78185511,0.003354,0.001125,0.00457,-97.659714,102.285858,-117.348831,60.187636,24.830121,12.070293,12.682211,-1.0,-1.0,100.615707,-1.202255,3.127319,-0.03282,-1.883919
842481.772843,0.09564750000000001,0.32332779000000006,9.78185511,0.003354,0.001125,0.00457,-97.659714,102.285858,-117.348831,60.187636,24.830121,12.070293,12.682211,-1.0,-1.0,100.615707,-1.202255,3.127319,-0.03282,-1.883919
842481.812817,0.09011466,0.31404753,9.79368597,0.005568,-0.002218,0.004375,-97.50705,102.407288,-117.604858,60.187636,24.830121,12.070293,12.682211,-1.0,-1.0,100.615707,-1.202255,3.127353,-0.032843,-1.88391
842481.812817,0.09011466,0.31404753,9.79368597,0.005568,-0.002218,0.004375,-97.50705,102.407288,-117.604858,60.187636,24.830121,12.070293,12.682211,-1.0,-1.0,100.615707,-1.202255,3.127353,-0.032843,-1.88391
842481.852791,0.10463346000000001,0.31330197000000004,9.78500412,0.004073,-0.002358,0.005432,-97.51651,102.206787,-117.338242,60.187636,24.830121,12.070293,12.682211,-1.0,-1.0,100.615707,-1.202255,3.127355,-0.032847,-1.883907
842481.852791,0.10463346000000001,0.31330197000000004,9.78500412,0.004073,-0.002358,0.005432,-97.51651,102.206787,-117.338242,60.187636,24.830121,12.070293,12.682211,-1.0,-1.0,100.615707,-1.202255,3.127355,-0.032847,-1.883907
842481.892765,0.08786817,0.30895614000000005,9.78156081,0.001495,-0.001999,0.004212,-97.808685,102.05722,-117.291428,60.187636,24.830121,12.070293,12.682211,-1.0,-1.0,100.615707,-1.202255,3.127366,-0.032861,-1.883903
842481.912752,0.09655002,0.30670965,9.77108373,0.005248,-0.001688,0.006299,-97.628601,102.283493,-117.169968,60.187636,24.830121,12.070293,12.682211,-1.0,-1.0,100.615707,-1.202255,3.127361,-0.032869,-1.883884
842481.932739,0.09984618,0.31749084,9.775272600000001,0.00269,0.001237,0.005072,-97.415649,102.301651,-117.020416,60.187636,24.830121,12.070293,12.682211,-1.0,-1.0,100.615707,-1.202255,3.127364,-0.032875,-1.883885
842481.952726,0.08502327,0.32318064,9.79443153,0.004032,-0.000787,0.004341,-97.515015,102.191879,-117.271957,60.187636,24.830121,12.070293,12.682211,-1.0,-1.0,100.615707,-1.202255,3.127363,-0.032872,-1.883888
842481.972713,0.09714843000000001,0.30027429,9.80490861,0.004192,-0.00229,0.003548,-97.608414,102.312561,-117.12088,60.187636,24.830121,12.070293,12.682211,-1.0,-1.0,100.615707,-1.202255,3.127374,-0.03287,-1.88388
842481.9927,0.09849240000000001,0.31778514,9.77003406,0.002557,-0.000236,0.003966,-97.530746,102.120346,-117.145523,60.187636,24.830121,12.070293,12.682211,-1.0,-1.0,100.615707,-1.202255,3.127377,-0.032866,-1.883859
842482.012687,0.08382645000000001,0.31689243,9.77601816,0.003004,-0.002271,0.003717,-97.426666,102.265625,-117.379517,60.187636,24.830121,12.070293,12.682211,-1.0,-1.0,100.615707,-1.202255,3.127388,-0.032874,-1.883853
842482.032674,0.08232552,0.30282489,9.79398027,0.004226,0.000132,0.004095,-97.496826,102.242889,-117.396729,60.187636,24.830121,12.070293,12.682211,-1.0,-1.0,100.615707,-1.202255,3.127393,-0.032881,-1.883851
842482.052661,0.09236115,0.31194819,9.78574968,0.00217,-0.001601,0.005158,-97.548721,102.067581,-117.44577,60.187636,24.830121,12.070293,12.682211,-1.0,-1.0,100.615707,-1.202255,3.127408,-0.032887,-1.883849
842482.072648,0.09040896000000001,0.31718673000000003,9.7724277,0.005269,-0.001226,0.002795,-97.802795,102.010101,-117.100754,60.187636,24.830121,12.070293,12.682211,-1.0,-1.0,100.615707,-1.202255,3.127417,-0.032884,-1.883844
842482.092635,0.10537902,0.31270356000000005,9.77377167,0.003853,-0.000207,0.003743,-97.470734,102.368011,-117.277679,60.187636,24.830121,12.070293,12.682211,-1.0,-1.0,100.615707,-1.202255,3.127421,-0.032878,-1.88384
842482.112622,0.09176274,0.32871348000000006,9.77826465,0.002989,-0.000601,0.004236,-97.441437,102.15126,-117.379333,60.187636,24.830121,12.070293,12.682211,-1.0,-1.0,100.615707,-1.202255,3.127435,-0.032898,-1.883836
842482.132609,0.09295956000000001,0.32018859000000005,9.77407578,0.005528,-0.000774,0.004466,-97.412125,102.14653,-117.354599,60.187636,24.830121,12.070293,12.682211,-1.0,-1.0,100.615707,-1.202255,3.127443,-0.032891,-1.883832
842482.152596,0.10238697000000001,0.31134978,9.76568823,0.001599,-0.001208,0.005162,-97.346268,102.152252,-117.429535,60.187636,24.830121,12.070293,12.682211,-1.0,-1.0,100.615707,-1.202255,3.127438,-0.032897,-1.883834
842482.172582,0.09145863,0.31165389,9.784101600000001,0.003342,-0.001127,0.004218,-97.419373,102.169388,-117.084167,60.187636,24.830121,12.070293,12.682211,-1.0,-1.0,100.615707,-1.202255,3.127443,-0.032895,-1.883834
842482.192569,0.09340101,0.31763799,9.76180347,0.004033,0.000734,0.004343,-97.558105,102.168793,-117.464493,60.187636,24.830121,12.070293,12.682211,-1.0,-1.0,100.615707,-1.202255,3.127438,-0.032887,-1.883835
842482.212556,0.10762551000000001,0.3182364,9.7869465,0.002796,0.000209,0.004305,-97.609833,102.256943,-117.193741,60.187636,24.830121,12.070293,12.682211,-1.0,-1.0,100.615707,-1.202255,3.127443,-0.032898,-1.883836
842482.232543,0.08636724,0.30625839,9.7866522,0.003821,-0.00101,0.002362,-97.39212,102.189972,-117.156082,60.187636,24.830121,12.070293,12.682211,-1.0,-1.0,100.615707,-1.202255,3.127457,-0.032913,-1.883823
842482.272517,0.10148445,0.31569561,9.7869465,0.002146,-5.5e-05,0.004015,-97.673355,102.311737,-117.369232,60.187636,24.830121,12.070293,12.682211,-1.0,-1.0,100.615707,-1.202255,3.127478,-0.032908,-1.88382
842482.292504,0.08846658,0.30132396,9.78141366,0.00502,-0.000387,0.003461,-97.575928,102.4077,-117.289276,60.187636,24.830121,12.070293,12.682211,-1.0,-1.0,100.615707,-1.202255,3.127476,-0.0329,-1.883822
842482.292504,0.08846658,0.30132396,9.78141366,0.00502,-0.000387,0.003461,-97.575928,102.4077,-117.289276,60.187636,24.830121,12.070293,12.682211,-1.0,-1.0,100.615707,-1.202255,3.127476,-0.0329,-1.883822
842482.332478,0.10552617,0.31390038,9.80206371,0.004409,-0.000205,0.004231,-97.675766,102.174728,-117.352188,60.187636,24.830121,12.070293,12.682211,-1.0,-1.0,100.616379,-1.257744,3.127485,-0.032904,-1.883818
842482.332478,0.10552617,0.31390038,9.80206371,0.004409,-0.000205,0.004231,-97.675766,102.174728,-117.352188,60.187636,24.830121,12.070293,12.682211,-1.0,-1.0,100.616379,-1.257744,3.127485,-0.032904,-1.883818
842482.372452,0.09086022,0.32287653,9.80026848,0.001999,-0.000506,0.004189,-97.668121,102.36763,-117.430069,60.187636,24.830121,12.070293,12.682211,-1.0,-1.0,100.616379,-1.257744,3.127501,-0.032909,-1.883835
842482.372452,0.09086022,0.32287653,9.80026848,0.001999,-0.000506,0.004189,-97.668121,102.36763,-117.430069,60.187636,24.830121,12.070293,12.682211,-1.0,-1.0,100.616379,-1.257744,3.127501,-0.032909,-1.883835
842482.412426,0.10867518,0.31598991,9.77092677,0.003915,0.001295,0.002511,-97.531998,102.165192,-117.451553,60.187636,24.830121,12.070293,12.682211,-1.0,-1.0,100.616379,-1.257744,3.127535,-0.032893,-1.883829
842482.412426,0.10867518,0.31598991,9.77092677,0.003915,0.001295,0.002511,-97.531998,102.165192,-117.451553,60.187636,24.830121,12.070293,12.682211,-1.0,-1.0,100.616379,-1.257744,3.127535,-0.032893,-1.883829
842482.4524,0.08262963000000001,0.31689243,9.78245352,0.004849,-0.001962,0.00452,-97.281296,102.281448,-116.850815,60.187636,24.830121,12.070293,12.682211,-1.0,-1.0,100.616379,-1.257744,3.127584,-0.032913,-1.883829
842482.4524,0.08262963000000001,0.31689243,9.78245352,0.004849,-0.001962,0.00452,-97.281296,102.281448,-116.850815,60.187636,24.830121,12.070293,12.682211,-1.0,-1.0,100.616379,-1.257744,3.127584,-0.032913,-1.883829
842482.492374,0.08172711,0.31959018000000006,9.77677353,0.005553,-0.001319,0.00371,-97.598419,102.265976,-117.356354,60.187636,24.830121,12.070293,12.682211,-1.0,-1.0,100.616379,-1.257744,3.127593,-0.032938,-1.883847
842482.492374,0.08172711,0.31959018000000006,9.77677353,0.005553,-0.001319,0.00371,-97.598419,102.265976,-117.356354,60.187636,24.830121,12.070293,12.682211,-1.0,-1.0,100.616379,-1.257744,3.127593,-0.032938,-1.883847
842482.532348,0.09445068,0.31943322,9.78649524,0.001302,-0.000905,0.00341,-97.445374,102.159927,-117.456253,60.187636,24.830121,12.070293,12.682211,-1.0,-1.0,100.616379,-1.257744,3.127604,-0.032963,-1.883835
842482.552335,0.08471916,0.30536568000000003,9.78934014,0.005296,0.000233,0.004688,-97.82019,102.165878,-117.452698,60.187636,24.830121,12.070293,12.682211,-1.0,-1.0,100.616379,-1.257744,3.12762,-0.032971,-1.883833
842482.572322,0.10687995,0.32827203,9.783208890000001,0.002547,4.4e-05,0.004262,-97.332214,102.244354,-117.107391,60.187636,24.830121,12.070293,12.682211,-1.0,-1.0,100.616379,-1.257744,3.127631,-0.032969,-1.883831
842482.592309,0.10073889000000001,0.31344912,9.787544910000001,0.002547,4.4e-05,0.004262,-97.38266,102.135376,-117.28244,60.187636,24.830121,12.070293,12.682211,-1.0,-1.0,100.616379,-1.257744,3.127638,-0.032972,-1.883838
842482.612296,0.10432935000000002,0.30730806,9.78275763,0.004969,0.000523,0.004903,-97.45314,102.182693,-117.19783,60.187636,24.830121,12.070293,12.682211,-1.0,-1.0,100.616379,-1.257744,3.127659,-0.032965,-1.883833
842482.632283,0.09176274,0.31060422000000004,9.771378030000001,0.002598,0.000294,0.005298,-97.584579,102.241455,-117.373337,60.187636,24.830121,12.070293,12.682211,-1.0,-1.0,100.616379,-1.257744,3.12766,-0.032968,-1.883837
842482.65227,0.10448631000000001,0.31239945,9.76913154,0.002048,0.000328,0.003747,-97.489471,102.194641,-117.287888,60.187636,24.830121,12.070293,12.682211,-1.0,-1.0,100.616379,-1.257744,3.127675,-0.03298,-1.883836
842482.672257,0.09624591,0.33141123,9.783208890000001,0.004416,0.000496,0.004008,-97.251678,102.422318,-117.194275,60.187636,24.830121,12.070293,12.682211,-1.0,-1.0,100.616379,-1.257744,3.127688,-0.032959,-1.883834
842482.692244,0.09205704,0.31045707000000006,9.775723860000001,0.000594,-0.000178,0.004169,-97.281403,102.115784,-117.301239,60.187636,24.830121,12.070293,12.682211,-1.0,-1.0,100.616379,-1.257744,3.127704,-0.032946,-1.883841
842482.712231,0.10358379000000001,0.31928607000000003,9.775566900000001,0.003614,-0.000472,0.004955,-97.214661,102.455719,-117.33786,60.187636,24.830121,12.070293,12.682211,-1.0,-1.0,100.616379,-1.257744,3.127719,-0.032938,-1.883821
842482.732218,0.09595161,0.31718673000000003,9.77692068,0.004536,-0.000738,0.002509,-97.227341,102.442734,-117.244751,60.187636,24.830121,12.070293,12.682211,-1.0,-1.0,100.616379,-1.257744,3.127722,-0.032928,-1.883831
842482.752205,0.08397360000000001,0.30746502000000003,9.79473564,0.001656,-5e-06,0.003741,-97.522049,102.376556,-117.282532,60.187636,24.830121,12.070293,12.682211,-1.0,-1.0,100.616379,-1.257744,3.127726,-0.032935,-1.883829
842482.752205,0.08397360000000001,0.30746502000000003,9.79473564,0.001656,-5e-06,0.003741,-97.522049,102.376556,-117.282532,60.187636,24.830121,12.070293,12.682211,-1.0,-1.0,100.616379,-1.257744,3.127726,-0.032935,-1.883829
842482.792179,0.08457201,0.3270654,9.76508982,0.001841,-0.000212,0.002855,-97.446304,102.410172,-117.584915,60.187636,24.830121,12.070293,12.682211,-1.0,-1.0,100.616379,-1.257744,3.127748,-0.032922,-1.883831
842482.812166,0.10747836000000001,0.31569561,9.76508982,0.004979,0.000494,0.002434,-97.574463,102.252304,-117.140869,60.187636,24.830121,12.070293,12.682211,-1.0,-1.0,100.616379,-1.257744,3.12775,-0.032929,-1.88382
842482.832152,0.09834525,0.32467176000000003,9.791439480000001,0.004859,-0.000358,0.004203,-97.515533,102.299957,-117.396866,60.187636,24.830121,12.070293,12.682211,-1.0,-1.0,100.616379,-1.257744,3.127761,-0.032926,-1.883808
842482.852139,0.0896634,0.31494024000000004,9.79248915,0.001442,-0.000146,0.002346,-97.544754,102.295547,-117.276138,60.187636,24.830121,12.070293,12.682211,-1.0,-1.0,100.616379,-1.257744,3.127781,-0.032934,-1.883814
842482.872126,0.08636724,0.32916474,9.77826465,0.00501,5.9e-05,0.004688,-97.521698,102.361755,-117.593018,60.187636,24.830121,12.070293,12.682211,-1.0,-1.0,100.616379,-1.257744,3.127784,-0.032942,-1.883815
842482.892113,0.10193571,0.30536568000000003,9.78919299,0.003297,-0.0005,0.004517,-97.389542,102.378387,-117.294693,60.187636,24.830121,12.070293,12.682211,-1.0,-1.0,100.616379,-1.257744,3.127806,-0.032942,-1.883817
842482.932088,0.08547453,0.32677110000000004,9.77826465,0.005016,-0.001358,0.003913,-97.400467,102.324921,-117.511353,60.187636,24.830121,12.070293,12.682211,-1.0,-1.0,100.616379,-1.257744,3.127826,-0.032949,-1.883835
842482.932088,0.08547453,0.32677110000000004,9.77826465,0.005016,-0.001358,0.003913,-97.400467,102.324921,-117.511353,60.187636,24.830121,12.070293,12.682211,-1.0,-1.0,100.616379,-1.257744,3.127826,-0.032949,-1.883835
842482.972062,0.08667135000000001,0.32377905,9.779167170000001,0.003031,-0.00238,0.004904,-97.501007,102.410873,-117.437531,60.187636,24.830121,12.070293,12.682211,-1.0,-1.0,100.616379,-1.257744,3.127838,-0.032943,-1.883817
842482.972062,0.08667135000000001,0.32377905,9.779167170000001,0.003031,-0.00238,0.004904,-97.501007,102.410873,-117.437531,60.187636,24.830121,12.070293,12.682211,-1.0,-1.0,100.616379,-1.257744,3.127838,-0.032943,-1.883817
842482.992049,0.09011466,0.30625839,9.77347737,0.004407,0.000631,0.004397,-97.143951,102.368774,-117.377563,60.187636,24.830121,12.070293,12.682211,-1.0,-1.0,100.616379,-1.257744,3.127843,-0.032931,-1.883821
842483.012036,0.10537902,0.3179421,9.77946147,0.002697,0.001255,0.003705,-97.197968,102.237411,-117.515503,60.187636,24.830121,12.070293,12.682211,-1.0,-1.0,100.616379,-1.257744,3.127854,-0.032938,-1.883823
842483.05201,0.09640287000000002,0.31105548,9.76988691,0.004301,0.000346,0.005815,-97.302521,102.343613,-117.429489,60.187636,24.830121,12.070293,12.682211,-1.0,-1.0,100.616379,-1.257744,3.127885,-0.032962,-1.883814
842483.05201,0.09640287000000002,0.31105548,9.76988691,0.004301,0.000346,0.005815,-97.302521,102.343613,-117.429489,60.187636,24.830121,12.070293,12.682211,-1.0,-1.0,100.616379,-1.257744,3.127885,-0.032962,-1.883814
842483.091984,0.08382645000000001,0.30866184,9.775723860000001,0.003704,-0.001673,0.004242,-97.279022,102.481918,-117.214157,60.187636,24.830121,12.070293,12.682211,-1.0,-1.0,100.616379,-1.257744,3.127907,-0.032968,-1.883814
842483.091984,0.08382645000000001,0.30866184,9.775723860000001,0.003704,-0.001673,0.004242,-97.279022,102.481918,-117.214157,60.187636,24.830121,12.070293,12.682211,-1.0,-1.0,100.616379,-1.257744,3.127907,-0.032968,-1.883814
842483.131958,0.09265545000000001,0.32572143000000003,9.77737194,0.003405,-0.000999,0.004623,-97.440369,102.055038,-117.162369,60.187636,24.830121,12.070293,12.682211,-1.0,-1.0,100.616379,-1.257744,3.127919,-0.032957,-1.883821
842483.131958,0.09265545000000001,0.32572143000000003,9.77737194,0.003405,-0.000999,0.004623,-97.440369,102.055038,-117.162369,60.187636,24.830121,12.070293,12.682211,-1.0,-1.0,100.616379,-1.257744,3.127919,-0.032957,-1.883821
842483.171932,0.08861373,0.32182686000000005,9.767934720000001,0.001217,-0.000307,0.003924,-97.492035,102.285553,-117.621094,60.187636,24.830121,12.070293,12.682211,-1.0,-1.0,100.616379,-1.257744,3.127935,-0.03293,-1.883813
842483.171932,0.08861373,0.32182686000000005,9.767934720000001,0.001217,-0.000307,0.003924,-97.492035,102.285553,-117.621094,60.187636,24.830121,12.070293,12.682211,-1.0,-1.0,100.616379,-1.257744,3.127935,-0.03293,-1.883813
842483.211906,0.09190989000000001,0.29833191000000003,9.79758054,0.002789,-0.000428,0.004557,-97.653763,102.174805,-117.504745,60.187636,24.830121,12.070293,12.682211,-1.0,-1.0,100.616379,-1.257744,3.127961,-0.032925,-1.883789
842483.231893,0.09295956000000001,0.32213097,9.774968490000001,0.001712,-0.00156,0.004315,-97.293671,102.333649,-117.657608,60.187636,24.830121,12.070293,12.682211,-1.0,-1.0,100.616379,-1.257744,3.127963,-0.032919,-1.883785
842483.25188,0.09400923,0.32302368,9.779167170000001,0.002919,0.002255,0.003968,-97.293671,102.333649,-117.657608,60.187636,24.830121,12.070293,12.682211,-1.0,-1.0,100.616379,-1.257744,3.127974,-0.032918,-1.883783
842483.271867,0.08876088000000001,0.3150972,9.787996170000001,0.003994,0.000273,0.004746,-97.452896,102.442871,-117.58075,60.187636,24.830121,12.070293,12.682211,-1.0,-1.0,100.616379,-1.257744,3.127989,-0.032904,-1.883775
842483.271867,0.08876088000000001,0.3150972,9.787996170000001,0.003994,0.000273,0.004746,-97.452896,102.442871,-117.58075,60.187636,24.830121,12.070293,12.682211,-1.0,-1.0,100.616379,-1.257744,3.127989,-0.032904,-1.883775
842483.271867,0.08876088000000001,0.3150972,9.787996170000001,0.003994,0.000273,0.004746,-97.452896,102.442871,-117.58075,60.187636,24.830121,12.070293,12.682211,-1.0,-1.0,100.616379,-1.257744,3.127989,-0.032904,-1.883775
842483.331828,0.09550035000000001,0.30565998000000005,9.79517709,0.001541,0.001199,0.003449,-97.413788,102.202698,-117.375153,60.187636,24.830121,12.070293,12.682211,-1.0,-1.0,100.616379,-1.257744,3.12801,-0.032892,-1.883781
842483.351815,0.08861373,0.30326634,9.779167170000001,0.003398,-0.000247,0.003474,-97.511475,102.264343,-117.375961,60.187636,24.830121,12.070293,12.682211,-1.0,-1.0,100.616379,-1.257744,3.12802,-0.032892,-1.883789
842483.371802,0.09714843000000001,0.30192237,9.780815250000002,0.005148,-0.001841,0.004,-97.280182,102.262711,-117.418457,60.187636,24.830121,12.070293,12.682211,-1.0,-1.0,100.616379,-1.257744,3.128048,-0.032888,-1.88378
842483.391789,0.09759969,0.32093415000000003,9.78185511,0.000596,0.000789,0.00367,-97.593124,102.205383,-117.658203,60.187636,24.830121,12.070293,12.682211,-1.0,-1.0,100.617004,-1.310589,3.128054,-0.032902,-1.883777
842483.411776,0.08277678,0.30835773000000005,9.784101600000001,0.004649,-0.001482,0.003156,-97.526779,102.237793,-117.215836,60.187636,24.830121,12.070293,12.682211,-1.0,-1.0,100.617004,-1.310589,3.12806,-0.0329,-1.883773
842483.431763,0.07484049000000001,0.31000581,9.7724277,0.002362,-0.000575,0.004284,-97.502594,102.278458,-117.426773,60.187636,24.830121,12.070293,12.682211,-1.0,-1.0,100.617004,-1.310589,3.128064,-0.03289,-1.88376
842483.45175,0.08337519,0.32003163,9.77632227,0.004639,0.001308,0.005073,-97.521774,102.17215,-117.437866,60.187636,24.830121,12.070293,12.682211,-1.0,-1.0,100.617004,-1.310589,3.128069,-0.032895,-1.883761
842483.471737,0.09295956000000001,0.2948886,9.791439480000001,0.004745,-0.001275,0.003911,-97.403976,101.91449,-117.543839,60.187636,24.830121,12.070293,12.682211,-1.0,-1.0,100.617004,-1.310589,3.128077,-0.032901,-1.883773
842483.491724,0.09504909,0.31838355,9.77632227,0.002659,-0.000132,0.004353,-97.249115,102.047714,-117.050751,60.187636,24.830121,12.070293,12.682211,-1.0,-1.0,100.617004,-1.310589,3.128095,-0.0329,-1.883769
842483.511711,0.09700128,0.3122523,9.77482134,0.004042,-1.6e-05,0.004022,-97.38324,102.289886,-117.404572,60.187636,24.830121,12.070293,12.682211,-1.0,-1.0,100.617004,-1.310589,3.128112,-0.032917,-1.883772
842483.531698,0.1070271,0.3125466,9.79053696,0.004087,-0.001468,0.004063,-97.31665,102.300522,-117.376312,60.187636,24.830121,12.070293,12.682211,-1.0,-1.0,100.617004,-1.310589,3.12814,-0.032911,-1.88376
842483.551685,0.08308089000000002,0.32976315,9.77737194,0.001843,7.4e-05,0.002363,-97.306641,102.125015,-117.296692,60.187636,24.830121,12.070293,12.682211,-1.0,-1.0,100.617004,-1.310589,3.128149,-0.032901,-1.883752
842483.571672,0.09236115,0.31988447999999997,9.763294590000001,0.004913,-0.001252,0.003267,-97.380722,102.219254,-117.493271,60.187636,24.830121,12.070293,12.682211,-1.0,-1.0,100.617004,-1.310589,3.128151,-0.032894,-1.883734
842483.591659,0.09056592000000001,0.31883481,9.787544910000001,0.001794,9.2e-05,0.00295,-97.383835,102.430267,-117.43071,60.187636,24.830121,12.070293,12.682211,-1.0,-1.0,100.617004,-1.310589,3.128154,-0.032889,-1.883739
842483.611646,0.09310671,0.30506157,9.7894971,0.003395,-0.000692,0.003129,-97.357193,102.144241,-117.150986,60.187636,24.830121,12.070293,12.682211,-1.0,-1.0,100.617004,-1.310589,3.12817,-0.032881,-1.883744
842483.65162,0.0865242,0.32213097,9.77692068,0.000878,0.000382,0.002746,-97.432602,102.246964,-117.278946,60.187636,24.830121,12.070293,12.682211,-1.0,-1.0,100.617004,-1.310589,3.128195,-0.032889,-1.883741
842483.65162,0.0865242,0.32213097,9.77692068,0.000878,0.000382,0.002746,-97.432602,102.246964,-117.278946,60.187636,24.830121,12.070293,12.682211,-1.0,-1.0,100.617004,-1.310589,3.128195,-0.032889,-1.883741
842483.671607,0.10896948000000001,0.320787,9.77362452,0.005348,0.00016,0.003538,-97.31102,102.064728,-117.0298,60.187636,24.830121,12.070293,12.682211,-1.0,-1.0,100.617004,-1.310589,3.128191,-0.032886,-1.883742
842483.691594,0.09714843000000001,0.31928607000000003,9.7929306,0.004527,-0.000101,0.00449,-97.594452,102.109299,-117.305161,60.187636,24.830121,12.070293,12.682211,-1.0,-1.0,100.617004,-1.310589,3.128202,-0.032877,-1.883734
842483.711581,0.08935929000000001,0.32302368,9.8043102,0.003036,-0.000399,0.005157,-97.503174,102.101334,-117.029831,60.187636,24.830121,12.070293,12.682211,-1.0,-1.0,100.617004,-1.310589,3.128212,-0.032876,-1.883744
842483.731568,0.09849240000000001,0.32063004,9.79413723,0.005358,0.000112,0.00332,-97.459473,102.206528,-117.163605,60.187636,24.830121,12.070293,12.682211,-1.0,-1.0,100.617004,-1.310589,3.128225,-0.032882,-1.883734
842483.771542,0.10343664,0.31629402,9.795334050000001,0.002765,-0.000329,0.005138,-97.28981,102.285217,-117.176605,60.187636,24.830121,12.070293,12.682211,-1.0,-1.0,100.617004,-1.310589,3.128223,-0.032868,-1.883708
842483.791529,0.10328949000000001,0.31703958,9.77302611,0.005504,-0.000493,0.002715,-97.368591,102.185638,-117.260162,60.187636,24.830121,12.070293,12.682211,-1.0,-1.0,100.617004,-1.310589,3.128243,-0.032858,-1.883718
842483.811516,0.1013373,0.31658832000000003,9.78470001,0.002109,-0.000121,0.005179,-97.311172,102.189957,-117.270416,60.187636,24.830121,12.070293,12.682211,-1.0,-1.0,100.617004,-1.310589,3.128259,-0.032861,-1.883704
842483.811516,0.1013373,0.31658832000000003,9.78470001,0.002109,-0.000121,0.005179,-97.311172,102.189957,-117.270416,60.187636,24.830121,12.070293,12.682211,-1.0,-1.0,100.617004,-1.310589,3.128259,-0.032861,-1.883704
842483.85149,0.08636724,0.32063004,9.767787570000001,0.003874,-0.000492,0.003658,-97.384872,102.308792,-117.557053,60.187636,24.830121,12.070293,12.682211,-1.0,-1.0,100.617004,-1.310589,3.128296,-0.032848,-1.883701
842483.85149,0.08636724,0.32063004,9.767787570000001,0.003874,-0.000492,0.003658,-97.384872,102.308792,-117.557053,60.187636,24.830121,12.070293,12.682211,-1.0,-1.0,100.617004,-1.310589,3.128296,-0.032848,-1.883701
842483.891464,0.10777265999999999,0.33095997000000005,9.7724277,0.00644,-0.00143,0.003765,-97.294861,102.267532,-117.449234,60.187636,24.830121,12.070293,12.682211,-1.0,-1.0,100.617004,-1.310589,3.128299,-0.03285,-1.8837
842483.891464,0.10777265999999999,0.33095997000000005,9.7724277,0.00644,-0.00143,0.003765,-97.294861,102.267532,-117.449234,60.187636,24.830121,12.070293,12.682211,-1.0,-1.0,100.617004,-1.310589,3.128299,-0.03285,-1.8837
842483.931437,0.08981055,0.31000581,9.78829047,0.002124,-0.000361,0.004196,-97.395676,102.245407,-117.337067,60.187636,24.830121,12.070293,12.682211,-1.0,-1.0,100.617004,-1.310589,3.128319,-0.032862,-1.88369
842483.931437,0.08981055,0.31000581,9.78829047,0.002124,-0.000361,0.004196,-97.395676,102.245407,-117.337067,60.187636,24.830121,12.070293,12.682211,-1.0,-1.0,100.617004,-1.310589,3.128319,-0.032862,-1.88369
842483.971411,0.09355797,0.30117681,9.77482134,0.003082,2.1e-05,0.004839,-97.455933,102.376877,-117.285141,60.187636,24.830121,12.070293,12.682211,-1.0,-1.0,100.617004,-1.310589,3.128341,-0.03288,-1.883672
842483.991398,0.09968922,0.32437746,9.77452704,0.004671,-0.00057,0.005824,-97.271149,102.516769,-117.214111,60.187636,24.830121,12.070293,12.682211,-1.0,-1.0,100.617004,-1.310589,3.128347,-0.032903,-1.88368
842484.011385,0.08592579,0.31075136999999997,9.79173378,0.004186,1.7e-05,0.004909,-97.080963,102.48497,-117.065292,60.187636,24.830121,12.070293,12.682211,-1.0,-1.0,100.617004,-1.310589,3.128355,-0.032898,-1.883679
842484.031372,0.0925083,0.31614687,9.77437008,0.002343,-0.000363,0.003043,-97.462402,102.462463,-117.377289,60.187636,24.830121,12.070293,12.682211,-1.0,-1.0,100.617004,-1.310589,3.128367,-0.032893,-1.883665
842484.031372,0.0925083,0.31614687,9.77437008,0.002343,-0.000363,0.003043,-97.462402,102.462463,-117.377289,60.187636,24.830121,12.070293,12.682211,-1.0,-1.0,100.617004,-1.310589,3.128367,-0.032893,-1.883665
842484.051359,0.0928026,0.31868766000000004,9.78620094,0.00588,-0.000777,0.002713,-97.383408,102.340164,-117.389175,60.187636,24.830121,12.070293,12.682211,-1.0,-1.0,100.617004,-1.310589,3.128376,-0.032908,-1.883653
842484.091333,0.09355797,0.31778514,9.775723860000001,0.001051,1.5e-05,0.004695,-97.242371,102.632278,-117.473953,60.187636,24.830121,12.070293,12.682211,-1.0,-1.0,100.617004,-1.310589,3.128381,-0.032901,-1.883658
842484.11132,0.10298538000000002,0.31449879,9.79248915,0.005399,0.000518,0.003847,-97.41333,102.533325,-117.444168,60.187636,24.830121,12.070293,12.682211,-1.0,-1.0,100.617004,-1.310589,3.128388,-0.032888,-1.883675
842484.131307,0.09116433,0.30775932,9.79038981,0.000396,0.000325,0.003498,-97.337234,102.548965,-117.56134,60.187636,24.830121,12.070293,12.682211,-1.0,-1.0,100.617004,-1.310589,3.128407,-0.032888,-1.88367
842484.151294,0.09640287000000002,0.33006726000000003,9.77257485,0.004558,0.001869,0.004247,-97.285095,102.367661,-117.437271,60.187636,24.830121,12.070293,12.682211,-1.0,-1.0,100.617004,-1.310589,3.12842,-0.032879,-1.883672
842484.171281,0.09056592000000001,0.32467176000000003,9.79697232,0.004143,-0.001164,0.004238,-97.210587,102.493454,-117.354279,60.187636,24.830121,12.070293,12.682211,-1.0,-1.0,100.617004,-1.310589,3.128431,-0.032879,-1.883676
842484.191268,0.09205704,0.31524435,9.779167170000001,0.00104,0.001575,0.003174,-97.212097,102.287781,-117.555832,60.187636,24.830121,12.070293,12.682211,-1.0,-1.0,100.617004,-1.310589,3.128426,-0.032873,-1.883684
842484.211255,0.09954207,0.31898196000000006,9.775723860000001,0.004495,-0.000208,0.004547,-96.914352,102.514206,-117.433029,60.187636,24.830121,12.070293,12.682211,-1.0,-1.0,100.617004,-1.310589,3.12844,-0.032866,-1.883667
842484.231242,0.09340101,0.31434183000000004,9.771829290000001,0.00249,-0.000168,0.005145,-96.819916,102.180756,-117.476151,60.187636,24.830121,12.070293,12.682211,-1.0,-1.0,100.617004,-1.310589,3.128456,-0.032862,-1.883663
842484.251229,0.09430353000000001,0.31374342,9.79233219,0.003505,0.000501,0.004753,-97.05954,102.154404,-117.417252,60.187636,24.830121,12.070293,12.682211,-1.0,-1.0,100.617004,-1.310589,3.12847,-0.032874,-1.883671
842484.271216,0.08607294000000001,0.30701375999999997,9.784248750000001,0.005541,-0.000871,0.005283,-97.277817,102.250412,-117.447128,60.187636,24.830121,12.070293,12.682211,-1.0,-1.0,100.617004,-1.310589,3.128474,-0.032879,-1.883682
842484.291203,0.09116433,0.31584276000000006,9.768690090000002,0.00265,-0.001652,0.003502,-97.087769,102.326157,-117.589127,60.187636,24.830121,12.070293,12.682211,-1.0,-1.0,100.617004,-1.310589,3.128477,-0.032886,-1.883686
842484.311191,0.09385227000000002,0.30835773000000005,9.77781339,0.002478,-0.002311,0.004037,-97.389999,102.305527,-117.459641,60.187636,24.830121,12.070293,12.682211,-1.0,-1.0,100.617004,-1.310589,3.128479,-0.032896,-1.883689
842484.331178,0.08143281,0.31629402,9.743390100000001,0.005162,-0.001636,0.001997,-97.28363,102.302795,-117.440765,60.187636,24.830121,12.070293,12.682211,-1.0,-1.0,100.617004,-1.310589,3.128491,-0.032886,-1.883685
842484.351165,0.09086022,0.30895614000000005,9.76809168,5.9e-05,-0.00112,0.003986,-97.325974,102.190399,-117.253616,60.187636,24.830121,12.070293,12.682211,-1.0,-1.0,100.617004,-1.310589,3.128499,-0.032886,-1.883676
842484.391139,0.08607294000000001,0.32138541,9.752817510000002,0.001621,-8.6e-05,0.004722,-97.086197,102.105972,-117.234039,60.187636,24.830121,12.070293,12.682211,-1.0,-1.0,100.617004,-1.310589,3.128501,-0.03288,-1.883665
842484.411126,0.0925083,0.32662395,9.75731049,0.002052,0.00063,0.003816,-97.197296,102.185638,-117.41539,60.187636,24.830121,12.070293,12.682211,-1.0,-1.0,100.617004,-1.310589,3.128499,-0.032876,-1.883669
842484.411126,0.0925083,0.32662395,9.75731049,0.002052,0.00063,0.003816,-97.197296,102.185638,-117.41539,60.187636,24.830121,12.070293,12.682211,-1.0,-1.0,100.617004,-1.310589,3.128499,-0.032876,-1.883669
842484.4511,0.10119015,0.30880899,9.7986204,-0.000408,0.000623,0.003921,-97.289536,102.145111,-117.146271,60.187636,24.830121,12.070293,12.682211,-1.0,-1.0,100.617004,-1.310589,3.128519,-0.032874,-1.883677
842484.4511,0.10119015,0.30880899,9.7986204,-0.000408,0.000623,0.003921,-97.289536,102.145111,-117.146271,60.187636,24.830121,12.070293,12.682211,-1.0,-1.0,100.617004,-1.310589,3.128519,-0.032874,-1.883677
842484.491074,0.09160578000000001,0.31808925000000005,9.78485697,0.005865,-0.000834,0.005894,-97.282043,102.29306,-117.222717,60.187636,24.830121,12.070293,12.682211,-1.0,-1.0,100.617599,-1.360794,3.128533,-0.032862,-1.883675
842484.491074,0.09160578000000001,0.31808925000000005,9.78485697,0.005865,-0.000834,0.005894,-97.282043,102.29306,-117.222717,60.187636,24.830121,12.070293,12.682211,-1.0,-1.0,100.617599,-1.360794,3.128533,-0.032862,-1.883675
842484.531048,0.10014048,0.33095997000000005,9.78005988,0.004114,0.001362,0.004609,-97.2332,102.431213,-117.328995,60.187636,24.830121,12.070293,12.682211,-1.0,-1.0,100.617599,-1.360794,3.128537,-0.032859,-1.883683
842484.531048,0.10014048,0.33095997000000005,9.78005988,0.004114,0.001362,0.004609,-97.2332,102.431213,-117.328995,60.187636,24.830121,12.070293,12.682211,-1.0,-1.0,100.617599,-1.360794,3.128537,-0.032859,-1.883683
842484.571022,0.08712261,0.30866184,9.79353882,0.003722,-0.000281,0.003485,-97.406448,102.19931,-117.45874,60.187636,24.830121,12.070293,12.682211,-1.0,-1.0,100.617599,-1.360794,3.128567,-0.032842,-1.883671
842484.571022,0.08712261,0.30866184,9.79353882,0.003722,-0.000281,0.003485,-97.406448,102.19931,-117.45874,60.187636,24.830121,12.070293,12.682211,-1.0,-1.0,100.617599,-1.360794,3.128567,-0.032842,-1.883671
842484.610996,0.09340101,0.31299785999999996,9.77766624,0.001594,0.000228,0.002726,-97.42923,102.356598,-117.083725,60.187636,24.830121,12.070293,12.682211,-1.0,-1.0,100.617599,-1.360794,3.128574,-0.032847,-1.883667
842484.630983,0.09924777,0.31150674,9.7781175,0.00454,-0.000505,0.004564,-97.389496,102.346497,-117.128845,60.187636,24.830121,12.070293,12.682211,-1.0,-1.0,100.617599,-1.360794,3.128572,-0.032854,-1.883664
842484.65097,0.10223982000000001,0.30730806,9.81733788,0.003899,-0.000597,0.003192,-97.277725,102.434662,-117.184067,60.187636,24.830121,12.070293,12.682211,-1.0,-1.0,100.617599,-1.360794,3.128583,-0.032867,-1.883653
842484.65097,0.10223982000000001,0.30730806,9.81733788,0.003899,-0.000597,0.003192,-97.277725,102.434662,-117.184067,60.187636,24.830121,12.070293,12.682211,-1.0,-1.0,100.617599,-1.360794,3.128583,-0.032867,-1.883653
842484.690944,0.08292393,0.31150674,9.78470001,0.00483,-0.000879,0.004936,-97.314621,102.358719,-117.226929,60.187636,24.830121,12.070293,12.682211,-1.0,-1.0,100.617599,-1.360794,3.128595,-0.032864,-1.883658
842484.690944,0.08292393,0.31150674,9.78470001,0.00483,-0.000879,0.004936,-97.314621,102.358719,-117.226929,60.187636,24.830121,12.070293,12.682211,-1.0,-1.0,100.617599,-1.360794,3.128595,-0.032864,-1.883658
842484.730918,0.09684432000000001,0.30955455000000004,9.77721498,0.003234,8.1e-05,0.003927,-97.200226,102.475235,-117.665588,60.187636,24.830121,12.070293,12.682211,-1.0,-1.0,100.617599,-1.360794,3.128614,-0.032873,-1.883652
842484.750905,0.09236115,0.32318064,9.79383312,0.004739,-0.001073,0.004465,-97.316406,102.678558,-117.489548,60.187636,24.830121,12.070293,12.682211,-1.0,-1.0,100.617599,-1.360794,3.128623,-0.032877,-1.883643
842484.770893,0.10014048,0.30835773000000005,9.780511140000002,0.002964,-0.001333,0.004243,-97.452057,102.422607,-117.536438,60.187636,24.830121,12.070293,12.682211,-1.0,-1.0,100.617599,-1.360794,3.128641,-0.032878,-1.883642
842484.770893,0.10014048,0.30835773000000005,9.780511140000002,0.002964,-0.001333,0.004243,-97.452057,102.422607,-117.536438,60.187636,24.830121,12.070293,12.682211,-1.0,-1.0,100.617599,-1.360794,3.128641,-0.032878,-1.883642
842484.810867,0.09834525,0.32048288999999996,9.79697232,0.00511,-0.0004,0.003523,-97.348557,102.538956,-117.427231,60.187636,24.830121,12.070293,12.682211,-1.0,-1.0,100.617599,-1.360794,3.128664,-0.03289,-1.883655
842484.830854,0.10657584,0.31554846000000003,9.77257485,0.001607,-0.000101,0.004023,-97.214478,102.342743,-117.470367,60.187662,24.830108,12.67079,18.204524,-1.0,-1.0,100.617599,-1.360794,3.128665,-0.0329,-1.883642
842484.850841,0.09759969,0.30806343,9.77063247,0.004647,4e-05,0.004638,-97.355255,102.380295,-117.47464,60.187662,24.830108,12.67079,18.204524,-1.0,-1.0,100.617599,-1.360794,3.128664,-0.032893,-1.883642
842484.870828,0.08262963000000001,0.31479309,9.7692885,0.003061,3.5e-05,0.002633,-97.390289,102.406189,-117.184799,60.187662,24.830108,12.67079,18.204524,-1.0,-1.0,100.617599,-1.360794,3.128672,-0.032879,-1.883632
842484.890815,0.09714843000000001,0.33215679000000004,9.78829047,0.002117,0.001201,0.00527,-97.305603,102.340012,-117.283905,60.187662,24.830108,12.67079,18.204524,-1.0,-1.0,100.617599,-1.360794,3.128678,-0.032873,-1.883628
842484.910802,0.09236115,0.30895614000000005,9.799670070000001,0.004233,-0.00228,0.002496,-97.466995,102.2995,-117.351578,60.187662,24.830108,12.67079,18.204524,-1.0,-1.0,100.617599,-1.360794,3.128697,-0.032872,-1.883619
842484.930789,0.09011466,0.30431601,9.78261048,0.003761,-0.002438,0.003913,-97.280411,102.469971,-117.525589,60.187662,24.830108,12.67079,18.204524,-1.0,-1.0,100.617599,-1.360794,3.128705,-0.032863,-1.883613
842484.950776,0.09071307,0.3182364,9.78455286,0.002088,0.00011,0.004371,-97.257996,102.453949,-117.381195,60.187662,24.830108,12.67079,18.204524,-1.0,-1.0,100.617599,-1.360794,3.128712,-0.032867,-1.883622
842484.99075,0.08921214,0.31524435,9.79084107,0.001651,0.000736,0.004343,-97.000366,102.480148,-117.575684,60.187662,24.830108,12.67079,18.204524,-1.0,-1.0,100.617599,-1.360794,3.128739,-0.032876,-1.883616
842485.010737,0.09100737,0.31644117000000005,9.77467419,0.004338,-0.000416,0.003058,-96.942184,102.565414,-117.420486,60.187662,24.830108,12.67079,18.204524,-1.0,-1.0,100.617599,-1.360794,3.12874,-0.03288,-1.883616
842485.030724,0.0928026,0.31419468,9.7897914,0.003423,-0.002664,0.004748,-97.22226,102.424393,-117.636887,60.187662,24.830108,12.67079,18.204524,-1.0,-1.0,100.617599,-1.360794,3.128745,-0.032867,-1.883623
842485.030724,0.0928026,0.31419468,9.7897914,0.003423,-0.002664,0.004748,-97.22226,102.424393,-117.636887,60.187662,24.830108,12.67079,18.204524,-1.0,-1.0,100.617599,-1.360794,3.128745,-0.032867,-1.883623
842485.070699,0.10044459,0.31239945,9.76508982,0.004423,-0.001136,0.00372,-97.305649,102.461365,-117.222382,60.187662,24.830108,12.67079,18.204524,-1.0,-1.0,100.617599,-1.360794,3.12875,-0.032885,-1.883604
842485.090686,0.08352234000000001,0.31449879,9.772280550000001,0.003057,-0.000766,0.003393,-97.403717,102.470062,-117.441605,60.187662,24.830108,12.67079,18.204524,-1.0,-1.0,100.617599,-1.360794,3.128775,-0.032877,-1.883598
842485.090686,0.08352234000000001,0.31449879,9.772280550000001,0.003057,-0.000766,0.003393,-97.403717,102.470062,-117.441605,60.187662,24.830108,12.67079,18.204524,-1.0,-1.0,100.617599,-1.360794,3.128775,-0.032877,-1.883598
842485.13066,0.09805095000000001,0.30955455000000004,9.78844743,0.003132,-0.002524,0.0035,-97.187439,102.28009,-117.31694,60.187662,24.830108,12.67079,18.204524,-1.0,-1.0,100.617599,-1.360794,3.128794,-0.032895,-1.883609
842485.150647,0.07858791000000001,0.32033574000000004,9.76688505,0.003132,-0.002524,0.0035,-97.435043,102.262543,-117.369003,60.187662,24.830108,12.67079,18.204524,-1.0,-1.0,100.617599,-1.360794,3.128797,-0.03289,-1.883606
842485.170634,0.08816247,0.3210813,9.75461274,0.004136,0.000631,0.00603,-97.207855,102.255035,-117.705902,60.187662,24.830108,12.67079,18.204524,-1.0,-1.0,100.617599,-1.360794,3.128815,-0.032893,-1.883604
842485.190621,0.08562168,0.31404753,9.78649524,0.003454,-0.000773,0.004054,-97.116806,102.220581,-116.999832,60.187662,24.830108,12.67079,18.204524,-1.0,-1.0,100.617599,-1.360794,3.128829,-0.032898,-1.88362
842485.210608,0.08636724,0.30761217,9.76508982,0.001429,0.000955,0.003858,-97.371033,102.211182,-117.384018,60.187662,24.830108,12.67079,18.204524,-1.0,-1.0,100.617599,-1.360794,3.128834,-0.032907,-1.883631
842485.230595,0.08471916,0.32572143000000003,9.76972995,0.005575,0.000836,0.004452,-97.344635,102.191849,-117.455032,60.187662,24.830108,12.67079,18.204524,-1.0,-1.0,100.617599,-1.360794,3.128836,-0.032905,-1.883622
842485.250582,0.10478061,0.30221667,9.7812567,0.001574,0.00052,0.005025,-97.458832,102.397491,-117.437546,60.187662,24.830108,12.67079,18.204524,-1.0,-1.0,100.617599,-1.360794,3.128851,-0.032901,-1.883621
842485.270569,0.09430353000000001,0.32512302,9.787544910000001,0.003243,0.000183,0.003799,-97.281448,102.442795,-117.516357,60.187662,24.830108,12.67079,18.204524,-1.0,-1.0,100.617599,-1.360794,3.128855,-0.032896,-1.883605
842485.290556,0.0865242,0.31194819,9.7784118,0.005542,-0.001213,0.004424,-97.315872,102.221542,-117.447723,60.187662,24.830108,12.67079,18.204524,-1.0,-1.0,100.617599,-1.360794,3.128866,-0.032904,-1.883604
842485.310544,0.09669717,0.32332779000000006,9.76688505,0.001023,0.000687,0.001866,-97.393402,102.400635,-117.351501,60.187662,24.830108,12.67079,18.204524,-1.0,-1.0,100.617599,-1.360794,3.128871,-0.032897,-1.883598
842485.310544,0.09669717,0.32332779000000006,9.76688505,0.001023,0.000687,0.001866,-97.393402,102.400635,-117.351501,60.187662,24.830108,12.67079,18.204524,-1.0,-1.0,100.617599,-1.360794,3.128871,-0.032897,-1.883598
842485.350518,0.08906499000000001,0.30730806,9.77737194,0.003859,-0.000849,0.005353,-97.313766,102.296204,-117.420685,60.187662,24.830108,12.67079,18.204524,-1.0,-1.0,100.617599,-1.360794,3.128874,-0.032895,-1.883585
842485.370505,0.10238697000000001,0.30117681,9.78141366,0.001947,0.000601,0.004525,-97.332825,102.393951,-117.375229,60.187662,24.830108,12.67079,18.204524,-1.0,-1.0,100.617599,-1.360794,3.128876,-0.032892,-1.883585
842485.390492,0.09011466,0.30730806,9.78036399,0.005386,-0.000616,0.002956,-97.348724,102.277206,-117.414352,60.187662,24.830108,12.67079,18.204524,-1.0,-1.0,100.617599,-1.360794,3.128887,-0.032895,-1.883592
842485.410479,0.10014048,0.31239945,9.77781339,0.002466,-0.000511,0.004611,-97.348724,102.277206,-117.414352,60.187662,24.830108,12.67079,18.204524,-1.0,-1.0,100.617599,-1.360794,3.128885,-0.032899,-1.883596
842485.430466,0.09236115,0.3210813,9.799218810000001,0.002324,-0.000749,0.004177,-97.338364,102.217819,-117.172287,60.187662,24.830108,12.67079,18.204524,-1.0,-1.0,100.617599,-1.360794,3.128906,-0.032916,-1.883589
842485.450453,0.08921214,0.32332779000000006,9.78485697,0.005344,-0.000683,0.003142,-97.396851,102.368729,-117.560318,60.187662,24.830108,12.67079,18.204524,-1.0,-1.0,100.617599,-1.360794,3.128929,-0.032905,-1.883573
842485.47044,0.10028763,0.32542713,9.787849020000001,0.00265,0.000708,0.004904,-97.409821,102.19429,-117.411987,60.187662,24.830108,12.67079,18.204524,-1.0,-1.0,100.617599,-1.360794,3.128934,-0.03291,-1.883555
842485.510414,0.07844076,0.31239945,9.78515127,0.003626,5.5e-05,0.004914,-97.030838,102.376297,-117.050507,60.187662,24.830108,12.67079,18.204524,-1.0,-1.0,100.617599,-1.360794,3.128959,-0.032917,-1.883565
842485.530402,0.09744273000000002,0.329616,9.77347737,0.003838,0.000916,0.004127,-96.961166,102.567398,-117.337326,60.187662,24.830108,12.67079,18.204524,-1.0,-1.0,100.617599,-1.360794,3.128973,-0.032927,-1.883559
842485.550389,0.09011466,0.3097017,9.78485697,0.00586,-0.001782,0.003515,-97.437225,102.408386,-117.235046,60.187662,24.830108,12.67079,18.204524,-1.0,-1.0,100.617912,-1.387215,3.128981,-0.032931,-1.883572
842485.570376,0.08277678,0.31629402,9.78261048,0.003744,-0.000978,0.003962,-97.535706,102.330841,-117.079056,60.187662,24.830108,12.67079,18.204524,-1.0,-1.0,100.617912,-1.387215,3.128976,-0.032935,-1.883567
842485.590363,0.10552617,0.31075136999999997,9.784248750000001,0.000989,0.002459,0.004739,-97.390457,102.383453,-117.103607,60.187662,24.830108,12.67079,18.204524,-1.0,-1.0,100.617912,-1.387215,3.128979,-0.032942,-1.883563
842485.61035,0.08667135000000001,0.31105548,9.772280550000001,0.00448,-0.000114,0.005021,-97.232468,102.416901,-117.379929,60.187662,24.830108,12.67079,18.204524,-1.0,-1.0,100.617912,-1.387215,3.128995,-0.032929,-1.883563
842485.630337,0.08622009,0.31838355,9.75865446,0.002965,-3.1e-05,0.002424,-97.389374,102.398621,-117.113159,60.187662,24.830108,12.67079,18.204524,-1.0,-1.0,100.617912,-1.387215,3.129004,-0.032928,-1.883558
842485.650324,0.09475478999999999,0.3210813,9.796226760000001,0.003821,-0.000284,0.003853,-97.395721,102.209854,-117.201202,60.187662,24.830108,12.67079,18.204524,-1.0,-1.0,100.617912,-1.387215,3.129002,-0.032934,-1.883564
842485.670311,0.09550035000000001,0.30641535000000003,9.763451550000001,0.004918,-0.000613,0.005249,-97.462143,102.193207,-117.211227,60.187662,24.830108,12.67079,18.204524,-1.0,-1.0,100.617912,-1.387215,3.129015,-0.03293,-1.883558
842485.710285,0.08726976,0.31449879,9.77721498,0.005674,-0.001066,0.004077,-97.341843,102.281464,-117.555649,60.187662,24.830108,12.67079,18.204524,-1.0,-1.0,100.617912,-1.387215,3.129021,-0.032926,-1.883572
842485.730273,0.08636724,0.30581694000000004,9.78560253,0.003168,-0.000132,0.002876,-97.106659,102.263184,-117.094543,60.187662,24.830108,12.67079,18.204524,-1.0,-1.0,100.617912,-1.387215,3.129009,-0.032932,-1.883563
842485.75026,0.09759969,0.32332779000000006,9.772280550000001,0.002408,0.001111,0.004204,-97.216125,102.292618,-117.322342,60.187662,24.830108,12.67079,18.204524,-1.0,-1.0,100.617912,-1.387215,3.129016,-0.03294,-1.883562
842485.770247,0.08382645000000001,0.30926025,9.77601816,0.002408,0.001111,0.004204,-97.139038,102.442368,-117.098053,60.187662,24.830108,12.67079,18.204524,-1.0,-1.0,100.617912,-1.387215,3.129021,-0.032953,-1.883564
842485.790234,0.08906499000000001,0.30701375999999997,9.767189160000001,0.00254,-0.000159,0.003195,-97.499985,102.11734,-117.096817,60.187662,24.830108,12.67079,18.204524,-1.0,-1.0,100.617912,-1.387215,3.129019,-0.032954,-1.883574
842485.810221,0.10463346000000001,0.31749084,9.784405710000001,0.002927,0.001919,0.004694,-97.388275,102.305817,-117.277069,60.187662,24.830108,12.67079,18.204524,-1.0,-1.0,100.617912,-1.387215,3.129019,-0.032966,-1.883553
842485.830208,0.08712261,0.31150674,9.78201207,0.00433,-0.000563,0.003802,-97.411057,102.229111,-117.155838,60.187662,24.830108,12.67079,18.204524,-1.0,-1.0,100.617912,-1.387215,3.129044,-0.032959,-1.883557
842485.850195,0.08292393,0.30701375999999997,9.77407578,0.00017,-0.000556,0.002075,-97.46228,102.17926,-117.195206,60.187662,24.830108,12.67079,18.204524,-1.0,-1.0,100.617912,-1.387215,3.12905,-0.032955,-1.883555
842485.870182,0.09624591,0.3122523,9.77003406,0.005079,7.4e-05,0.003542,-97.40303,102.162766,-117.066391,60.187662,24.830108,12.67079,18.204524,-1.0,-1.0,100.617912,-1.387215,3.129044,-0.032951,-1.883559
842485.890169,0.09131148000000001,0.3122523,9.78335604,0.004404,-0.00045,0.005302,-97.085892,102.47319,-117.056686,60.187662,24.830108,12.67079,18.204524,-1.0,-1.0,100.617912,-1.387215,3.129035,-0.032942,-1.883546
842485.910156,0.09310671,0.31718673000000003,9.80131815,0.002311,-0.001307,0.003316,-97.295319,102.310181,-117.136658,60.187662,24.830108,12.67079,18.204524,-1.0,-1.0,100.617912,-1.387215,3.12904,-0.032944,-1.883565
842485.930144,0.09460764,0.32182686000000005,9.755966520000001,0.006163,-0.000342,0.003648,-97.245804,102.229324,-117.22522,60.187662,24.830108,12.67079,18.204524,-1.0,-1.0,100.617912,-1.387215,3.12904,-0.032939,-1.883551
842485.950131,0.08576883000000002,0.32153256,9.80176941,0.002095,0.000183,0.004575,-97.268188,102.327179,-116.932327,60.187662,24.830108,12.67079,18.204524,-1.0,-1.0,100.617912,-1.387215,3.129056,-0.032947,-1.883553
842485.970118,0.10343664,0.30402171,9.787397760000001,0.002581,-0.002298,0.00334,-97.510788,102.239761,-117.333252,60.187662,24.830108,12.67079,18.204524,-1.0,-1.0,100.617912,-1.387215,3.129068,-0.03295,-1.883552
842485.990105,0.09176274,0.31554846000000003,9.78993855,0.005238,0.000173,0.005436,-97.567978,102.181183,-117.064499,60.187662,24.830108,12.67079,18.204524,-1.0,-1.0,100.617912,-1.387215,3.129062,-0.032942,-1.883555
842486.010092,0.08996751000000001,0.31763799,9.78110955,0.001938,0.001013,0.003637,-97.483917,102.20636,-117.206909,60.187662,24.830108,12.67079,18.204524,-1.0,-1.0,100.617912,-1.387215,3.129068,-0.032958,-1.883561
842486.030079,0.09295956000000001,0.30491442,9.78245352,0.003909,0.000779,0.003853,-97.508209,102.331696,-117.372894,60.187662,24.830108,12.67079,18.204524,-1.0,-1.0,100.617912,-1.387215,3.129092,-0.032966,-1.883566
842486.050066,0.09160578000000001,0.31030011,9.78261048,0.004377,0.000146,0.004713,-97.756607,102.057404,-117.316269,60.187662,24.830108,12.67079,18.204524,-1.0,-1.0,100.617912,-1.387215,3.129104,-0.032954,-1.883561
842486.070053,0.08846658,0.31749084,9.75491685,0.003046,0.000273,0.004948,-97.661606,102.078262,-117.053986,60.187662,24.830108,12.67079,18.204524,-1.0,-1.0,100.617912,-1.387215,3.129107,-0.03296,-1.883557
842486.09004,0.09684432000000001,0.30641535000000003,9.79443153,0.005568,-0.001708,0.002613,-97.729523,102.09285,-117.098846,60.187662,24.830108,12.67079,18.204524,-1.0,-1.0,100.617912,-1.387215,3.129112,-0.032957,-1.88357
842486.130015,0.09430353000000001,0.32318064,9.755662410000001,0.00377,0.000616,0.005379,-97.748978,102.215988,-117.08316,60.187662,24.830108,12.67079,18.204524,-1.0,-1.0,100.617912,-1.387215,3.129097,-0.032944,-1.883575
842486.150002,0.09160578000000001,0.31854051,9.7894971,0.00389,-0.001,0.006921,-97.685211,102.155243,-117.238922,60.187662,24.830108,12.67079,18.204524,-1.0,-1.0,100.617912,-1.387215,3.129111,-0.032935,-1.883577
842486.169989,0.10088604,0.30042144,9.755809560000001,0.001139,0.001183,0.003483,-97.655487,102.282181,-117.066742,60.187662,24.830108,12.67079,18.204524,-1.0,-1.0,100.617912,-1.387215,3.129124,-0.032924,-1.88358
842486.189976,0.07858791000000001,0.31928607000000003,9.7692885,0.003085,-0.001307,0.003119,-97.806747,102.2444,-117.435425,60.187662,24.830108,12.67079,18.204524,-1.0,-1.0,100.617912,-1.387215,3.129142,-0.032923,-1.883566
842486.209963,0.08906499000000001,0.31299785999999996,9.75461274,0.005728,0.00017,0.004019,-97.61351,102.371552,-117.241425,60.187662,24.830108,12.67079,18.204524,-1.0,-1.0,100.617912,-1.387215,3.129148,-0.032913,-1.883569
842486.22995,0.08876088000000001,0.32363190000000003,9.76044969,0.000572,-0.000872,0.003806,-97.407181,102.399994,-117.206635,60.187662,24.830108,12.67079,18.204524,-1.0,-1.0,100.617912,-1.387215,3.129166,-0.032913,-1.883569
842486.249937,0.09954207,0.3153915,9.78934014,0.004064,-0.000863,0.003064,-97.397659,102.243759,-117.16069,60.187662,24.830108,12.67079,18.204524,-1.0,-1.0,100.617912,-1.387215,3.129175,-0.032915,-1.883564
842486.269924,0.09265545000000001,0.33050871,9.75072798,0.004245,2e-06,0.005214,-97.519058,102.355652,-117.246933,60.187662,24.830108,12.67079,18.204524,-1.0,-1.0,100.617912,-1.387215,3.129198,-0.032898,-1.883566
842486.269924,0.09265545000000001,0.33050871,9.75072798,0.004245,2e-06,0.005214,-97.519058,102.355652,-117.246933,60.187662,24.830108,12.67079,18.204524,-1.0,-1.0,100.617912,-1.387215,3.129198,-0.032898,-1.883566
842486.289911,0.10223982000000001,0.3210813,9.78201207,0.002104,0.001532,0.002778,-97.544571,102.381348,-117.171844,60.187662,24.830108,12.67079,18.204524,-1.0,-1.0,100.617912,-1.387215,3.129212,-0.032903,-1.883576
842486.329886,0.09236115,0.32018859000000005,9.764795520000002,-0.000471,0.000762,0.002673,-97.584915,102.31366,-117.23822,60.187662,24.830108,12.67079,18.204524,-1.0,-1.0,100.617912,-1.387215,3.129228,-0.032888,-1.88357
842486.349873,0.09834525,0.32093415000000003,9.795775500000001,0.004166,0.000393,0.004102,-97.361618,102.391403,-117.578323,60.187662,24.830108,12.67079,18.204524,-1.0,-1.0,100.617912,-1.387215,3.129247,-0.03288,-1.88358
842486.36986,0.08891784,0.31464594,9.75805605,0.003228,-7.6e-05,0.00339,-97.349548,102.198181,-117.34967,60.187662,24.830108,12.67079,18.204524,-1.0,-1.0,100.617912,-1.387215,3.129254,-0.032878,-1.883571
842486.389847,0.09924777,0.32093415000000003,9.787849020000001,0.001489,0.000209,0.00352,-97.480469,102.127533,-117.29895,60.187662,24.830108,12.67079,18.204524,-1.0,-1.0,100.617912,-1.387215,3.129266,-0.032887,-1.883574
842486.409834,0.09475478999999999,0.32167971,9.791292330000001,0.004688,-0.000993,0.004297,-97.455154,102.319763,-116.999817,60.187662,24.830108,12.67079,18.204524,-1.0,-1.0,100.617912,-1.387215,3.129269,-0.032876,-1.883581
842486.429821,0.10253412,0.31808925000000005,9.78904584,0.003341,-0.000991,0.003898,-97.596222,102.070541,-117.502777,60.187662,24.830108,12.67079,18.204524,-1.0,-1.0,100.617912,-1.387215,3.129283,-0.032855,-1.88358
842486.449808,0.08427771,0.31854051,9.79248915,0.003645,-0.001096,0.00511,-97.472107,102.383728,-117.604553,60.187662,24.830108,12.67079,18.204524,-1.0,-1.0,100.617912,-1.387215,3.129296,-0.03286,-1.883575
842486.469795,0.09774684000000002,0.29578131,9.793087560000002,0.005176,-0.001439,0.004695,-97.32341,102.352768,-117.164444,60.187662,24.830108,12.67079,18.204524,-1.0,-1.0,100.617912,-1.387215,3.1293,-0.032861,-1.883576
842486.50977,0.09430353000000001,0.32302368,9.77886306,0.003859,-0.001367,0.003933,-97.141129,102.301804,-117.27269,60.187662,24.830108,12.67079,18.204524,-1.0,-1.0,100.617912,-1.387215,3.129314,-0.032863,-1.883561
842486.50977,0.09430353000000001,0.32302368,9.77886306,0.003859,-0.001367,0.003933,-97.141129,102.301804,-117.27269,60.187662,24.830108,12.67079,18.204524,-1.0,-1.0,100.617912,-1.387215,3.129314,-0.032863,-1.883561
842486.529757,0.08322804,0.3125466,9.78620094,0.003149,-0.000963,0.003645,-97.114273,102.121185,-117.482681,60.187662,24.830108,12.67079,18.204524,-1.0,-1.0,100.617912,-1.387215,3.129325,-0.032858,-1.883557
842486.549744,0.09520605,0.31374342,9.77407578,0.002536,-0.001943,0.002658,-97.395416,102.247879,-117.349319,60.187662,24.830108,12.67079,18.204524,-1.0,-1.0,100.617912,-1.387215,3.129353,-0.032855,-1.883554
842486.589718,0.09400923,0.31075136999999997,9.77721498,0.003208,0.000517,0.001414,-97.426941,102.228653,-117.354782,60.187662,24.830108,12.67079,18.204524,-1.0,-1.0,100.617912,-1.387215,3.12939,-0.032838,-1.883559
842486.589718,0.09400923,0.31075136999999997,9.77721498,0.003208,0.000517,0.001414,-97.426941,102.228653,-117.354782,60.187662,24.830108,12.67079,18.204524,-1.0,-1.0,100.617912,-1.387215,3.12939,-0.032838,-1.883559
842486.589718,0.09400923,0.31075136999999997,9.77721498,0.003208,0.000517,0.001414,-97.426941,102.228653,-117.354782,60.187662,24.830108,12.67079,18.204524,-1.0,-1.0,100.617912,-1.387215,3.12939,-0.032838,-1.883559
842486.629692,0.08308089000000002,0.32063004,9.78201207,0.005917,0.000388,0.003637,-97.190506,102.254181,-117.51976,60.187662,24.830108,12.67079,18.204524,-1.0,-1.0,100.618416,-1.429493,3.129414,-0.032828,-1.883553
842486.669666,0.09805095000000001,0.31344912,9.79413723,0.00297,-0.000117,0.004309,-97.299484,102.422928,-117.55957,60.187662,24.830108,12.67079,18.204524,-1.0,-1.0,100.618416,-1.429493,3.129447,-0.03284,-1.883558
842486.689654,0.08322804,0.32377905,9.787093650000001,0.004626,-0.000284,0.002827,-97.304138,102.451065,-117.210266,60.187662,24.830108,12.67079,18.204524,-1.0,-1.0,100.618416,-1.429493,3.129466,-0.032835,-1.883553
842486.709641,0.09056592000000001,0.31734369000000007,9.75640797,0.001696,0.000182,0.002196,-97.2612,102.476944,-117.217117,60.187662,24.830108,12.67079,18.204524,-1.0,-1.0,100.618416,-1.429493,3.129484,-0.032836,-1.883552
842486.729628,0.10088604,0.31134978,9.80101404,0.004727,-0.002194,0.004042,-97.123581,102.480209,-117.183273,60.187662,24.830108,12.67079,18.204524,-1.0,-1.0,100.618416,-1.429493,3.129512,-0.032832,-1.883542
842486.749615,0.08891784,0.31959018000000006,9.79892451,0.00442,-0.00102,0.004626,-97.135742,102.529388,-117.140945,60.187662,24.830108,12.67079,18.204524,-1.0,-1.0,100.618416,-1.429493,3.129523,-0.032836,-1.883537
842486.769602,0.09071307,0.30701375999999997,9.77826465,0.00189,-7.4e-05,0.005231,-97.323532,102.360031,-117.126297,60.187662,24.830108,12.67079,18.204524,-1.0,-1.0,100.618416,-1.429493,3.129524,-0.032848,-1.883533
842486.789589,0.10852803000000001,0.31299785999999996,9.7781175,0.005416,-0.002007,0.003543,-97.452667,102.431396,-117.363831,60.187662,24.830108,12.67079,18.204524,-1.0,-1.0,100.618416,-1.429493,3.129536,-0.03285,-1.883535
