timestamp,accel_x,accel_y,accel_z,gyro_x,gyro_y,gyro_z,mag_x,mag_y,mag_z,gps_lat,gps_lon,gps_alt,gps_accuracy,gps_speed,gps_course,pressure,altitude,roll,pitch,yaw
275301.869052,-8.92130229,-2.9776096800000005,1.8083852100000002,-0.037936,0.117247,0.040217,-97.615036,83.768524,-129.481033,60.187926,24.8304,29.988888,4.817779,0.352029,-1.0,102.066231,-1.051643,-1.767782,0.314607,1.943864
275301.929003,-8.956029690000001,-2.94108705,1.8154287900000001,0.007139,-0.035774,0.06292,-97.198212,84.33461,-129.873489,60.187926,24.8304,29.988888,4.817779,0.352029,-1.0,102.066231,-1.051643,-1.763411,0.313281,1.942207
275301.968971,-8.8498953,-3.04331706,1.85898519,-0.000808,-0.128687,0.055626,-97.585449,83.966644,-129.651123,60.187926,24.8304,29.988888,4.817779,0.352029,-1.0,102.066231,-1.051643,-1.765323,0.310855,1.941898
275301.988955,-8.923695930000001,-3.1081317299999998,1.89266292,-0.013041,-0.169671,0.041048,-97.533432,84.248154,-129.727386,60.187926,24.8304,29.988888,4.817779,0.352029,-1.0,102.066231,-1.051643,-1.767708,0.309802,1.941634
275302.008938,-9.13789728,-3.08148777,1.8462616200000002,-0.030952,-0.185673,0.04851,-97.173447,84.350327,-129.645752,60.187926,24.8304,29.988888,4.817779,0.352029,-1.0,102.066231,-1.051643,-1.770833,0.309083,1.941183
275302.028922,-9.20510559,-2.9033577900000003,1.86391962,-0.048741,-0.210238,0.064943,-97.185669,84.345917,-129.517288,60.187926,24.8304,29.988888,4.817779,0.352029,-1.0,102.066231,-1.051643,-1.774299,0.308363,1.940326
275302.048906,-9.274266090000001,-2.82043386,1.84102308,-0.037036,-0.19555,0.055492,-97.316299,84.205612,-128.962738,60.187926,24.8304,29.988888,4.817779,0.352029,-1.0,102.066231,-1.051643,-1.77801,0.307426,1.93906
275302.06889,-9.31947057,-2.8315093499999997,1.8495577800000003,-0.010238,-0.169566,0.034507,-97.175934,84.197495,-129.020554,60.187926,24.8304,29.988888,4.817779,0.352029,-1.0,102.066231,-1.051643,-1.781627,0.306554,1.937925
275302.088874,-9.44341011,-2.72972079,1.8362358000000003,0.020563,-0.138939,0.03105,-97.029358,84.330139,-129.142288,60.187926,24.8304,29.988888,4.817779,0.352029,-1.0,102.066231,-1.051643,-1.784899,0.305982,1.937428
275302.108857,-9.32425785,-2.6819755200000004,1.9507479300000001,0.039686,-0.125291,0.032839,-97.050171,84.476959,-128.891296,60.187926,24.8304,29.988888,4.817779,0.352029,-1.0,102.066231,-1.051643,-1.787809,0.305404,1.93756
275302.128841,-9.139094100000001,-2.8952743499999998,1.9709467200000002,0.046595,-0.123231,0.000827,-96.719864,84.629211,-128.742783,60.187926,24.8304,29.988888,4.817779,0.352029,-1.0,102.066231,-1.051643,-1.790491,0.304694,1.938118
275302.148825,-9.05107878,-3.0287982600000003,1.97034831,0.038732,-0.120193,-0.023901,-97.706192,83.973434,-127.862991,60.187926,24.8304,29.988888,4.817779,0.352029,-1.0,102.066231,-1.051643,-1.793211,0.304482,1.938973
275302.168809,-8.820710550000001,-3.05978805,2.14608465,0.016912,-0.165836,-0.028951,-96.765533,84.660751,-128.74675,60.187926,24.8304,29.988888,4.817779,0.352029,-1.0,102.066231,-1.051643,-1.795877,0.304831,1.939835
275302.188793,-8.748558000000001,-3.07086354,2.02858047,-0.005483,-0.170099,-0.006271,-96.902252,84.27713,-127.991531,60.187926,24.8304,29.988888,4.817779,0.352029,-1.0,102.066231,-1.051643,-1.799141,0.305363,1.940401
275302.208776,-8.5171401,-3.08942406,1.8791937900000002,-0.043019,-0.20379,0.017191,-96.805573,84.478333,-128.173767,60.187926,24.8304,29.988888,4.817779,0.352029,-1.0,102.066231,-1.051643,-1.802528,0.305642,1.940347
275302.22876,-8.58075795,-3.0687642,1.64687337,-0.062604,-0.212554,0.052494,-97.135117,84.152756,-127.859344,60.187926,24.8304,29.988888,4.817779,0.352029,-1.0,102.066231,-1.051643,-1.8062,0.305632,1.939467
275302.248744,-8.5979745,-2.8674335699999998,1.69207785,-0.066758,-0.237093,0.121308,-96.862183,84.141891,-128.139908,60.187922,24.830403,29.516516,4.983523,0.296901,-1.0,102.066231,-1.051643,-1.810006,0.305109,1.937892
275302.268728,-8.34394455,-2.67643287,1.8149775300000002,-0.039937,-0.264237,0.175643,-96.687714,84.149231,-128.203278,60.187922,24.830403,29.516516,4.983523,0.296901,-1.0,102.066231,-1.051643,-1.814116,0.303361,1.935949
275302.288712,-8.30368431,-2.8403481600000005,1.85927949,-0.003072,-0.295343,0.198666,-96.585831,84.372208,-127.963333,60.187922,24.830403,29.516516,4.983523,0.296901,-1.0,102.066231,-1.051643,-1.818786,0.300382,1.934161
275302.308696,-8.371196730000001,-2.9386934100000004,1.9860737400000001,0.016173,-0.337259,0.234567,-96.797852,84.248795,-127.538025,60.187922,24.830403,29.516516,4.983523,0.296901,-1.0,102.066231,-1.051643,-1.82419,0.296707,1.932915
275302.348663,-8.44034742,-2.75397111,2.22841998,0.006525,-0.409886,0.364189,-96.111359,84.693771,-127.02475,60.187922,24.830403,29.516516,4.983523,0.296901,-1.0,102.066231,-1.051643,-1.837539,0.286715,1.930558
275302.348663,-8.44034742,-2.75397111,2.22841998,0.006525,-0.409886,0.364189,-96.111359,84.693771,-127.02475,60.187922,24.830403,29.516516,4.983523,0.296901,-1.0,102.066231,-1.051643,-1.837539,0.286715,1.930558
275302.388631,-8.6993118,-2.7804679200000004,2.41163154,0.02318,-0.477591,0.42772,-96.210571,85.113907,-126.16362,60.187922,24.830403,29.516516,4.983523,0.296901,-1.0,102.066231,-1.051643,-1.853357,0.272397,1.926687
275302.408615,-8.82295704,-2.57868603,2.5706025900000005,0.03333,-0.495081,0.458307,-96.693115,84.890976,-125.497009,60.187922,24.830403,29.516516,4.983523,0.296901,-1.0,102.066231,-1.051643,-1.862223,0.264258,1.924623
275302.428598,-8.74721403,-2.5083385199999997,2.74469085,0.046733,-0.525577,0.445997,-96.201752,85.60643,-125.575974,60.187922,24.830403,29.516516,4.983523,0.296901,-1.0,102.066231,-1.051643,-1.871536,0.255482,1.922941
275302.448582,-9.008120790000001,-2.64425607,2.83660074,0.052938,-0.552115,0.406337,-95.978165,86.023666,-125.143326,60.187922,24.830403,29.516516,4.983523,0.296901,-1.0,102.066231,-1.051643,-1.881427,0.246792,1.921283
275302.468566,-8.95347909,-2.6220952800000004,3.52412478,0.028694,-0.557588,0.420717,-95.933395,85.979309,-124.692001,60.187922,24.830403,29.516516,4.983523,0.296901,-1.0,102.066231,-1.051643,-1.891835,0.238746,1.919564
275302.48855,-8.867857410000001,-2.39142294,3.9411576900000003,-0.008021,-0.556436,0.44998,-96.009842,86.310715,-124.399765,60.187922,24.830403,29.516516,4.983523,0.296901,-1.0,102.066231,-1.051643,-1.902471,0.230736,1.917286
275302.48855,-8.867857410000001,-2.39142294,3.9411576900000003,-0.008021,-0.556436,0.44998,-96.009842,86.310715,-124.399765,60.187922,24.830403,29.516516,4.983523,0.296901,-1.0,102.066231,-1.051643,-1.902471,0.230736,1.917286
275302.528518,-8.86292298,-2.93284665,4.2011619300000005,-0.215809,-0.487238,0.409714,-98.367645,84.611389,-120.411789,60.187922,24.830403,29.516516,4.983523,0.296901,-1.0,102.066231,-1.051643,-1.923243,0.215286,1.90994
275302.548501,-8.75109879,-2.36104137,3.7646757900000005,-0.268519,-0.578475,0.465589,-94.801514,86.732895,-123.194031,60.187922,24.830403,29.516516,4.983523,0.296901,-1.0,102.066231,-1.051643,-1.933132,0.209087,1.903396
275302.568485,-8.94330612,-2.22452541,3.28402503,-0.230867,-0.693372,0.4674,-95.459854,86.200043,-122.317154,60.187922,24.830403,29.516516,4.983523,0.296901,-1.0,102.066231,-1.051643,-1.943322,0.202646,1.895163
275302.588469,-9.20840175,-1.9579288500000003,3.53025603,-0.172438,-0.688818,0.480614,-95.229248,86.35994,-121.799957,60.187922,24.830403,29.516516,4.983523,0.296901,-1.0,102.066231,-1.051643,-1.953936,0.195817,1.885594
275302.608453,-9.01260396,-1.656909,3.9917478600000003,-0.144806,-0.616658,0.507615,-94.5495,86.889435,-121.584564,60.187922,24.830403,29.516516,4.983523,0.296901,-1.0,102.066231,-1.051643,-1.964635,0.188601,1.877578
275302.628437,-8.669224530000001,-1.60525935,4.20490935,-0.131772,-0.601159,0.519752,-94.5495,86.889435,-121.584564,60.187922,24.830403,29.516516,4.983523,0.296901,-1.0,102.066231,-1.051643,-1.975273,0.180633,1.870859
275302.64842,-8.69227803,-1.65062079,4.225412250000001,-0.157988,-0.641275,0.523489,-94.156952,87.507156,-121.094772,60.187922,24.830403,29.516516,4.983523,0.296901,-1.0,102.066231,-1.051643,-1.986319,0.172247,1.864113
275302.668405,-8.836720470000001,-1.52338509,4.322707830000001,-0.187546,-0.674949,0.509909,-94.190964,87.71463,-120.989685,60.187922,24.830403,29.516516,4.983523,0.296901,-1.0,102.066231,-1.051643,-1.998109,0.164058,1.857011
275302.688389,-8.87923701,-1.3192095600000002,4.39755813,-0.19864,-0.712408,0.475055,-94.087021,87.829453,-119.893814,60.187922,24.830403,29.516516,4.983523,0.296901,-1.0,102.066231,-1.051643,-2.010556,0.156411,1.849896
275302.708373,-8.36221077,-1.1335945500000002,4.5295811100000005,-0.177721,-0.775239,0.422269,-93.800674,88.157242,-119.730728,60.187922,24.830403,29.516516,4.983523,0.296901,-1.0,102.066231,-1.051643,-2.023585,0.149522,1.842761
275302.728357,-7.85177685,-1.27879236,4.63256649,-0.164517,-0.879691,0.354903,-93.588867,88.092117,-119.096771,60.187922,24.830403,29.516516,4.983523,0.296901,-1.0,102.066231,-1.051643,-2.037886,0.143546,1.83612
275302.74834,-7.81540137,-1.52443476,4.55727474,-0.170064,-1.012006,0.299906,-93.068741,88.165085,-118.863098,60.187922,24.830403,29.516516,4.983523,0.296901,-1.0,102.066231,-1.051643,-2.05433,0.13874,1.830097
275302.768324,-7.634720790000001,-1.2766930200000002,4.76549199,-0.175129,-1.182679,0.289952,-92.82634,88.075516,-118.148605,60.187922,24.830403,29.516516,4.983523,0.296901,-1.0,102.066231,-1.051643,-2.073428,0.135061,1.824392
275302.768324,-7.634720790000001,-1.2766930200000002,4.76549199,-0.175129,-1.182679,0.289952,-92.82634,88.075516,-118.148605,60.187922,24.830403,29.516516,4.983523,0.296901,-1.0,102.066231,-1.051643,-2.073428,0.135061,1.824392
275302.808292,-7.63651602,-1.0987200000000001,5.33116602,-0.204796,-1.483873,0.330072,-91.042847,88.396408,-116.368896,60.187922,24.830403,29.516516,4.983523,0.296901,-1.0,102.065575,-0.998795,-2.121697,0.128531,1.812543
275302.828276,-7.75417716,-1.1343401100000001,5.50375335,-0.222789,-1.600095,0.352516,-90.378296,88.24118,-115.994629,60.187922,24.830403,29.516516,4.983523,0.296901,-1.0,102.065575,-0.998795,-2.150187,0.125235,1.805314
275302.848259,-7.75506987,-1.19032578,5.7119706,-0.234572,-1.688458,0.380038,-89.515854,88.22049,-114.659424,60.187922,24.830403,29.516516,4.983523,0.296901,-1.0,102.065575,-0.998795,-2.180953,0.122004,1.797369
275302.888227,-7.8638922,-0.74290149,6.105655710000001,-0.228566,-1.75942,0.460413,-87.177933,88.278152,-113.375854,60.187922,24.830403,29.516516,4.983523,0.296901,-1.0,102.065575,-0.998795,-2.247352,0.115144,1.778045
275302.888227,-7.8638922,-0.74290149,6.105655710000001,-0.228566,-1.75942,0.460413,-87.177933,88.278152,-113.375854,60.187922,24.830403,29.516516,4.983523,0.296901,-1.0,102.065575,-0.998795,-2.247352,0.115144,1.778045
275302.928195,-8.22988368,-0.21330864,6.397101,-0.08954,-1.608249,0.46215,-84.814453,88.070572,-111.826721,60.187922,24.830403,29.516516,4.983523,0.296901,-1.0,102.065575,-0.998795,-2.314414,0.106765,1.757115
275302.948178,-7.914345030000001,-0.30221667,6.481673010000001,0.000408,-1.518646,0.447407,-84.093857,87.65683,-110.716309,60.187922,24.830403,29.516516,4.983523,0.296901,-1.0,102.065575,-0.998795,-2.345906,0.101566,1.747767
275302.948178,-7.914345030000001,-0.30221667,6.481673010000001,0.000408,-1.518646,0.447407,-84.093857,87.65683,-110.716309,60.187922,24.830403,29.516516,4.983523,0.296901,-1.0,102.065575,-0.998795,-2.345906,0.101566,1.747767
275302.988146,-6.66968166,-0.6993450900000001,6.756048900000001,0.158265,-1.377669,0.270994,-81.210983,88.385361,-109.801804,60.187922,24.830403,29.516516,4.983523,0.296901,-1.0,102.065575,-0.998795,-2.404495,0.089276,1.733987
275303.00813,-6.39485451,-0.81175788,7.2295187400000005,0.206544,-1.332026,0.18508,-80.36496,88.501617,-108.621445,60.187922,24.830403,29.516516,4.983523,0.296901,-1.0,102.065575,-0.998795,-2.431999,0.083411,1.730033
275303.028114,-5.98500252,-0.98390376,7.40509812,0.214676,-1.326056,0.157964,-79.200668,88.83725,-107.770691,60.187922,24.830403,29.516516,4.983523,0.296901,-1.0,102.065575,-0.998795,-2.458688,0.077916,1.728204
275303.048097,-5.81810499,-1.02910824,7.36393536,0.184472,-1.331626,0.16192,-78.513992,88.883621,-106.981384,60.187922,24.830403,29.516516,4.983523,0.296901,-1.0,102.065575,-0.998795,-2.485202,0.072678,1.727221
275303.048097,-5.81810499,-1.02910824,7.36393536,0.184472,-1.331626,0.16192,-78.513992,88.883621,-106.981384,60.187922,24.830403,29.516516,4.983523,0.296901,-1.0,102.065575,-0.998795,-2.485202,0.072678,1.727221
275303.088065,-5.720358150000001,-0.66596166,7.914345030000001,0.101756,-1.32481,0.174029,-75.868271,89.947174,-105.678268,60.187922,24.830403,29.516516,4.983523,0.296901,-1.0,102.065575,-0.998795,-2.538118,0.063586,1.723607
275303.108049,-5.91509646,-0.57046131,8.37299196,0.069763,-1.339363,0.153231,-75.041428,89.937805,-104.790329,60.187922,24.830403,29.516516,4.983523,0.296901,-1.0,102.065575,-0.998795,-2.564508,0.060039,1.72125
275303.128033,-5.646106260000001,-0.31838355,8.46010476,0.042771,-1.351198,0.155574,-73.965469,89.840378,-104.032974,60.187922,24.830403,29.516516,4.983523,0.296901,-1.0,102.065575,-0.998795,-2.591202,0.057201,1.718681
275303.148016,-5.508697590000001,-0.30237363,8.69871339,0.005711,-1.334821,0.178574,-72.610901,89.818085,-104.178162,60.187922,24.830403,29.516516,4.983523,0.296901,-1.0,102.065575,-0.998795,-2.618086,0.054919,1.715364
275303.168001,-5.27413068,-0.5032530000000001,9.06066315,-0.040497,-1.257746,0.18585,-71.551773,89.734299,-104.096542,60.187922,24.830403,29.516516,4.983523,0.296901,-1.0,102.065575,-0.998795,-2.644593,0.053131,1.710969
275303.187985,-5.04660735,-0.83660661,9.3070413,-0.089332,-1.154926,0.150537,-70.426605,89.777939,-103.580887,60.187922,24.830403,29.516516,4.983523,0.296901,-1.0,102.065575,-0.998795,-2.669713,0.052102,1.705975
275303.207968,-4.64783085,-0.8640059400000001,9.38877822,-0.146225,-1.090786,0.102082,-69.789352,89.532318,-102.622482,60.187922,24.830403,29.516516,4.983523,0.296901,-1.0,102.065575,-0.998795,-2.692903,0.052301,1.701264
275303.227952,-4.50248589,-0.6167154600000001,9.311083020000002,-0.179789,-1.025534,0.055576,-68.301086,89.490417,-102.969025,60.187922,24.830403,29.516516,4.983523,0.296901,-1.0,102.065575,-0.998795,-2.714637,0.053968,1.696632
275303.247935,-4.3755543,-0.40505490000000005,9.33728553,-0.193157,-0.966396,0.006029,-67.401093,89.45459,-103.100723,60.187907,24.830462,29.162865,15.927697,1.480832,48.883282,102.065575,-0.998795,-2.735182,0.056779,1.692641
275303.26792,-4.25968839,-0.6162642,9.433982700000001,-0.210537,-0.895481,-0.046118,-66.620987,89.204407,-102.840027,60.187907,24.830462,29.162865,15.927697,1.480832,48.883282,102.065575,-0.998795,-2.754575,0.060319,1.689872
275303.287904,-3.8408602500000004,-0.69470496,9.49040982,-0.227477,-0.83695,-0.079444,-65.748474,89.147034,-102.863937,60.187907,24.830462,29.162865,15.927697,1.480832,48.883282,102.065575,-0.998795,-2.772622,0.064567,1.688228
275303.307888,-3.43999422,-0.72464508,9.377997030000001,-0.241702,-0.82643,-0.085772,-65.748474,89.147034,-102.863937,60.187907,24.830462,29.162865,15.927697,1.480832,48.883282,102.065575,-0.998795,-2.789503,0.069417,1.687217
275303.327871,-2.93958612,-0.83107377,9.23384889,-0.250326,-0.892902,-0.059709,-64.617615,88.9496,-102.821365,60.187907,24.830462,29.162865,15.927697,1.480832,48.883282,102.065575,-0.998795,-2.806044,0.074599,1.686809
275303.347854,-2.89737369,-0.9050215500000001,9.21349314,-0.255527,-0.961858,-0.047932,-63.788254,88.810287,-102.71991,60.187907,24.830462,29.162865,15.927697,1.480832,48.883282,102.065575,-0.998795,-2.823692,0.07986,1.685575
275303.367839,-3.2497390800000003,-0.8572664700000001,9.31542885,-0.246094,-0.939697,-0.083795,-62.760559,88.644974,-102.667114,60.187907,24.830462,29.162865,15.927697,1.480832,48.883282,102.065575,-0.998795,-2.842689,0.085121,1.684412
275303.387823,-3.0656250000000003,-0.7370645400000001,9.46152918,-0.205973,-0.913417,-0.121301,-61.566406,88.326691,-102.722931,60.187907,24.830462,29.162865,15.927697,1.480832,48.883282,102.065575,-0.998795,-2.861593,0.090385,1.684228
275303.407807,-2.58647517,-0.8672922900000001,9.577836540000002,-0.150392,-0.958375,-0.131571,-61.203857,87.973648,-101.765366,60.187907,24.830462,29.162865,15.927697,1.480832,48.883282,102.065575,-0.998795,-2.880004,0.095152,1.68491
275303.42779,-2.4025082400000004,-0.942741,9.55493019,-0.08526,-1.033479,-0.137726,-59.653717,88.006912,-102.498398,60.187907,24.830462,29.162865,15.927697,1.480832,48.883282,102.065575,-0.998795,-2.899196,0.09891,1.686394
275303.467758,-2.45474649,-0.71656164,9.51032412,0.060162,-1.01813,-0.210008,-57.387451,88.261017,-102.190063,60.187907,24.830462,29.162865,15.927697,1.480832,48.883282,102.065575,-0.998795,-2.941348,0.102643,1.692188
275303.487742,-2.3932279800000003,-0.83496834,9.573637860000002,0.129562,-0.926998,-0.240409,-56.675507,87.859863,-102.349228,60.187907,24.830462,29.162865,15.927697,1.480832,48.883282,102.065575,-0.998795,-2.962257,0.102512,1.696451
275303.487742,-2.3932279800000003,-0.83496834,9.573637860000002,0.129562,-0.926998,-0.240409,-56.675507,87.859863,-102.349228,60.187907,24.830462,29.162865,15.927697,1.480832,48.883282,102.065575,-0.998795,-2.962257,0.102512,1.696451
275303.527709,-1.60331697,-1.14062832,9.45239607,0.207634,-0.787874,-0.266848,-54.303787,88.698898,-102.885025,60.187907,24.830462,29.162865,15.927697,1.480832,48.883282,102.065575,-0.998795,-2.9993,0.098467,1.707235
275303.547694,-1.50631569,-1.34869842,9.342818370000002,0.200674,-0.697848,-0.272797,-53.324814,89.189026,-102.88121,60.187907,24.830462,29.162865,15.927697,1.480832,48.883282,102.065575,-0.998795,-3.01573,0.095202,1.713676
275303.567677,-1.05051366,-1.2621742200000001,9.18145368,0.186295,-0.643831,-0.261607,-52.800858,89.189774,-102.654633,60.187907,24.830462,29.162865,15.927697,1.480832,48.883282,102.065575,-0.998795,-3.030494,0.091891,1.720246
275303.587661,-1.01713023,-0.7565275800000001,9.0813132,0.19753,-0.567938,-0.246862,-51.980545,89.664597,-102.688202,60.187907,24.830462,29.162865,15.927697,1.480832,48.883282,102.065575,-0.998795,-3.043984,0.088769,1.726368
275303.587661,-1.01713023,-0.7565275800000001,9.0813132,0.19753,-0.567938,-0.246862,-51.980545,89.664597,-102.688202,60.187907,24.830462,29.162865,15.927697,1.480832,48.883282,102.065575,-0.998795,-3.043984,0.088769,1.726368
275303.627628,-0.61282089,-0.26824464000000003,10.06072398,0.265676,-0.40256,-0.115622,-50.626236,90.14093,-103.554886,60.187907,24.830462,29.162865,15.927697,1.480832,48.883282,102.065575,-0.998795,-3.06597,0.081167,1.737837
275303.647613,-0.31689243,-0.64440909,10.10458449,0.256577,-0.390789,-0.032938,-50.320831,90.337875,-103.271545,60.187907,24.830462,29.162865,15.927697,1.480832,48.883282,102.065575,-0.998795,-3.074438,0.076185,1.741578
275303.667597,-0.13591755,-0.86999004,9.919273590000001,0.221505,-0.433669,0.028824,-49.975418,90.412094,-103.193069,60.187907,24.830462,29.162865,15.927697,1.480832,48.883282,102.065575,-0.998795,-3.082417,0.07117,1.74314
275303.68758,0.029184750000000002,-0.81744768,9.840234420000002,0.189029,-0.507989,0.081212,-49.35733,91.021454,-103.567657,60.187907,24.830462,29.162865,15.927697,1.480832,48.883282,102.065575,-0.998795,-3.090979,0.066708,1.743487
275303.707564,0.23261472000000002,-0.5944173300000001,9.891884070000001,0.164938,-0.605051,0.130914,-48.83815,91.224518,-103.317535,60.187907,24.830462,29.162865,15.927697,1.480832,48.883282,102.065575,-0.998795,-3.100818,0.062888,1.74322
275303.727547,0.3210813,-0.46882971,10.00339434,0.151364,-0.684991,0.169265,-48.242371,91.233643,-103.697449,60.187907,24.830462,29.162865,15.927697,1.480832,48.883282,102.065575,-0.998795,-3.112438,0.059505,1.742141
275303.747532,0.27827046,-0.50939406,9.97226721,0.130835,-0.736524,0.186776,-47.910538,91.15509,-103.575424,60.187907,24.830462,29.162865,15.927697,1.480832,48.883282,102.065575,-0.998795,-3.125726,0.056458,1.740057
275303.767516,0.27932013,-0.47122335000000004,9.9429255,0.116592,-0.766959,0.174939,-46.989197,91.432816,-104.068375,60.187907,24.830462,29.162865,15.927697,1.480832,48.883282,102.065575,-0.998795,-3.14017,0.053819,1.737135
275303.7875,0.24129657000000002,-0.51193485,9.89636724,0.103173,-0.74629,0.131842,-46.163132,91.571243,-104.395966,60.187907,24.830462,29.162865,15.927697,1.480832,48.883282,102.065575,-0.998795,3.127967,0.051525,1.734705
275303.807484,0.27841761000000004,-0.52121511,9.81868185,0.085344,-0.676668,0.084481,-45.320023,91.555038,-104.346985,60.187907,24.830462,29.162865,15.927697,1.480832,48.883282,102.065575,-0.998795,3.113124,0.04953,1.733169
275303.827466,0.42047622,-0.34219242000000005,9.812246490000001,0.085344,-0.676668,0.084481,-45.317184,91.457169,-104.602951,60.187907,24.830462,29.162865,15.927697,1.480832,48.883282,102.065575,-0.998795,3.099482,0.047887,1.732735
275303.847451,0.63991611,-0.17977806,9.763451550000001,0.08083,-0.532774,-0.026337,-44.674408,91.513824,-104.906586,60.187907,24.830462,29.162865,15.927697,1.480832,48.883282,102.065575,-0.998795,3.087403,0.046421,1.732922
275303.867435,0.64620432,-0.03322647,9.627975450000001,0.090305,-0.441536,-0.082553,-43.910233,91.824936,-105.14946,60.187907,24.830462,29.162865,15.927697,1.480832,48.883282,102.064934,-0.94595,3.076588,0.044844,1.73429
275303.887419,0.65503332,-0.059576130000000005,9.63306684,0.102632,-0.297269,-0.117899,-43.436691,91.812698,-105.401978,60.187907,24.830462,29.162865,15.927697,1.480832,48.883282,102.064934,-0.94595,3.067488,0.043019,1.737297
275303.907403,0.74784573,-0.14804271000000002,9.632174130000001,0.096863,-0.158347,-0.131735,-42.918396,92.10791,-105.659134,60.187907,24.830462,29.162865,15.927697,1.480832,48.883282,102.064934,-0.94595,3.061087,0.040919,1.741015
275303.927386,0.83870595,-0.10882233000000001,9.715549320000001,0.09647,-0.064648,-0.13158,-43.343292,92.048538,-105.060074,60.187907,24.830462,29.162865,15.927697,1.480832,48.883282,102.064934,-0.94595,3.057495,0.038826,1.745083
275303.94737,0.84619098,-0.07289811,9.75042387,0.09818,0.01858,-0.112609,-42.744431,92.440079,-105.513809,60.187907,24.830462,29.162865,15.927697,1.480832,48.883282,102.064934,-0.94595,3.055906,0.036787,1.749052
275303.967354,0.6914088,-0.016765290000000002,9.873166590000002,0.115633,0.094158,-0.126082,-51.212891,87.335861,-97.752274,60.187907,24.830462,29.162865,15.927697,1.480832,48.883282,102.064934,-0.94595,3.056018,0.03469,1.750385
275303.967354,0.6914088,-0.016765290000000002,9.873166590000002,0.115633,0.094158,-0.126082,-51.212891,87.335861,-97.752274,60.187907,24.830462,29.162865,15.927697,1.480832,48.883282,102.064934,-0.94595,3.056018,0.03469,1.750385
275303.967354,0.6914088,-0.016765290000000002,9.873166590000002,0.115633,0.094158,-0.126082,-51.212891,87.335861,-97.752274,60.187907,24.830462,29.162865,15.927697,1.480832,48.883282,102.064934,-0.94595,3.056018,0.03469,1.750385
275303.967354,0.6914088,-0.016765290000000002,9.873166590000002,0.115633,0.094158,-0.126082,-51.212891,87.335861,-97.752274,60.187907,24.830462,29.162865,15.927697,1.480832,48.883282,102.064934,-0.94595,3.056018,0.03469,1.750385
275303.967354,0.6914088,-0.016765290000000002,9.873166590000002,0.115633,0.094158,-0.126082,-51.212891,87.335861,-97.752274,60.187907,24.830462,29.162865,15.927697,1.480832,48.883282,102.064934,-0.94595,3.056018,0.03469,1.750385
275303.967354,0.6914088,-0.016765290000000002,9.873166590000002,0.115633,0.094158,-0.126082,-51.212891,87.335861,-97.752274,60.187907,24.830462,29.162865,15.927697,1.480832,48.883282,102.064934,-0.94595,3.056018,0.03469,1.750385
275303.967354,0.6914088,-0.016765290000000002,9.873166590000002,0.115633,0.094158,-0.126082,-51.212891,87.335861,-97.752274,60.187907,24.830462,29.162865,15.927697,1.480832,48.883282,102.064934,-0.94595,3.056018,0.03469,1.750385
275303.967354,0.6914088,-0.016765290000000002,9.873166590000002,0.115633,0.094158,-0.126082,-51.212891,87.335861,-97.752274,60.187907,24.830462,29.162865,15.927697,1.480832,48.883282,102.064934,-0.94595,3.056018,0.03469,1.750385
275303.967354,0.6914088,-0.016765290000000002,9.873166590000002,0.115633,0.094158,-0.126082,-51.212891,87.335861,-97.752274,60.187907,24.830462,29.162865,15.927697,1.480832,48.883282,102.064934,-0.94595,3.056018,0.03469,1.750385
275303.967354,0.6914088,-0.016765290000000002,9.873166590000002,0.115633,0.094158,-0.126082,-51.212891,87.335861,-97.752274,60.187907,24.830462,29.162865,15.927697,1.480832,48.883282,102.064934,-0.94595,3.056018,0.03469,1.750385
275304.04729,0.04730382,-0.6406714800000001,11.40793128,0.008532,0.635314,0.236248,-44.02066,92.582901,-105.243729,60.187907,24.830462,29.162865,15.927697,1.480832,48.883282,102.064934,-0.94595,3.068479,0.030674,1.748894
275304.127225,0.6736036500000001,-0.44697303,9.67063914,-0.100861,0.212787,0.159691,-45.080124,91.801361,-104.408569,60.187907,24.830462,29.162865,15.927697,1.480832,48.883282,102.064934,-0.94595,3.104564,0.034499,1.729871
275304.20716,0.56328039,-1.08074808,11.405527830000002,-0.033849,0.090106,-0.110871,-45.508942,92.478668,-104.479782,60.187907,24.830462,29.162865,15.927697,1.480832,48.883282,102.064934,-0.94595,3.106498,0.036156,1.730474
275304.247128,0.07844076,-1.01833686,10.1105784,-0.010174,0.062485,-0.204932,-42.992508,94.174927,-104.752472,60.187953,24.830541,28.963585,13.369923,0.795609,352.330848,102.064934,-0.94595,3.106425,0.035675,1.742004
275304.267112,0.35416062000000004,-0.13876245,10.00205037,0.007801,0.012023,-0.239973,-40.480591,94.411423,-104.549118,60.187953,24.830541,28.963585,13.369923,0.795609,352.330848,102.064934,-0.94595,3.106641,0.035479,1.752061
275304.287096,0.40715424,-0.13561344,9.1883403,0.004737,0.017818,-0.231736,-39.716141,93.188416,-104.493271,60.187953,24.830541,28.963585,13.369923,0.795609,352.330848,102.064934,-0.94595,3.107057,0.035068,1.76338
275304.307079,0.5333402700000001,0.017069400000000002,9.95594337,-0.009127,0.011913,-0.205253,-38.987198,92.18927,-105.83345,60.187953,24.830541,28.963585,13.369923,0.795609,352.330848,102.064934,-0.94595,3.107427,0.034901,1.773699
275304.327064,0.56596833,0.1793268,9.97675038,0.008727,0.012195,-0.154118,-39.74884,91.747009,-105.795181,60.187953,24.830541,28.963585,13.369923,0.795609,352.330848,102.064934,-0.94595,3.10747,0.035021,1.782692
275304.347048,0.46134468,0.059576130000000005,9.66734298,0.003824,-0.001344,-0.084701,-39.891937,91.741379,-106.144257,60.187953,24.830541,28.963585,13.369923,0.795609,352.330848,102.064934,-0.94595,3.107531,0.034958,1.790042
275304.367031,-0.06361785,-0.16839846000000003,9.79353882,0.010118,0.013414,-0.048864,-39.957596,91.739838,-106.000549,60.187953,24.830541,28.963585,13.369923,0.795609,352.330848,102.064934,-0.94595,3.107713,0.03472,1.793993
275304.387015,-0.03951468,-0.48962690999999997,9.74458692,-0.012675,-0.004758,-0.034422,-39.706619,91.832077,-105.84404,60.187953,24.830541,28.963585,13.369923,0.795609,352.330848,102.064934,-0.94595,3.10783,0.034714,1.799004
275304.406998,0.12933504,-0.28620675,9.83814489,0.002941,0.000145,0.003748,-39.476624,91.887466,-105.868912,60.187953,24.830541,28.963585,13.369923,0.795609,352.330848,102.064934,-0.94595,3.107797,0.034812,1.803858
275304.426983,0.28994436,-0.58633389,9.72287739,-0.007215,-0.00078,0.034411,-39.291794,91.975555,-105.893753,60.187953,24.830541,28.963585,13.369923,0.795609,352.330848,102.064934,-0.94595,3.107803,0.034878,1.808127
275304.446967,0.27542556,-0.6168626100000001,9.77976558,-0.000341,-0.011863,0.063346,-39.170761,92.115891,-105.942688,60.187953,24.830541,28.963585,13.369923,0.795609,352.330848,102.064934,-0.94595,3.107803,0.035059,1.811789
275304.466951,0.37661571000000005,-0.6779396700000001,9.70491528,0.010982,-0.019021,0.086943,-39.899063,91.507233,-105.269165,60.187953,24.830541,28.963585,13.369923,0.795609,352.330848,102.064934,-0.94595,3.107683,0.035133,1.814731
275304.486934,0.37018035,-0.7839171,9.71045793,-0.009138,-0.001972,0.109308,-39.815353,91.959885,-105.681625,60.187953,24.830541,28.963585,13.369923,0.795609,352.330848,102.064934,-0.94595,3.107411,0.035149,1.816668
275304.506917,0.51987114,-0.32407335000000004,9.89772102,0.018289,0.00288,0.081912,-40.485672,91.514191,-105.737503,60.187953,24.830541,28.963585,13.369923,0.795609,352.330848,102.064934,-0.94595,3.107421,0.035369,1.818203
275304.526902,0.5224119300000001,-0.30730806,9.68740443,0.000468,-0.002347,-0.014486,-41.119583,91.209732,-106.215591,60.187953,24.830541,28.963585,13.369923,0.795609,352.330848,102.064934,-0.94595,3.107608,0.035265,1.819547
275304.546886,0.51911577,-0.049697460000000006,9.81299205,-0.008122,0.001825,-0.036988,-42.393723,91.066193,-106.208878,60.187953,24.830541,28.963585,13.369923,0.795609,352.330848,102.064934,-0.94595,3.107612,0.035185,1.821845
275304.56687,0.23471406,-0.14490351,9.85176117,-0.000826,0.008554,-0.037511,-42.900345,91.198364,-106.167557,60.187953,24.830541,28.963585,13.369923,0.795609,352.330848,102.064934,-0.94595,3.107651,0.035344,1.823629
275304.586853,0.23261472000000002,-0.4076055,9.82152675,-0.00225,-0.009992,-0.010595,-42.901474,91.48851,-106.501587,60.187953,24.830541,28.963585,13.369923,0.795609,352.330848,102.064934,-0.94595,3.107714,0.035454,1.824676
275304.606838,0.19235448000000002,-0.27123669,9.752817510000002,0.006883,-0.005132,0.016106,-43.36879,91.398956,-106.233688,60.187953,24.830541,28.963585,13.369923,0.795609,352.330848,102.064934,-0.94595,3.107651,0.035523,1.825052
275304.626821,0.35461188,-0.12962934,9.69024933,0.005749,-0.00408,0.023515,-43.512543,91.325104,-105.995438,60.187953,24.830541,28.963585,13.369923,0.795609,352.330848,102.064934,-0.94595,3.107604,0.0355,1.824906
275304.666789,0.18561501000000002,-0.01002582,9.8043102,0.002731,0.00389,0.008546,-42.567459,91.338852,-106.616699,60.187953,24.830541,28.963585,13.369923,0.795609,352.330848,102.064934,-0.94595,3.107478,0.035443,1.824262
275304.666789,0.18561501000000002,-0.01002582,9.8043102,0.002731,0.00389,0.008546,-42.567459,91.338852,-106.616699,60.187953,24.830541,28.963585,13.369923,0.795609,352.330848,102.064934,-0.94595,3.107478,0.035443,1.824262
275304.686773,0.28740357,-0.29338767,9.78275763,0.001055,0.000973,0.002888,-42.567459,91.338852,-106.616699,60.187953,24.830541,28.963585,13.369923,0.795609,352.330848,102.064934,-0.94595,3.10756,0.035464,1.824132
275304.726741,0.35326791,-0.54037404,9.76135221,-1e-06,-0.000905,0.00711,-41.65564,91.312729,-106.342575,60.187953,24.830541,28.963585,13.369923,0.795609,352.330848,102.064934,-0.94595,3.107657,0.035581,1.824168
275304.746725,0.30955455000000004,-0.45804852,9.78574968,0.003023,0.001352,0.006723,-41.731842,91.325073,-105.969055,60.187953,24.830541,28.963585,13.369923,0.795609,352.330848,102.064934,-0.94595,3.107672,0.035641,1.824109
275304.766708,0.33500169,-0.37556604,9.76044969,0.001837,0.001056,0.004468,-41.305756,91.578674,-106.327072,60.187953,24.830541,28.963585,13.369923,0.795609,352.330848,102.064934,-0.94595,3.107711,0.03566,1.824057
275304.786692,0.33155838000000004,-0.37795968,9.76898439,0.001493,-0.001132,0.002916,-41.168503,91.595703,-106.714508,60.187953,24.830541,28.963585,13.369923,0.795609,352.330848,102.064934,-0.94595,3.107735,0.035702,1.824027
275304.806676,0.33231375,-0.40430934,9.768533130000002,0.002764,-0.000987,0.003823,-41.316284,91.736053,-106.186646,60.187953,24.830541,28.963585,13.369923,0.795609,352.330848,102.064934,-0.94595,3.107728,0.035754,1.824036
275304.82666,0.32766381,-0.42915807000000006,9.7610481,0.002243,-0.005308,0.003311,-41.637955,91.512695,-105.74855,60.187953,24.830541,28.963585,13.369923,0.795609,352.330848,102.064934,-0.94595,3.107707,0.035792,1.824048
275304.846644,0.33470739,-0.40940073,9.76180347,0.000669,-0.003317,0.004427,-41.207611,91.935425,-106.559052,60.187953,24.830541,28.963585,13.369923,0.795609,352.330848,102.064934,-0.94595,3.107662,0.035811,1.824044
275304.866628,0.35506314,-0.38694564000000004,9.749227050000002,-0.004388,-0.003842,0.007839,-41.624725,91.739487,-106.160629,60.187953,24.830541,28.963585,13.369923,0.795609,352.330848,102.064934,-0.94595,3.107596,0.035831,1.824057
275304.886612,0.32467176000000003,-0.25028253,9.791439480000001,0.000347,-0.000937,0.009243,-41.709671,91.534668,-106.252487,60.187953,24.830541,28.963585,13.369923,0.795609,352.330848,102.064934,-0.94595,3.107556,0.035948,1.823998
275304.886612,0.32467176000000003,-0.25028253,9.791439480000001,0.000347,-0.000937,0.009243,-41.709671,91.534668,-106.252487,60.187953,24.830541,28.963585,13.369923,0.795609,352.330848,102.064934,-0.94595,3.107556,0.035948,1.823998
275304.926579,0.29668383,-0.26105391,9.784405710000001,0.002427,-6.2e-05,0.004224,-42.19873,91.508759,-106.218796,60.187953,24.830541,28.963585,13.369923,0.795609,352.330848,102.064934,-0.94595,3.1075,0.036032,1.823869
275304.946563,0.33650262000000003,-0.26525259,9.775871010000001,0.001916,0.000453,0.005478,-41.71109,91.727646,-106.406982,60.187953,24.830541,28.963585,13.369923,0.795609,352.330848,102.064545,-0.914242,3.107481,0.036043,1.823876
275304.966547,0.33365772000000005,-0.33440328,9.77512545,0.00237,0.000461,0.004781,-41.708435,91.56665,-106.158615,60.187953,24.830541,28.963585,13.369923,0.795609,352.330848,102.064545,-0.914242,3.107479,0.036069,1.823861
275304.986531,0.31913892,-0.33485454,9.76613949,0.002317,0.001613,0.002361,-41.250534,91.519257,-106.475403,60.187953,24.830541,28.963585,13.369923,0.795609,352.330848,102.064545,-0.914242,3.107492,0.036088,1.823857
275305.006515,0.32182686000000005,-0.31404753,9.78275763,0.001578,0.000799,0.001909,-42.087341,91.143707,-106.113449,60.187953,24.830541,28.963585,13.369923,0.795609,352.330848,102.064545,-0.914242,3.10752,0.036113,1.823883
275305.026499,0.33155838000000004,-0.34188831000000003,9.76764042,0.002878,0.00065,0.003647,-40.999268,91.709625,-106.709595,60.187953,24.830541,28.963585,13.369923,0.795609,352.330848,102.064545,-0.914242,3.107532,0.036133,1.823915
275305.046483,0.32318064,-0.3876912,9.76044969,0.002094,0.000325,0.003787,-41.021408,91.703522,-106.350937,60.187953,24.830541,28.963585,13.369923,0.795609,352.330848,102.064545,-0.914242,3.10755,0.036147,1.824922
275305.066466,0.30326634,-0.39457782,9.77991273,0.001722,0.001928,0.002327,-40.965225,91.706451,-106.224442,60.187953,24.830541,28.963585,13.369923,0.795609,352.330848,102.064545,-0.914242,3.107561,0.036152,1.825999
275305.08645,0.31913892,-0.41868099000000003,9.76688505,0.000977,-0.0024,0.003944,-41.154755,91.694504,-106.233017,60.187953,24.830541,28.963585,13.369923,0.795609,352.330848,102.064545,-0.914242,3.107575,0.036161,1.827991
275305.106434,0.33650262000000003,-0.40685013000000003,9.77273181,0.002507,-3.1e-05,0.001005,-41.116226,91.686874,-106.233444,60.187953,24.830541,28.963585,13.369923,0.795609,352.330848,102.064545,-0.914242,3.107558,0.036175,1.829694
275305.126418,0.34772526,-0.37736127,9.78021684,0.002372,-0.000126,0.006048,-40.932297,91.646957,-106.593781,60.187953,24.830541,28.963585,13.369923,0.795609,352.330848,102.064545,-0.914242,3.107562,0.036193,1.831582
275305.146402,0.30895614000000005,-0.36194976,9.78620094,0.003442,-0.000216,0.004342,-41.163696,91.436737,-106.148895,60.187953,24.830541,28.963585,13.369923,0.795609,352.330848,102.064545,-0.914242,3.107561,0.036207,1.833417
275305.166386,0.33500169,-0.35281665,9.76809168,0.003746,-0.000386,0.004896,-41.370361,91.606857,-106.161148,60.187953,24.830541,28.963585,13.369923,0.795609,352.330848,102.064545,-0.914242,3.107561,0.036216,1.835101
275305.18637,0.33231375,-0.30790647,9.77661657,0.004284,-0.000964,0.005023,-41.291458,91.607147,-106.144196,60.187953,24.830541,28.963585,13.369923,0.795609,352.330848,102.064545,-0.914242,3.107556,0.036233,1.836587
275305.206353,0.3210813,-0.30386475,9.759252870000001,0.003557,-0.000116,0.005307,-40.903778,91.804886,-106.297699,60.187953,24.830541,28.963585,13.369923,0.795609,352.330848,102.064545,-0.914242,3.107554,0.036252,1.838196
275305.226337,0.33186249,-0.30161826,9.779010210000001,0.002033,0.00062,0.00331,-41.069916,91.622162,-106.553253,60.187953,24.830541,28.963585,13.369923,0.795609,352.330848,102.064545,-0.914242,3.107554,0.036257,1.83996
275305.246321,0.31494024000000004,-0.32377905,9.76733631,0.002596,-0.001263,0.003396,-40.917328,91.785797,-106.679337,60.187944,24.830512,28.645298,13.645719,1.033169,264.740587,102.064545,-0.914242,3.107567,0.036281,1.841695
275305.266305,0.30311919,-0.37123002000000005,9.767934720000001,0.004409,0.0001,0.001998,-40.9133,91.766357,-106.241547,60.187944,24.830512,28.645298,13.645719,1.033169,264.740587,102.064545,-0.914242,3.107574,0.036284,1.843393
275305.286289,0.33335360999999997,-0.37123002000000005,9.78245352,0.002378,-0.002002,0.004707,-40.765121,91.751556,-106.488861,60.187944,24.830512,28.645298,13.645719,1.033169,264.740587,102.064545,-0.914242,3.107594,0.036271,1.845095
275305.306273,0.33006726000000003,-0.36748260000000005,9.76704201,0.003486,-0.000371,0.004903,-40.514145,92.008209,-106.548584,60.187944,24.830512,28.645298,13.645719,1.033169,264.740587,102.064545,-0.914242,3.107602,0.036253,1.846974
275305.346241,0.32631984,-0.37751823000000007,9.77032836,0.004063,0.000151,0.004129,-40.924713,91.797852,-106.212616,60.187944,24.830512,28.645298,13.645719,1.033169,264.740587,102.064545,-0.914242,3.107612,0.036243,1.850951
275305.366224,0.32258223,-0.37467332999999997,9.77512545,0.002389,0.000376,0.004385,-40.664734,91.974686,-106.233002,60.187944,24.830512,28.645298,13.645719,1.033169,264.740587,102.064545,-0.914242,3.107623,0.036247,1.85246
275305.366224,0.32258223,-0.37467332999999997,9.77512545,0.002389,0.000376,0.004385,-40.664734,91.974686,-106.233002,60.187944,24.830512,28.645298,13.645719,1.033169,264.740587,102.064545,-0.914242,3.107623,0.036247,1.85246
275305.406192,0.32347494000000004,-0.36119439,9.76733631,0.001902,-0.00146,0.003745,-40.828522,91.763229,-106.372833,60.187944,24.830512,28.645298,13.645719,1.033169,264.740587,102.064545,-0.914242,3.107615,0.036249,1.855119
275305.406192,0.32347494000000004,-0.36119439,9.76733631,0.001902,-0.00146,0.003745,-40.828522,91.763229,-106.372833,60.187944,24.830512,28.645298,13.645719,1.033169,264.740587,102.064545,-0.914242,3.107615,0.036249,1.855119
275305.44616,0.31180104000000003,-0.32751666,9.78021684,0.004026,-0.000774,0.002981,-41.000824,91.673859,-106.205414,60.187944,24.830512,28.645298,13.645719,1.033169,264.740587,102.064545,-0.914242,3.107619,0.036278,1.85848
275305.466144,0.30775932,-0.34368354000000007,9.779167170000001,0.003561,-0.00174,0.003449,-40.766083,91.608978,-106.12439,60.187944,24.830512,28.645298,13.645719,1.033169,264.740587,102.064545,-0.914242,3.107624,0.036283,1.860042
275305.486128,0.33170553,-0.3381507,9.77392863,0.002994,-0.001022,0.004285,-40.754593,91.677231,-106.217194,60.187944,24.830512,28.645298,13.645719,1.033169,264.740587,102.064545,-0.914242,3.107626,0.036286,1.861538
275305.486128,0.33170553,-0.3381507,9.77392863,0.002994,-0.001022,0.004285,-40.754593,91.677231,-106.217194,60.187944,24.830512,28.645298,13.645719,1.033169,264.740587,102.064545,-0.914242,3.107626,0.036286,1.861538
275305.526095,0.34263387,-0.37436922000000006,9.77677353,0.002855,-0.001168,0.002645,-40.26413,91.902771,-106.508408,60.187944,24.830512,28.645298,13.645719,1.033169,264.740587,102.064545,-0.914242,3.107644,0.036258,1.864955
275305.546079,0.33170553,-0.39712842,9.76568823,0.002924,-0.000857,0.00215,-41.046722,91.518875,-105.942001,60.187944,24.830512,28.645298,13.645719,1.033169,264.740587,102.064545,-0.914242,3.107634,0.036244,1.866212
275305.566063,0.32901759,-0.3817071,9.7667379,0.003798,2.2e-05,0.002302,-40.577026,91.900818,-106.570023,60.187944,24.830512,28.645298,13.645719,1.033169,264.740587,102.064545,-0.914242,3.107629,0.036245,1.867584
275305.586047,0.34997175,-0.36374499000000005,9.74997261,0.003737,0.00076,0.00585,-40.363632,91.893814,-106.232361,60.187944,24.830512,28.645298,13.645719,1.033169,264.740587,102.064545,-0.914242,3.107608,0.036238,1.869027
275305.606031,0.34009308,-0.33440328,9.779167170000001,0.002457,-0.001584,0.003688,-40.762177,91.748978,-106.132431,60.187944,24.830512,28.645298,13.645719,1.033169,264.740587,102.064545,-0.914242,3.107589,0.036236,1.87049
275305.626015,0.31943322,-0.30042144,9.77886306,0.00426,-0.001325,0.002976,-40.855179,91.763046,-106.11087,60.187944,24.830512,28.645298,13.645719,1.033169,264.740587,102.064545,-0.914242,3.107564,0.036243,1.871854
275305.645999,0.33126408,-0.33859215,9.771682140000001,0.002765,-0.000498,0.001588,-40.711273,91.717346,-106.133453,60.187944,24.830512,28.645298,13.645719,1.033169,264.740587,102.064545,-0.914242,3.107562,0.036241,1.873061
275305.665981,0.32377905,-0.34937334000000003,9.78141366,0.002463,-0.001141,0.004497,-40.632736,91.820206,-106.33606,60.187944,24.830512,28.645298,13.645719,1.033169,264.740587,102.064545,-0.914242,3.107559,0.036258,1.874457
275305.685965,0.32318064,-0.37048446,9.77392863,0.001214,-0.001442,0.005207,-40.825592,91.731476,-106.356293,60.187944,24.830512,28.645298,13.645719,1.033169,264.740587,102.064545,-0.914242,3.107559,0.036268,1.875701
275305.705949,0.31838355,-0.37063161000000006,9.78215922,0.001834,-0.001216,0.004434,-40.959229,91.392456,-106.206192,60.187944,24.830512,28.645298,13.645719,1.033169,264.740587,102.064545,-0.914242,3.107563,0.036264,1.876782
275305.725933,0.32916474,-0.34488036,9.7784118,0.00217,0.000511,0.004725,-40.879227,91.634811,-106.182205,60.187944,24.830512,28.645298,13.645719,1.033169,264.740587,102.064545,-0.914242,3.107565,0.036267,1.87772
275305.745917,0.31644117000000005,-0.32467176000000003,9.78889869,0.00295,-0.000239,0.003271,-40.562302,91.812057,-106.318253,60.187944,24.830512,28.645298,13.645719,1.033169,264.740587,102.064545,-0.914242,3.107563,0.036273,1.878308
275305.765901,0.32527017,-0.35207109,9.779167170000001,0.003497,-0.000575,0.006147,-40.302567,91.954575,-106.463547,60.187944,24.830512,28.645298,13.645719,1.033169,264.740587,102.064545,-0.914242,3.107565,0.036281,1.879584
275305.765901,0.32527017,-0.35207109,9.779167170000001,0.003497,-0.000575,0.006147,-40.302567,91.954575,-106.463547,60.187944,24.830512,28.645298,13.645719,1.033169,264.740587,102.064545,-0.914242,3.107565,0.036281,1.879584
275305.765901,0.32527017,-0.35207109,9.779167170000001,0.003497,-0.000575,0.006147,-40.302567,91.954575,-106.463547,60.187944,24.830512,28.645298,13.645719,1.033169,264.740587,102.064545,-0.914242,3.107565,0.036281,1.879584
275305.805868,0.33784659,-0.42197715,9.76733631,0.005715,-0.002394,0.002566,-41.23616,91.286224,-105.74408,60.187944,24.830512,28.645298,13.645719,1.033169,264.740587,102.064545,-0.914242,3.10753,0.036292,1.881957
275305.805868,0.33784659,-0.42197715,9.76733631,0.005715,-0.002394,0.002566,-41.23616,91.286224,-105.74408,60.187944,24.830512,28.645298,13.645719,1.033169,264.740587,102.064545,-0.914242,3.10753,0.036292,1.881957
275305.805868,0.33784659,-0.42197715,9.76733631,0.005715,-0.002394,0.002566,-41.23616,91.286224,-105.74408,60.187944,24.830512,28.645298,13.645719,1.033169,264.740587,102.064545,-0.914242,3.10753,0.036292,1.881957
275305.805868,0.33784659,-0.42197715,9.76733631,0.005715,-0.002394,0.002566,-41.23616,91.286224,-105.74408,60.187944,24.830512,28.645298,13.645719,1.033169,264.740587,102.064545,-0.914242,3.10753,0.036292,1.881957
275305.885804,0.329616,-0.17258733,9.75640797,0.002736,-0.003401,0.015501,-41.369141,91.194321,-105.729294,60.187944,24.830512,28.645298,13.645719,1.033169,264.740587,102.064545,-0.914242,3.107419,0.036128,1.884483
275305.885804,0.329616,-0.17258733,9.75640797,0.002736,-0.003401,0.015501,-41.369141,91.194321,-105.729294,60.187944,24.830512,28.645298,13.645719,1.033169,264.740587,102.064545,-0.914242,3.107419,0.036128,1.884483
275305.945756,0.17693316,-0.40146444000000003,9.821821049999999,0.003414,5.8e-05,0.004647,-40.175308,91.656601,-105.631317,60.187944,24.830512,28.645298,13.645719,1.033169,264.740587,102.064545,-0.914242,3.107566,0.035999,1.885813
275305.965739,0.34518447,-0.44097912,9.70686747,0.003426,-0.004364,-0.001622,-40.223511,91.649261,-105.940765,60.187944,24.830512,28.645298,13.645719,1.033169,264.740587,102.064545,-0.914242,3.107599,0.036014,1.887096
275305.985723,0.44891541000000007,-0.40835106000000004,9.67438656,0.00162,-0.001972,-0.001834,-40.340622,91.600601,-105.277771,60.187944,24.830512,28.645298,13.645719,1.033169,264.740587,102.064545,-0.914242,3.107535,0.036023,1.888503
275306.005707,0.34743096000000007,-0.41089185,9.71479395,0.004337,0.00309,0.005096,-39.787323,92.014526,-105.909103,60.187944,24.830512,28.645298,13.645719,1.033169,264.740587,102.064545,-0.914242,3.107546,0.036036,1.889863
275306.025691,0.38634723000000004,-0.44921952000000004,9.74204613,0.002908,-0.001375,0.004484,-39.782501,91.680069,-105.643555,60.187944,24.830512,28.645298,13.645719,1.033169,264.740587,102.064545,-0.914242,3.107545,0.036027,1.89161
275306.045675,0.26180928000000003,-0.45295713,9.746235,0.005387,0.001206,0.001821,-39.41571,92.137863,-106.009338,60.187944,24.830512,28.645298,13.645719,1.033169,264.740587,102.064545,-0.914242,3.107527,0.036042,1.893136
275306.085643,0.31419468,-0.38380644,9.76898439,0.002227,-0.000509,0.003625,-40.340317,91.754486,-105.311813,60.187944,24.830512,28.645298,13.645719,1.033169,264.740587,102.064545,-0.914242,3.107524,0.036039,1.896236
275306.085643,0.31419468,-0.38380644,9.76898439,0.002227,-0.000509,0.003625,-40.340317,91.754486,-105.311813,60.187944,24.830512,28.645298,13.645719,1.033169,264.740587,102.064545,-0.914242,3.107524,0.036039,1.896236
275306.12561,0.33634566,-0.29742939,9.77781339,0.00213,-0.00091,0.006023,-39.853058,91.85144,-106.068695,60.187944,24.830512,28.645298,13.645719,1.033169,264.740587,102.064545,-0.914242,3.107535,0.036038,1.898471
275306.145594,0.30746502000000003,-0.30446316,9.77287896,0.002956,-0.000488,0.003907,-39.976837,91.865875,-106.062653,60.187944,24.830512,28.645298,13.645719,1.033169,264.740587,102.064545,-0.914242,3.107537,0.036035,1.899876
275306.165578,0.3239262,-0.28740357,9.77871591,0.000908,-0.000892,0.004195,-39.959305,91.925842,-105.744034,60.187944,24.830512,28.645298,13.645719,1.033169,264.740587,102.064545,-0.914242,3.107533,0.036049,1.90132
275306.185562,0.3094074,-0.31374342,9.763598700000001,0.002846,-0.000429,0.003972,-40.33519,91.915894,-105.77002,60.187944,24.830512,28.645298,13.645719,1.033169,264.740587,102.064545,-0.914242,3.10753,0.036043,1.902312
275306.205546,0.32572143000000003,-0.33994593000000006,9.7784118,0.002745,-0.001188,0.004083,-39.827744,92.026596,-105.851013,60.187944,24.830512,28.645298,13.645719,1.033169,264.740587,102.064545,-0.914242,3.107531,0.036026,1.903728
275306.205546,0.32572143000000003,-0.33994593000000006,9.7784118,0.002745,-0.001188,0.004083,-39.827744,92.026596,-105.851013,60.187944,24.830512,28.645298,13.645719,1.033169,264.740587,102.064545,-0.914242,3.107531,0.036026,1.903728
275306.245514,0.32751666,-0.38395359,9.77287896,0.003615,0.000333,0.002985,-39.918945,92.181091,-105.845123,60.187926,24.83046,29.089781,10.56303,0.0,-1.0,102.064545,-0.914242,3.107536,0.036007,1.906681
275306.265498,0.32751666,-0.38140299,9.75865446,0.004372,0.00012,0.004629,-39.960403,91.927704,-105.522186,60.187926,24.83046,29.089781,10.56303,0.0,-1.0,102.064545,-0.914242,3.107515,0.035999,1.907899
275306.285481,0.32796792,-0.38919213,9.77437008,0.003802,-0.000762,0.005596,-39.645645,92.114914,-105.712219,60.187926,24.83046,29.089781,10.56303,0.0,-1.0,102.064545,-0.914242,3.107526,0.035982,1.909417
275306.285481,0.32796792,-0.38919213,9.77437008,0.003802,-0.000762,0.005596,-39.645645,92.114914,-105.712219,60.187926,24.83046,29.089781,10.56303,0.0,-1.0,102.064545,-0.914242,3.107526,0.035982,1.909417
275306.325449,0.33874911,-0.35176698,9.77737194,0.002033,-0.000243,0.004745,-39.884109,92.009415,-105.87442,60.187926,24.83046,29.089781,10.56303,0.0,-1.0,102.064545,-0.914242,3.10753,0.035999,1.912304
275306.345433,0.32452461,-0.34009308,9.78036399,0.003173,0.000306,0.003749,-39.937057,92.186234,-105.76384,60.187926,24.83046,29.089781,10.56303,0.0,-1.0,102.064545,-0.914242,3.107539,0.035998,1.913573
275306.365417,0.33365772000000005,-0.32722236,9.77108373,0.00304,0.00052,0.003721,-40.039261,92.01236,-105.577194,60.187926,24.83046,29.089781,10.56303,0.0,-1.0,102.064545,-0.914242,3.107537,0.036001,1.91459
275306.385401,0.3179421,-0.31913892,9.77766624,0.002545,-0.00078,0.005129,-40.006958,92.228287,-105.914505,60.187926,24.83046,29.089781,10.56303,0.0,-1.0,102.064545,-0.914242,3.107543,0.036019,1.915789
275306.405385,0.3210813,-0.32287653,9.768533130000002,0.003093,0.000599,0.005048,-39.891907,92.171524,-106.311798,60.187926,24.83046,29.089781,10.56303,0.0,-1.0,102.064545,-0.914242,3.107537,0.036026,1.916941
275306.425369,0.32167971,-0.34802937000000006,9.779010210000001,0.004105,-0.000688,0.00383,-40.172119,91.924622,-106.040314,60.187926,24.83046,29.089781,10.56303,0.0,-1.0,102.064545,-0.914242,3.107527,0.036016,1.918047
275306.445352,0.33110712,-0.35521029,9.77407578,0.003434,0.001029,0.003332,-39.983704,92.042068,-105.901672,60.187926,24.83046,29.089781,10.56303,0.0,-1.0,102.064545,-0.914242,3.107525,0.036019,1.91833
275306.465336,0.32887044,-0.3586536,9.775871010000001,0.003944,0.00016,0.004108,-39.833725,92.196548,-105.95372,60.187926,24.83046,29.089781,10.56303,0.0,-1.0,102.064545,-0.914242,3.107524,0.036006,1.919315
275306.48532,0.31943322,-0.37676286000000003,9.77766624,0.002414,-0.00306,0.00481,-39.771454,92.029572,-106.084412,60.187926,24.83046,29.089781,10.56303,0.0,-1.0,102.064545,-0.914242,3.107532,0.035989,1.920498
275306.505304,0.32722236,-0.3583593,9.780962400000002,0.00385,-0.001722,0.004696,-40.098877,92.063339,-105.773483,60.187926,24.83046,29.089781,10.56303,0.0,-1.0,102.064545,-0.914242,3.10753,0.035977,1.921621
275306.525288,0.32827203,-0.34667559000000003,9.763294590000001,0.002096,-0.001209,0.005588,-40.242386,92.178741,-105.643036,60.187926,24.83046,29.089781,10.56303,0.0,-1.0,102.064545,-0.914242,3.107521,0.035965,1.922582
275306.545272,0.32122845000000005,-0.36434340000000004,9.77512545,0.003916,-0.000977,0.005418,-39.847839,92.288635,-105.996475,60.187926,24.83046,29.089781,10.56303,0.0,-1.0,102.064545,-0.914242,3.107529,0.035958,1.923556
275306.565256,0.32512302,-0.34054434000000006,9.77751909,0.002855,-0.000721,0.006384,-40.354263,92.145828,-105.405304,60.187926,24.83046,29.089781,10.56303,0.0,-1.0,102.064545,-0.914242,3.107535,0.035965,1.924734
275306.58524,0.31868766000000004,-0.33021441000000007,9.77737194,0.003621,0.001789,0.004156,-39.736526,92.217682,-106.010284,60.187926,24.83046,29.089781,10.56303,0.0,-1.0,102.064545,-0.914242,3.107551,0.035965,1.925599
275306.605223,0.33650262000000003,-0.33081282000000006,9.7664436,0.00277,-6.1e-05,0.004396,-40.144379,92.225159,-105.327164,60.187926,24.83046,29.089781,10.56303,0.0,-1.0,102.064545,-0.914242,3.107544,0.035971,1.926655
275306.625207,0.32736951,-0.35116857000000007,9.7724277,0.004562,0.000818,0.004991,-40.005478,92.150467,-105.689575,60.187926,24.83046,29.089781,10.56303,0.0,-1.0,102.064545,-0.914242,3.107541,0.035977,1.927596
275306.665175,0.32871348000000006,-0.35311095000000003,9.775723860000001,0.003613,-0.000464,0.003841,-39.606064,92.300705,-105.750717,60.187926,24.83046,29.089781,10.56303,0.0,-1.0,102.064545,-0.914242,3.107547,0.035973,1.929711
275306.685159,0.32182686000000005,-0.36119439,9.774968490000001,0.003843,-0.001291,0.004686,-40.044632,91.999588,-105.54332,60.187926,24.83046,29.089781,10.56303,0.0,-1.0,102.064545,-0.914242,3.107547,0.035957,1.930859
275306.685159,0.32182686000000005,-0.36119439,9.774968490000001,0.003843,-0.001291,0.004686,-40.044632,91.999588,-105.54332,60.187926,24.83046,29.089781,10.56303,0.0,-1.0,102.064545,-0.914242,3.107547,0.035957,1.930859
275306.725127,0.33275520000000003,-0.34802937000000006,9.77317326,0.002672,-0.002797,0.003579,-39.831848,92.269379,-105.70137,60.187926,24.83046,29.089781,10.56303,0.0,-1.0,102.064545,-0.914242,3.107553,0.035934,1.932428
275306.725127,0.33275520000000003,-0.34802937000000006,9.77317326,0.002672,-0.002797,0.003579,-39.831848,92.269379,-105.70137,60.187926,24.83046,29.089781,10.56303,0.0,-1.0,102.064545,-0.914242,3.107553,0.035934,1.932428
275306.765095,0.32811507,-0.34398765000000003,9.763147440000001,0.002797,-0.000627,0.002574,-39.900497,92.260269,-105.991547,60.187926,24.83046,29.089781,10.56303,0.0,-1.0,102.064545,-0.914242,3.107542,0.035931,1.934263
275306.785078,0.32811507,-0.33934752,9.76628664,0.00274,0.000421,0.00389,-39.900497,92.260269,-105.991547,60.187926,24.83046,29.089781,10.56303,0.0,-1.0,102.064545,-0.914242,3.107555,0.035936,1.934734
275306.805062,0.32452461,-0.34428195,9.768690090000002,0.002699,0.001192,0.003863,-40.26741,91.948013,-105.610596,60.187926,24.83046,29.089781,10.56303,0.0,-1.0,102.064545,-0.914242,3.107568,0.035939,1.935302
275306.805062,0.32452461,-0.34428195,9.768690090000002,0.002699,0.001192,0.003863,-40.26741,91.948013,-105.610596,60.187926,24.83046,29.089781,10.56303,0.0,-1.0,102.064545,-0.914242,3.107568,0.035939,1.935302
275306.84503,0.33260805,-0.35745678,9.76419711,0.004035,-0.000976,0.003554,-39.893539,92.152802,-105.967545,60.187926,24.83046,29.089781,10.56303,0.0,-1.0,102.064545,-0.914242,3.107582,0.035948,1.937062
275306.865014,0.32677110000000004,-0.35745678,9.7664436,0.003898,0.000223,0.002823,-39.912079,92.287018,-105.747696,60.187926,24.83046,29.089781,10.56303,0.0,-1.0,102.064545,-0.914242,3.107583,0.035943,1.937885
275306.884998,0.33305931000000005,-0.35985042,9.77048532,0.003012,0.000847,0.003706,-40.216431,92.120682,-105.339233,60.187926,24.83046,29.089781,10.56303,0.0,-1.0,102.064545,-0.914242,3.107585,0.035945,1.938594
275306.884998,0.33305931000000005,-0.35985042,9.77048532,0.003012,0.000847,0.003706,-40.216431,92.120682,-105.339233,60.187926,24.83046,29.089781,10.56303,0.0,-1.0,102.064545,-0.914242,3.107585,0.035945,1.938594
275306.924966,0.329616,-0.3441348,9.767493270000001,0.002047,0.000794,0.004933,-39.811646,92.198639,-105.496567,60.187926,24.83046,29.089781,10.56303,0.0,-1.0,102.064545,-0.914242,3.10758,0.035943,1.940023
275306.944949,0.32423030999999997,-0.35640711,9.767787570000001,0.002788,-0.000683,0.004916,-39.833649,92.289139,-105.673264,60.187926,24.83046,29.089781,10.56303,0.0,-1.0,102.064545,-0.914242,3.107588,0.035948,1.940736
275306.964933,0.3153915,-0.34442910000000004,9.77092677,0.002002,0.001183,0.004048,-40.293808,92.148117,-105.585693,60.187926,24.83046,29.089781,10.56303,0.0,-1.0,102.064545,-0.914242,3.107592,0.035958,1.941381
275306.984917,0.31749084,-0.35416062000000004,9.771378030000001,0.001928,-0.001959,0.00235,-39.903412,92.241547,-105.671814,60.187926,24.83046,29.089781,10.56303,0.0,-1.0,102.064545,-0.914242,3.107587,0.035962,1.941953
275307.004901,0.31898196000000006,-0.35071731,9.76090095,0.002391,-0.0003,0.00309,-40.04628,92.016586,-105.595673,60.187926,24.83046,29.089781,10.56303,0.0,-1.0,102.064545,-0.914242,3.107577,0.035961,1.942552
275307.024885,0.3270654,-0.3498246,9.76628664,0.002606,-6e-06,0.003304,-39.931152,92.290344,-105.431335,60.187926,24.83046,29.089781,10.56303,0.0,-1.0,102.064545,-0.914242,3.107591,0.035947,1.943301
275307.044869,0.32542713,-0.35116857000000007,9.775566900000001,0.003071,0.000173,0.004544,-39.981934,92.155701,-105.457047,60.187926,24.83046,29.089781,10.56303,0.0,-1.0,102.064545,-0.914242,3.107592,0.035942,1.94394
275307.064853,0.33021441000000007,-0.36119439,9.77092677,0.003285,1.9e-05,0.00438,-40.159943,92.073364,-105.475815,60.187926,24.83046,29.089781,10.56303,0.0,-1.0,102.064545,-0.914242,3.107597,0.035938,1.944439
275307.084837,0.32766381,-0.35207109,9.76733631,0.003882,-0.000515,0.005249,-39.811874,92.172226,-105.929321,60.187926,24.83046,29.089781,10.56303,0.0,-1.0,102.064545,-0.914242,3.107607,0.03593,1.945043
275307.104821,0.32377905,-0.35491599000000007,9.768238830000001,0.004591,-0.000796,0.004496,-39.691345,92.161789,-105.973206,60.187926,24.83046,29.089781,10.56303,0.0,-1.0,102.065094,-0.95652,3.107612,0.035932,1.945766
275307.124804,0.33231375,-0.34607718,9.77706783,0.003978,-0.001246,0.00365,-39.668625,92.230499,-105.775528,60.187926,24.83046,29.089781,10.56303,0.0,-1.0,102.065094,-0.95652,3.107616,0.035927,1.946606
275307.144788,0.32198382,-0.35416062000000004,9.7582032,0.003886,-0.00034,0.003489,-40.124481,91.725922,-105.609833,60.187926,24.83046,29.089781,10.56303,0.0,-1.0,102.065094,-0.95652,3.107612,0.035934,1.946914
275307.164772,0.32572143000000003,-0.3583593,9.763147440000001,0.002005,-0.000253,0.004512,-39.772888,92.260773,-105.734314,60.187926,24.83046,29.089781,10.56303,0.0,-1.0,102.065094,-0.95652,3.107614,0.035947,1.94732
275307.184756,0.32153256,-0.34219242000000005,9.772133400000001,0.002808,-0.000754,0.004533,-39.497009,92.389374,-105.677124,60.187926,24.83046,29.089781,10.56303,0.0,-1.0,102.065094,-0.95652,3.107633,0.035964,1.947982
275307.20474,0.3239262,-0.35671122,9.77287896,0.00381,0.000134,0.005649,-39.690964,92.188766,-105.818588,60.187926,24.83046,29.089781,10.56303,0.0,-1.0,102.065094,-0.95652,3.107634,0.035974,1.948908
275307.224724,0.32751666,-0.36194976,9.78141366,0.00381,0.000134,0.005649,-39.752472,92.143265,-105.799744,60.187926,24.83046,29.089781,10.56303,0.0,-1.0,102.065094,-0.95652,3.107653,0.035976,1.949674
275307.244708,0.33186249,-0.35386632,9.76883724,0.00415,-0.000654,0.004834,-39.905838,92.130829,-105.496552,60.187905,24.830419,29.089781,15.730538,0.0,-1.0,102.065094,-0.95652,3.107649,0.035965,1.950265
275307.264692,0.32347494000000004,-0.34667559000000003,9.77512545,0.003855,-0.000969,0.003055,-39.937958,92.131805,-106.034027,60.187905,24.830419,29.089781,15.730538,0.0,-1.0,102.065094,-0.95652,3.107654,0.035958,1.950826
275307.284676,0.31000581,-0.34563573000000003,9.774968490000001,0.00463,-0.001741,0.004024,-39.685181,92.33461,-105.726822,60.187905,24.830419,29.089781,15.730538,0.0,-1.0,102.065094,-0.95652,3.107644,0.035952,1.951455
275307.324643,0.31569561,-0.3526695,9.77273181,0.003333,-0.000937,0.003754,-40.015549,91.996643,-105.269592,60.187905,24.830419,29.089781,15.730538,0.0,-1.0,102.065094,-0.95652,3.107634,0.035945,1.952719
275307.344627,0.32916474,-0.34458605999999997,9.77377167,0.002566,8.5e-05,0.004436,-39.751114,92.132278,-105.763306,60.187905,24.830419,29.089781,15.730538,0.0,-1.0,102.065094,-0.95652,3.107637,0.035941,1.953117
275307.364611,0.32318064,-0.34667559000000003,9.77706783,0.001526,-0.000439,0.004017,-39.453903,92.446716,-105.624069,60.187905,24.830419,29.089781,15.730538,0.0,-1.0,102.065094,-0.95652,3.10764,0.03595,1.953678
275307.384595,0.32302368,-0.32557428000000005,9.760008240000001,0.002645,-1.7e-05,0.003467,-39.72905,92.08905,-105.720215,60.187905,24.830419,29.089781,15.730538,0.0,-1.0,102.065094,-0.95652,3.107652,0.035946,1.95453
275307.404579,0.32586858,-0.34323228,9.76584519,0.002049,0.001133,0.003943,-39.943283,92.193237,-105.450363,60.187905,24.830419,29.089781,15.730538,0.0,-1.0,102.065094,-0.95652,3.107644,0.035954,1.955111
275307.404579,0.32586858,-0.34323228,9.76584519,0.002049,0.001133,0.003943,-39.943283,92.193237,-105.450363,60.187905,24.830419,29.089781,15.730538,0.0,-1.0,102.065094,-0.95652,3.107644,0.035954,1.955111
275307.444547,0.32033574000000004,-0.34892208,9.77333022,0.003292,0.001547,0.003184,-39.833115,92.189835,-105.925064,60.187905,24.830419,29.089781,15.730538,0.0,-1.0,102.065094,-0.95652,3.107653,0.035966,1.955983
275307.464531,0.33141123,-0.3526695,9.767493270000001,0.003983,0.000156,0.003003,-39.480255,92.323853,-105.728455,60.187905,24.830419,29.089781,15.730538,0.0,-1.0,102.065094,-0.95652,3.107661,0.035976,1.95653
275307.484514,0.32213097,-0.35207109,9.763451550000001,0.004859,-0.000416,0.004255,-39.480255,92.323853,-105.728455,60.187905,24.830419,29.089781,15.730538,0.0,-1.0,102.065094,-0.95652,3.107659,0.035971,1.956911
275307.484514,0.32213097,-0.35207109,9.763451550000001,0.004859,-0.000416,0.004255,-39.480255,92.323853,-105.728455,60.187905,24.830419,29.089781,15.730538,0.0,-1.0,102.065094,-0.95652,3.107659,0.035971,1.956911
275307.524482,0.32901759,-0.35161983,9.76044969,0.003276,-0.000307,0.004809,-39.900635,92.119751,-105.663681,60.187905,24.830419,29.089781,15.730538,0.0,-1.0,102.065094,-0.95652,3.107657,0.03597,1.957727
275307.544466,0.3153915,-0.35999757000000004,9.771378030000001,0.0034,-0.001462,0.003638,-39.779617,92.291122,-105.336121,60.187905,24.830419,29.089781,15.730538,0.0,-1.0,102.065094,-0.95652,3.107677,0.035969,1.95824
275307.56445,0.32482872,-0.35431757999999997,9.77422293,0.001643,-0.001262,0.002946,-39.431061,92.364624,-105.794662,60.187905,24.830419,29.089781,15.730538,0.0,-1.0,102.065094,-0.95652,3.10767,0.035973,1.959047
275307.584434,0.31898196000000006,-0.34383069,9.77706783,0.003217,-0.001652,0.004069,-39.725998,92.326233,-105.579956,60.187905,24.830419,29.089781,15.730538,0.0,-1.0,102.065094,-0.95652,3.10767,0.035978,1.959643
275307.604418,0.32916474,-0.3583593,9.775723860000001,0.002459,-0.001334,0.004682,-40.081589,92.017426,-105.130646,60.187905,24.830419,29.089781,15.730538,0.0,-1.0,102.065094,-0.95652,3.107657,0.035993,1.960109
275307.624402,0.33215679000000004,-0.35595585,9.76809168,0.00194,-0.000504,0.003412,-39.559311,92.404205,-105.75415,60.187905,24.830419,29.089781,15.730538,0.0,-1.0,102.065094,-0.95652,3.107651,0.035996,1.960741
275307.644385,0.33710102999999997,-0.3376994400000001,9.775871010000001,0.002882,0.000387,0.003447,-39.886292,92.234024,-105.628342,60.187905,24.830419,29.089781,15.730538,0.0,-1.0,102.065094,-0.95652,3.107644,0.036013,1.961289
275307.66437,0.33335360999999997,-0.33904341000000005,9.78500412,0.004489,-0.001194,0.003356,-39.553741,92.279678,-105.776352,60.187905,24.830419,29.089781,15.730538,0.0,-1.0,102.065094,-0.95652,3.107649,0.036006,1.961955
275307.684354,0.31883481,-0.3583593,9.77632227,0.005191,0.000852,0.004798,-39.871902,92.016327,-105.540878,60.187905,24.830419,29.089781,15.730538,0.0,-1.0,102.065094,-0.95652,3.107659,0.036001,1.962374
275307.704338,0.32677110000000004,-0.34847082,9.77960862,0.005002,0.000139,0.004507,-39.75386,92.146378,-105.758606,60.187905,24.830419,29.089781,15.730538,0.0,-1.0,102.065094,-0.95652,3.107659,0.036006,1.962747
275307.724322,0.3270654,-0.35236539,9.75491685,0.003813,-0.00084,0.00424,-39.655457,92.204681,-105.689972,60.187905,24.830419,29.089781,15.730538,0.0,-1.0,102.065094,-0.95652,3.107665,0.036007,1.963184
275307.744306,0.32602554,-0.34712685000000004,9.79009551,0.003351,-0.000676,0.002918,-39.588303,92.392441,-105.69101,60.187905,24.830419,29.089781,15.730538,0.0,-1.0,102.065094,-0.95652,3.10767,0.036008,1.963783
275307.76429,0.32407335000000004,-0.35176698,9.77063247,0.002398,-0.002543,0.004841,-39.82016,92.215088,-105.582214,60.187905,24.830419,29.089781,15.730538,0.0,-1.0,102.065094,-0.95652,3.107665,0.036008,1.964337
275307.784274,0.32662395,-0.34547877,9.763598700000001,0.004144,-0.001698,0.003678,-40.161087,92.121948,-105.598251,60.187905,24.830419,29.089781,15.730538,0.0,-1.0,102.065094,-0.95652,3.107647,0.036001,1.964483
275307.804258,0.33305931000000005,-0.35939916000000005,9.76599234,0.000521,-0.001939,0.004184,-39.516937,92.291733,-105.637314,60.187905,24.830419,29.089781,15.730538,0.0,-1.0,102.065094,-0.95652,3.10765,0.035997,1.965037
275307.824241,0.31854051,-0.34308513,9.7547697,0.002518,-0.001095,0.004654,-39.713867,92.310532,-105.751511,60.187905,24.830419,29.089781,15.730538,0.0,-1.0,102.065094,-0.95652,3.107641,0.036014,1.965333
275307.844225,0.32467176000000003,-0.36194976,9.77826465,0.003243,-9.6e-05,0.002876,-39.789749,92.321808,-106.033356,60.187905,24.830419,29.089781,15.730538,0.0,-1.0,102.065094,-0.95652,3.107632,0.036026,1.965891
275307.864209,0.32617269000000004,-0.35161983,9.77706783,0.002613,0.000736,0.003809,-40.016098,92.315369,-105.57309,60.187905,24.830419,29.089781,15.730538,0.0,-1.0,102.065094,-0.95652,3.107634,0.036035,1.9663
275307.884193,0.32976315,-0.35625996000000004,9.775272600000001,0.003461,0.001746,0.004052,-39.706757,92.248093,-105.977982,60.187905,24.830419,29.089781,15.730538,0.0,-1.0,102.065094,-0.95652,3.10763,0.03605,1.966702
275307.924161,0.32946885,-0.34353639,9.77108373,0.003292,-0.000112,0.004041,-39.550018,92.633591,-105.49678,60.187905,24.830419,29.089781,15.730538,0.0,-1.0,102.065094,-0.95652,3.107653,0.036046,1.967622
275307.924161,0.32946885,-0.34353639,9.77108373,0.003292,-0.000112,0.004041,-39.550018,92.633591,-105.49678,60.187905,24.830419,29.089781,15.730538,0.0,-1.0,102.065094,-0.95652,3.107653,0.036046,1.967622
275307.944145,0.32497587,-0.34128990000000003,9.77063247,0.003292,-0.000112,0.004041,-39.800201,92.469376,-105.580109,60.187905,24.830419,29.089781,15.730538,0.0,-1.0,102.065094,-0.95652,3.107662,0.036042,1.968386
275307.984113,0.33874911,-0.34712685000000004,9.77991273,0.004368,0.000394,0.005193,-39.505402,92.594681,-105.710785,60.187905,24.830419,29.089781,15.730538,0.0,-1.0,102.065094,-0.95652,3.107668,0.036052,1.969414
275308.004096,0.32138541,-0.33889626,9.77317326,0.002385,-0.000884,0.00476,-39.295639,92.628601,-106.030121,60.187905,24.830419,29.089781,15.730538,0.0,-1.0,102.065094,-0.95652,3.107681,0.036048,1.97009
275308.004096,0.32138541,-0.33889626,9.77317326,0.002385,-0.000884,0.00476,-39.295639,92.628601,-106.030121,60.187905,24.830419,29.089781,15.730538,0.0,-1.0,102.065094,-0.95652,3.107681,0.036048,1.97009
275308.044064,0.32662395,-0.34219242000000005,9.77706783,0.001516,-0.000219,0.005678,-39.851425,92.499664,-105.408295,60.187905,24.830419,29.089781,15.730538,0.0,-1.0,102.065094,-0.95652,3.107676,0.036026,1.971093
275308.044064,0.32662395,-0.34219242000000005,9.77706783,0.001516,-0.000219,0.005678,-39.851425,92.499664,-105.408295,60.187905,24.830419,29.089781,15.730538,0.0,-1.0,102.065094,-0.95652,3.107676,0.036026,1.971093
275308.084032,0.32572143000000003,-0.35461188,9.7667379,0.00367,0.000948,0.004097,-39.618317,92.560364,-105.424393,60.187905,24.830419,29.089781,15.730538,0.0,-1.0,102.065094,-0.95652,3.107683,0.036057,1.972057
275308.084032,0.32572143000000003,-0.35461188,9.7667379,0.00367,0.000948,0.004097,-39.618317,92.560364,-105.424393,60.187905,24.830419,29.089781,15.730538,0.0,-1.0,102.065094,-0.95652,3.107683,0.036057,1.972057
275308.124,0.31015296,-0.34772526,9.771378030000001,0.00444,-0.00121,0.003754,-40.315491,92.078537,-105.084137,60.187905,24.830419,29.089781,15.730538,0.0,-1.0,102.065094,-0.95652,3.107702,0.036049,1.973138
275308.143984,0.33305931000000005,-0.35475903000000003,9.76584519,0.003386,-0.000417,0.005246,-39.506165,92.728821,-105.814789,60.187905,24.830419,29.089781,15.730538,0.0,-1.0,102.065094,-0.95652,3.107713,0.036052,1.973287
275308.163968,0.32018859000000005,-0.35161983,9.76988691,0.002921,0.000281,0.003085,-39.506165,92.728821,-105.814789,60.187905,24.830419,29.089781,15.730538,0.0,-1.0,102.065094,-0.95652,3.107715,0.036057,1.973863
275308.183952,0.32527017,-0.34922619,9.780962400000002,0.003366,0.000324,0.005296,-39.567093,92.636871,-105.6539,60.187905,24.830419,29.089781,15.730538,0.0,-1.0,102.065811,-1.019936,3.107727,0.036061,1.974176
275308.203935,0.33021441000000007,-0.35057015999999996,9.75491685,0.002719,-0.001639,0.003283,-39.235931,92.878006,-105.881622,60.187905,24.830419,29.089781,15.730538,0.0,-1.0,102.065811,-1.019936,3.107725,0.036071,1.974987
275308.223919,0.33650262000000003,-0.35207109,9.756260820000001,0.002197,-0.000576,0.004039,-39.824539,92.243256,-105.528564,60.187905,24.830419,29.089781,15.730538,0.0,-1.0,102.065811,-1.019936,3.107724,0.036069,1.975499
275308.243903,0.33066567,-0.36104724000000005,9.780962400000002,0.003867,-0.001863,0.005229,-39.757141,92.433289,-105.689468,60.187904,24.830416,29.089781,15.89191,0.0,-1.0,102.065811,-1.019936,3.107732,0.036078,1.97575
275308.263887,0.32302368,-0.3555144,9.76913154,0.00254,-0.000335,0.002857,-39.60762,92.534195,-105.73877,60.187904,24.830416,29.089781,15.89191,0.0,-1.0,102.065811,-1.019936,3.107734,0.03606,1.976241
275308.283871,0.32167971,-0.34353639,9.77467419,0.003704,-0.000124,0.003268,-39.539139,92.366409,-105.663361,60.187904,24.830416,29.089781,15.89191,0.0,-1.0,102.065811,-1.019936,3.107729,0.036045,1.976725
275308.303855,0.32766381,-0.34233957,9.780511140000002,0.004335,-0.000325,0.003032,-39.586761,92.511047,-105.45697,60.187904,24.830416,29.089781,15.89191,0.0,-1.0,102.065811,-1.019936,3.107719,0.036042,1.977134
275308.323839,0.31988447999999997,-0.34338924000000004,9.768385980000001,0.003528,-0.000796,0.002067,-39.857864,92.430084,-105.354568,60.187904,24.830416,29.089781,15.89191,0.0,-1.0,102.065811,-1.019936,3.107714,0.036047,1.977358
275308.343823,0.32347494000000004,-0.35207109,9.7781175,0.0055,0.000182,0.002531,-39.766998,92.569656,-105.255951,60.187904,24.830416,29.089781,15.89191,0.0,-1.0,102.065811,-1.019936,3.107721,0.036057,1.977743
275308.363807,0.32048288999999996,-0.34743096000000007,9.764491410000002,0.004235,-0.000982,0.005082,-39.701538,92.492661,-105.682693,60.187904,24.830416,29.089781,15.89191,0.0,-1.0,102.065811,-1.019936,3.10772,0.036045,1.978195
275308.38379,0.3179421,-0.35566155000000005,9.76120506,0.00334,-0.000418,0.00471,-39.551178,92.440506,-105.52536,60.187904,24.830416,29.089781,15.89191,0.0,-1.0,102.065811,-1.019936,3.10773,0.036029,1.978588
275308.403774,0.33755229000000003,-0.35640711,9.77317326,0.004044,-0.001117,0.004446,-39.892227,92.405243,-105.456894,60.187904,24.830416,29.089781,15.89191,0.0,-1.0,102.065811,-1.019936,3.107743,0.03603,1.978831
275308.423758,0.31629402,-0.34203546,9.77871591,0.002261,-0.00038,0.005126,-39.451172,92.632599,-105.66835,60.187904,24.830416,29.089781,15.89191,0.0,-1.0,102.065811,-1.019936,3.107758,0.036029,1.979246
275308.443742,0.32617269000000004,-0.35087427000000004,9.767493270000001,0.001858,0.0004,0.003815,-39.44101,92.729904,-105.627731,60.187904,24.830416,29.089781,15.89191,0.0,-1.0,102.065811,-1.019936,3.107784,0.036038,1.979859
275308.463726,0.34383069,-0.35431757999999997,9.78470001,0.003128,0.000485,0.003383,-39.697235,92.577789,-105.361221,60.187904,24.830416,29.089781,15.89191,0.0,-1.0,102.065811,-1.019936,3.107783,0.03605,1.980332
275308.48371,0.32931189000000005,-0.35042301000000003,9.76883724,0.004354,0.001659,0.005281,-40.129684,92.189682,-105.160263,60.187904,24.830416,29.089781,15.89191,0.0,-1.0,102.065811,-1.019936,3.107783,0.036054,1.980635
275308.503694,0.33695388,-0.35805518999999997,9.78110955,0.004032,0.001172,0.004795,-39.831299,92.272552,-105.204819,60.187904,24.830416,29.089781,15.89191,0.0,-1.0,102.065811,-1.019936,3.107777,0.036047,1.980572
275308.523678,0.31854051,-0.35027586000000005,9.77333022,0.004748,0.000684,0.004651,-39.614395,92.530899,-105.934235,60.187904,24.830416,29.089781,15.89191,0.0,-1.0,102.065811,-1.019936,3.107783,0.036056,1.98072
275308.543662,0.32093415000000003,-0.3586536,9.76284333,0.004059,-0.000933,0.003899,-39.269119,92.779785,-105.690308,60.187904,24.830416,29.089781,15.89191,0.0,-1.0,102.065811,-1.019936,3.107795,0.036059,1.981045
275308.583629,0.32497587,-0.35116857000000007,9.77452704,0.003108,-0.000865,0.004684,-39.639374,92.582748,-105.560516,60.187904,24.830416,29.089781,15.89191,0.0,-1.0,102.065811,-1.019936,3.107794,0.036053,1.981789
275308.603613,0.33351057,-0.33470739,9.764942670000002,0.005435,-0.002198,0.004561,-39.546051,92.525284,-105.438538,60.187904,24.830416,29.089781,15.89191,0.0,-1.0,102.065811,-1.019936,3.10781,0.036062,1.982065
275308.603613,0.33351057,-0.33470739,9.764942670000002,0.005435,-0.002198,0.004561,-39.546051,92.525284,-105.438538,60.187904,24.830416,29.089781,15.89191,0.0,-1.0,102.065811,-1.019936,3.10781,0.036062,1.982065
275308.643581,0.32677110000000004,-0.34338924000000004,9.775566900000001,0.003079,0.00013,0.003754,-39.679871,92.456085,-105.590683,60.187904,24.830416,29.089781,15.89191,0.0,-1.0,102.065811,-1.019936,3.107816,0.036054,1.982979
275308.663565,0.31808925000000005,-0.35521029,9.771525180000001,0.004277,-0.000112,0.002507,-39.820221,92.297623,-105.262863,60.187904,24.830416,29.089781,15.89191,0.0,-1.0,102.065811,-1.019936,3.107825,0.036058,1.983271
275308.683548,0.3239262,-0.3646377,9.77617512,0.00156,0.001367,0.003501,-39.330475,92.646805,-105.828888,60.187904,24.830416,29.089781,15.89191,0.0,-1.0,102.065811,-1.019936,3.107828,0.036065,1.983445
275308.703532,0.33650262000000003,-0.35071731,9.768533130000002,0.003304,0.000108,0.003405,-39.415665,92.486191,-105.684174,60.187904,24.830416,29.089781,15.89191,0.0,-1.0,102.065811,-1.019936,3.107833,0.036077,1.983967
275308.723516,0.32946885,-0.35042301000000003,9.77257485,0.004188,0.000165,0.004085,-39.389603,92.359192,-105.599167,60.187904,24.830416,29.089781,15.89191,0.0,-1.0,102.065811,-1.019936,3.107835,0.036078,1.984446
275308.723516,0.32946885,-0.35042301000000003,9.77257485,0.004188,0.000165,0.004085,-39.389603,92.359192,-105.599167,60.187904,24.830416,29.089781,15.89191,0.0,-1.0,102.065811,-1.019936,3.107835,0.036078,1.984446
275308.763483,0.31898196000000006,-0.34368354000000007,9.768533130000002,0.003259,0.000916,0.003836,-39.569229,92.469864,-105.63649,60.187904,24.830416,29.089781,15.89191,0.0,-1.0,102.065811,-1.019936,3.107841,0.036097,1.984848
275308.783467,0.32782077000000004,-0.34398765000000003,9.78515127,0.003609,-6.9e-05,0.003707,-39.555954,92.408783,-105.817184,60.187904,24.830416,29.089781,15.89191,0.0,-1.0,102.065811,-1.019936,3.107841,0.036088,1.985103
275308.803451,0.32512302,-0.34233957,9.7667379,0.00215,-0.001596,0.005634,-39.551437,92.527359,-105.661118,60.187904,24.830416,29.089781,15.89191,0.0,-1.0,102.065811,-1.019936,3.107838,0.036091,1.985303
275308.803451,0.32512302,-0.34233957,9.7667379,0.00215,-0.001596,0.005634,-39.551437,92.527359,-105.661118,60.187904,24.830416,29.089781,15.89191,0.0,-1.0,102.065811,-1.019936,3.107838,0.036091,1.985303
275308.843419,0.31778514,-0.34279083000000005,9.78620094,0.003079,-4.5e-05,0.00469,-39.946869,92.378983,-105.380447,60.187904,24.830416,29.089781,15.89191,0.0,-1.0,102.065811,-1.019936,3.107848,0.036111,1.985453
275308.863403,0.31778514,-0.35566155000000005,9.775419750000001,0.001921,0.000127,0.005894,-39.946869,92.378983,-105.380447,60.187904,24.830416,29.089781,15.89191,0.0,-1.0,102.065811,-1.019936,3.107855,0.036106,1.985436
275308.883387,0.31569561,-0.35356221,9.77032836,0.003321,0.001075,0.003833,-39.617569,92.354172,-105.565216,60.187904,24.830416,29.089781,15.89191,0.0,-1.0,102.065811,-1.019936,3.107867,0.036101,1.985517
275308.903371,0.31854051,-0.33934752,9.78560253,0.003048,0.000381,0.004336,-39.855545,92.261169,-105.383942,60.187904,24.830416,29.089781,15.89191,0.0,-1.0,102.065811,-1.019936,3.107879,0.036104,1.985683
275308.923355,0.32272938,-0.3555144,9.77826465,0.004282,0.000599,0.00204,-39.438416,92.256516,-105.626038,60.187904,24.830416,29.089781,15.89191,0.0,-1.0,102.065811,-1.019936,3.107875,0.036125,1.985888
275308.943339,0.32841918000000003,-0.34219242000000005,9.775723860000001,0.00342,-0.000538,0.004157,-39.925812,92.174179,-105.543198,60.187904,24.830416,29.089781,15.89191,0.0,-1.0,102.065811,-1.019936,3.107887,0.036123,1.985914
275308.963322,0.31180104000000003,-0.35730963,9.77018121,0.002857,-0.001193,0.003919,-39.71022,92.263031,-105.689789,60.187904,24.830416,29.089781,15.89191,0.0,-1.0,102.065811,-1.019936,3.107895,0.036133,1.985975
275308.983306,0.31644117000000005,-0.35102142000000003,9.76195062,0.0028,-0.001303,0.003953,-39.415634,92.504562,-105.68895,60.187904,24.830416,29.089781,15.89191,0.0,-1.0,102.065811,-1.019936,3.107886,0.036136,1.986203
275309.00329,0.32856633,-0.35521029,9.771378030000001,0.003499,-0.000801,0.004091,-39.74823,92.439865,-105.593842,60.187904,24.830416,29.089781,15.89191,0.0,-1.0,102.065811,-1.019936,3.107882,0.036143,1.986521
275309.023274,0.33664977,-0.35671122,9.768690090000002,0.004113,-0.003353,0.001266,-39.853027,92.219147,-105.377548,60.187904,24.830416,29.089781,15.89191,0.0,-1.0,102.065811,-1.019936,3.107889,0.036152,1.986713
275309.043258,0.33530580000000004,-0.33455043,9.76764042,0.002835,-0.001874,0.004291,-39.529404,92.289658,-105.716904,60.187904,24.830416,29.089781,15.89191,0.0,-1.0,102.065811,-1.019936,3.107889,0.03615,1.986698
275309.063242,0.33605136,-0.35102142000000003,9.77077962,0.002682,7.9e-05,0.004639,-39.695236,92.443222,-105.608231,60.187904,24.830416,29.089781,15.89191,0.0,-1.0,102.065811,-1.019936,3.10789,0.036155,1.986935
275309.083226,0.32318064,-0.35341506000000006,9.76300029,0.003979,0.000334,0.004863,-39.361389,92.721283,-105.850449,60.187904,24.830416,29.089781,15.89191,0.0,-1.0,102.065811,-1.019936,3.107902,0.036164,1.987371
275309.083226,0.32318064,-0.35341506000000006,9.76300029,0.003979,0.000334,0.004863,-39.361389,92.721283,-105.850449,60.187904,24.830416,29.089781,15.89191,0.0,-1.0,102.065811,-1.019936,3.107902,0.036164,1.987371
275309.083226,0.32318064,-0.35341506000000006,9.76300029,0.003979,0.000334,0.004863,-39.361389,92.721283,-105.850449,60.187904,24.830416,29.089781,15.89191,0.0,-1.0,102.065811,-1.019936,3.107902,0.036164,1.987371
275309.143178,0.31658832000000003,-0.36359784,9.77048532,0.003861,-0.000846,0.002727,-39.224899,92.52861,-105.577133,60.187904,24.830416,29.089781,15.89191,0.0,-1.0,102.065811,-1.019936,3.10792,0.036164,1.987744
275309.163162,0.31134978,-0.34503732000000004,9.77422293,0.004234,0.00067,0.003513,-39.371475,92.55426,-105.728867,60.187904,24.830416,29.089781,15.89191,0.0,-1.0,102.065811,-1.019936,3.107921,0.03617,1.988238
275309.183145,0.32691825,-0.35236539,9.76688505,0.004727,-0.000347,0.00395,-39.364288,92.5336,-105.76149,60.187904,24.830416,29.089781,15.89191,0.0,-1.0,102.065811,-1.019936,3.107923,0.036161,1.988683
275309.203129,0.32751666,-0.35805518999999997,9.768238830000001,0.004142,-0.000595,0.004581,-39.999817,92.343704,-105.25386,60.187904,24.830416,29.089781,15.89191,0.0,-1.0,102.065811,-1.019936,3.107938,0.036156,1.988802
275309.223113,0.33246090000000006,-0.34428195,9.764942670000002,0.003884,2e-06,0.004697,-39.489548,92.592194,-105.531097,60.187904,24.830416,29.089781,15.89191,0.0,-1.0,102.065811,-1.019936,3.107941,0.036147,1.988892
275309.243097,0.32242527000000004,-0.3526695,9.76044969,0.003344,-0.000934,0.004414,-39.251221,92.568039,-105.921829,60.187904,24.830416,29.089781,15.280478,0.0,243.516577,102.065811,-1.019936,3.107948,0.036141,1.989252
275309.263081,0.34038738,-0.35042301000000003,9.77018121,0.00125,-0.000676,0.004746,-39.606873,92.490952,-105.933685,60.187904,24.830416,29.089781,15.280478,0.0,243.516577,102.066582,-1.083351,3.107945,0.036136,1.989652
275309.283065,0.32931189000000005,-0.35715267000000006,9.77407578,0.002713,-0.0008,0.005391,-39.937027,92.26001,-105.494568,60.187904,24.830416,29.089781,15.280478,0.0,243.516577,102.066582,-1.083351,3.10796,0.036147,1.989879
275309.303049,0.31854051,-0.35071731,9.759851280000001,0.001295,0.000687,0.004035,-39.913986,92.178406,-105.284363,60.187904,24.830416,29.089781,15.280478,0.0,243.516577,102.066582,-1.083351,3.107961,0.036148,1.989827
275309.323033,0.32377905,-0.3586536,9.759556980000001,0.002292,0.000697,0.004108,-39.597946,92.423767,-105.917908,60.187904,24.830416,29.089781,15.280478,0.0,243.516577,102.066582,-1.083351,3.107955,0.036144,1.989813
275309.343017,0.32512302,-0.34188831000000003,9.76898439,0.002557,-0.000443,0.003462,-39.495071,92.50882,-105.524246,60.187904,24.830416,29.089781,15.280478,0.0,243.516577,102.066582,-1.083351,3.107963,0.036137,1.989948
275309.363001,0.32662395,-0.34652844000000005,9.78156081,0.004487,-2.5e-05,0.003598,-39.980957,92.174179,-105.105087,60.187904,24.830416,29.089781,15.280478,0.0,243.516577,102.066582,-1.083351,3.107969,0.036146,1.990177
275309.402968,0.32557428000000005,-0.35102142000000003,9.77646942,0.002829,-0.002474,0.004241,-39.294815,92.475494,-105.411758,60.187904,24.830416,29.089781,15.280478,0.0,243.516577,102.066582,-1.083351,3.107999,0.036144,1.990045
275309.402968,0.32557428000000005,-0.35102142000000003,9.77646942,0.002829,-0.002474,0.004241,-39.294815,92.475494,-105.411758,60.187904,24.830416,29.089781,15.280478,0.0,243.516577,102.066582,-1.083351,3.107999,0.036144,1.990045
275309.442936,0.31943322,-0.34638129,9.767493270000001,0.002839,-0.001774,0.005775,-39.453705,92.442551,-105.740265,60.187904,24.830416,29.089781,15.280478,0.0,243.516577,102.066582,-1.083351,3.108017,0.036133,1.990733
275309.46292,0.3270654,-0.34338924000000004,9.771525180000001,0.003043,-8.9e-05,0.003656,-39.962524,92.345444,-105.550858,60.187904,24.830416,29.089781,15.280478,0.0,243.516577,102.066582,-1.083351,3.108014,0.036138,1.990822
275309.482904,0.32063004,-0.35461188,9.76913154,0.002596,-0.00157,0.004744,-39.773788,92.36261,-105.539383,60.187904,24.830416,29.089781,15.280478,0.0,243.516577,102.066582,-1.083351,3.108011,0.036127,1.990743
275309.502888,0.31270356000000005,-0.3529638,9.775566900000001,0.001233,-0.000372,0.005168,-39.43959,92.54039,-105.730423,60.187904,24.830416,29.089781,15.280478,0.0,243.516577,102.066582,-1.083351,3.108014,0.036112,1.990771
275309.522872,0.32856633,-0.34772526,9.775419750000001,0.002365,0.001488,0.004406,-39.858612,92.173828,-105.341965,60.187904,24.830416,29.089781,15.280478,0.0,243.516577,102.066582,-1.083351,3.108011,0.03611,1.990965
275309.542856,0.32467176000000003,-0.3586536,9.77946147,0.004363,-0.000556,0.004919,-39.858612,92.173828,-105.341965,60.187904,24.830416,29.089781,15.280478,0.0,243.516577,102.066582,-1.083351,3.108029,0.036115,1.990976
275309.56284,0.32751666,-0.35776089000000005,9.77692068,0.003078,0.000384,0.00384,-39.882095,92.184235,-105.587875,60.187904,24.830416,29.089781,15.280478,0.0,243.516577,102.066582,-1.083351,3.108029,0.036111,1.990917
275309.582824,0.32691825,-0.35655426000000007,9.77273181,0.003335,-0.001626,0.003197,-39.653778,92.231369,-105.287491,60.187904,24.830416,29.089781,15.280478,0.0,243.516577,102.066582,-1.083351,3.108032,0.036117,1.990621
275309.602807,0.33006726000000003,-0.34683255,9.78036399,0.004005,-0.000611,0.004701,-39.683762,92.240768,-105.615082,60.187904,24.830416,29.089781,15.280478,0.0,243.516577,102.066582,-1.083351,3.108039,0.036125,1.990684
275309.622791,0.33410898,-0.35221824,9.780815250000002,0.003356,-0.001595,0.004785,-39.386917,92.449738,-105.619263,60.187904,24.830416,29.089781,15.280478,0.0,243.516577,102.066582,-1.083351,3.10804,0.036121,1.990796
275309.642775,0.33395202000000007,-0.34906923,9.78500412,0.002169,-0.001273,0.004572,-39.651108,92.361771,-105.22789,60.187904,24.830416,29.089781,15.280478,0.0,243.516577,102.066582,-1.083351,3.108042,0.03613,1.990882
275309.662759,0.32931189000000005,-0.33844500000000005,9.77257485,0.001725,-0.001365,0.004208,-39.982178,92.12175,-105.310455,60.187904,24.830416,29.089781,15.280478,0.0,243.516577,102.066582,-1.083351,3.108052,0.036124,1.990708
275309.682743,0.32871348000000006,-0.34922619,9.77856876,0.00271,-0.000561,0.003458,-39.517685,92.499069,-105.329742,60.187904,24.830416,29.089781,15.280478,0.0,243.516577,102.066582,-1.083351,3.108057,0.036125,1.99067
275309.702727,0.33724818,-0.35446473,9.77273181,0.002933,1e-05,0.003698,-39.714661,92.222458,-105.628723,60.187904,24.830416,29.089781,15.280478,0.0,243.516577,102.066582,-1.083351,3.108057,0.036119,1.990685
275309.722711,0.32901759,-0.35116857000000007,9.77317326,0.001826,-0.000921,0.005032,-39.350998,92.40062,-105.968384,60.187904,24.830416,29.089781,15.280478,0.0,243.516577,102.066582,-1.083351,3.108063,0.036111,1.990749
275309.722711,0.32901759,-0.35116857000000007,9.77317326,0.001826,-0.000921,0.005032,-39.350998,92.40062,-105.968384,60.187904,24.830416,29.089781,15.280478,0.0,243.516577,102.066582,-1.083351,3.108063,0.036111,1.990749
275309.762679,0.31090833,-0.35176698,9.764795520000002,0.003196,-0.000244,0.005791,-39.512344,92.393494,-105.812531,60.187904,24.830416,29.089781,15.280478,0.0,243.516577,102.066582,-1.083351,3.108062,0.036105,1.990366
275309.782663,0.32153256,-0.36403929000000007,9.780658290000002,0.004219,-0.001337,0.004053,-39.735855,92.505035,-105.480072,60.187904,24.830416,29.089781,15.280478,0.0,243.516577,102.066582,-1.083351,3.108059,0.036105,1.990292
275309.802647,0.32542713,-0.34922619,9.7607538,0.002423,-0.00102,0.003401,-39.98732,92.194138,-105.298309,60.187904,24.830416,29.089781,15.280478,0.0,243.516577,102.066582,-1.083351,3.108051,0.036111,1.990195
275309.822631,0.34293798000000003,-0.33904341000000005,9.77048532,0.003797,-0.001585,0.004761,-40.047882,92.414352,-105.482254,60.187904,24.830416,29.089781,15.280478,0.0,243.516577,102.066582,-1.083351,3.10807,0.036114,1.990047
275309.842614,0.3381507,-0.3441348,9.783503190000001,0.003071,-0.00171,0.005159,-39.955688,92.512344,-105.394073,60.187904,24.830416,29.089781,15.280478,0.0,243.516577,102.066582,-1.083351,3.108067,0.036111,1.989775
275309.862598,0.32512302,-0.35925201,9.77601816,0.002099,0.00024,0.002826,-39.517029,92.611694,-105.609543,60.187904,24.830416,29.089781,15.280478,0.0,243.516577,102.066582,-1.083351,3.108085,0.036114,1.989854
275309.882582,0.32617269000000004,-0.34997175,9.76972995,0.001814,-0.000482,0.003525,-39.60376,92.317108,-105.585541,60.187904,24.830416,29.089781,15.280478,0.0,243.516577,102.066582,-1.083351,3.108088,0.036115,1.990046
275309.902566,0.30985866000000006,-0.35776089000000005,9.775272600000001,0.002555,-0.002568,0.003616,-39.712631,92.24295,-105.769058,60.187904,24.830416,29.089781,15.280478,0.0,243.516577,102.066582,-1.083351,3.108087,0.036115,1.990163
275309.92255,0.32677110000000004,-0.35895771,9.76539393,0.003211,0.000152,0.005356,-40.00383,92.258621,-105.000229,60.187904,24.830416,29.089781,15.280478,0.0,243.516577,102.066582,-1.083351,3.108072,0.036107,1.989985
275309.942534,0.31959018000000006,-0.34862778,9.780511140000002,0.002979,-0.000244,0.00443,-39.605072,92.31427,-105.620575,60.187904,24.830416,29.089781,15.280478,0.0,243.516577,102.066582,-1.083351,3.108067,0.036087,1.98968
275309.962518,0.329616,-0.35057015999999996,9.77392863,0.004606,-0.000144,0.004013,-39.959549,92.34697,-105.345963,60.187904,24.830416,29.089781,15.280478,0.0,243.516577,102.066582,-1.083351,3.108067,0.036085,1.989638
275310.002486,0.31734369000000007,-0.35176698,9.768385980000001,0.002453,0.001047,0.004229,-40.03125,92.354416,-105.360855,60.187904,24.830416,29.089781,15.280478,0.0,243.516577,102.066582,-1.083351,3.108076,0.036062,1.98948
275310.02247,0.32542713,-0.3498246,9.78021684,0.004114,0.000186,0.003193,-39.782669,92.410629,-105.251755,60.187904,24.830416,29.089781,15.280478,0.0,243.516577,102.066582,-1.083351,3.108082,0.036066,1.989317
275310.042454,0.32482872,-0.34906923,9.77886306,0.005033,-0.002387,0.004601,-39.5914,92.587906,-105.486252,60.187904,24.830416,29.089781,15.280478,0.0,243.516577,102.066582,-1.083351,3.108086,0.03606,1.989356
275310.042454,0.32482872,-0.34906923,9.77886306,0.005033,-0.002387,0.004601,-39.5914,92.587906,-105.486252,60.187904,24.830416,29.089781,15.280478,0.0,243.516577,102.066582,-1.083351,3.108086,0.03606,1.989356
275310.082421,0.33470739,-0.34293798000000003,9.79173378,0.003561,-0.000912,0.004736,-40.238602,92.137665,-105.112473,60.187904,24.830416,29.089781,15.280478,0.0,243.516577,102.066582,-1.083351,3.108088,0.036017,1.989658
275310.102405,0.32302368,-0.34757811,9.77257485,0.002648,0.0001,0.003855,-39.917389,92.284607,-105.753006,60.187904,24.830416,29.089781,15.280478,0.0,243.516577,102.066582,-1.083351,3.108094,0.036019,1.989366
275310.122389,0.32991030000000005,-0.35236539,9.77362452,0.001468,0.00116,0.0031,-39.708923,92.478943,-105.650436,60.187904,24.830416,29.089781,15.280478,0.0,243.516577,102.066582,-1.083351,3.108105,0.036013,1.989379
275310.142373,0.32153256,-0.35042301000000003,9.78156081,0.003479,0.001663,0.002332,-39.452194,92.353455,-105.775253,60.187904,24.830416,29.089781,15.280478,0.0,243.516577,102.066582,-1.083351,3.108111,0.036007,1.98951
275310.162357,0.32213097,-0.34368354000000007,9.7667379,0.001727,0.001028,0.003734,-40.065994,92.26239,-105.692825,60.187904,24.830416,29.089781,15.280478,0.0,243.516577,102.066582,-1.083351,3.108126,0.036005,1.989557
275310.182341,0.31868766000000004,-0.34578288,9.77362452,0.004323,-5e-06,0.0045,-40.063705,92.149307,-105.598129,60.187904,24.830416,29.089781,15.280478,0.0,243.516577,102.066582,-1.083351,3.108122,0.036004,1.989326
275310.202325,0.33320646000000004,-0.34832367,9.77737194,0.004179,-0.000751,0.004418,-39.584747,92.289215,-105.975998,60.187904,24.830416,29.089781,15.280478,0.0,243.516577,102.066582,-1.083351,3.108126,0.036,1.989101
275310.222309,0.32033574000000004,-0.35431757999999997,9.7664436,0.00412,-0.001952,0.004231,-39.93959,91.974319,-105.445724,60.187904,24.830416,29.089781,15.280478,0.0,243.516577,102.066582,-1.083351,3.108125,0.036011,1.989133
275310.242293,0.32258223,-0.34578288,9.77377167,0.003511,-0.002471,0.004371,-39.93959,91.974319,-105.445724,60.187904,24.830416,29.089781,11.048143,0.0,243.516577,102.066582,-1.083351,3.108131,0.036017,1.988965
275310.262277,0.32213097,-0.35221824,9.76269618,0.002894,-0.001432,0.004125,-39.449326,92.295776,-105.967102,60.187904,24.830416,29.089781,11.048143,0.0,243.516577,102.066582,-1.083351,3.108127,0.036016,1.988999
275310.282261,0.3239262,-0.35176698,9.78156081,0.002894,-0.001432,0.004125,-40.090271,92.237442,-105.172256,60.187904,24.830416,29.089781,11.048143,0.0,243.516577,102.066582,-1.083351,3.108128,0.036019,1.988918
275310.302245,0.31973733,-0.34892208,9.771976440000001,0.002218,-0.000734,0.004654,-39.699417,92.314041,-105.761795,60.187904,24.830416,29.089781,11.048143,0.0,243.516577,102.066582,-1.083351,3.10812,0.036019,1.988904
275310.322228,0.33874911,-0.35446473,9.772133400000001,0.001774,0.000218,0.004151,-39.569733,92.565201,-105.929413,60.187904,24.830416,29.089781,11.048143,0.0,243.516577,102.066582,-1.083351,3.108119,0.036022,1.989138
275310.342212,0.32377905,-0.35671122,9.77018121,0.003151,0.000184,0.003463,-39.711548,92.464203,-105.517929,60.187904,24.830416,29.089781,11.048143,0.0,243.516577,102.067192,-1.130913,3.108111,0.036025,1.989234
275310.362196,0.32467176000000003,-0.35176698,9.76554108,0.003356,-0.000318,0.003898,-39.947601,92.182404,-105.417038,60.187904,24.830416,29.089781,11.048143,0.0,243.516577,102.067192,-1.130913,3.108109,0.036019,1.989074
275310.362196,0.32467176000000003,-0.35176698,9.76554108,0.003356,-0.000318,0.003898,-39.947601,92.182404,-105.417038,60.187904,24.830416,29.089781,11.048143,0.0,243.516577,102.067192,-1.130913,3.108109,0.036019,1.989074
275310.402164,0.30821058,-0.34922619,9.77287896,0.003294,0.000413,0.003589,-39.588974,92.483414,-105.971649,60.187904,24.830416,29.089781,11.048143,0.0,243.516577,102.067192,-1.130913,3.108099,0.036016,1.988856
275310.422148,0.32452461,-0.34114275,9.77467419,0.004776,0.001488,0.004206,-39.667252,92.359116,-105.679565,60.187904,24.830416,29.089781,11.048143,0.0,243.516577,102.067192,-1.130913,3.108096,0.036024,1.988882
275310.442132,0.32527017,-0.35730963,9.76120506,0.003176,-0.000147,0.003216,-39.685638,92.221344,-105.805557,60.187904,24.830416,29.089781,11.048143,0.0,243.516577,102.067192,-1.130913,3.108116,0.036024,1.988907
275310.462116,0.32407335000000004,-0.35790804000000004,9.77512545,0.003156,-0.001039,0.003233,-39.836823,92.219147,-105.560791,60.187904,24.830416,29.089781,11.048143,0.0,243.516577,102.067192,-1.130913,3.108123,0.036039,1.988751
275310.4821,0.32991030000000005,-0.33829785,9.77317326,0.002704,-0.001252,0.002899,-39.517822,92.334122,-105.909302,60.187904,24.830416,29.089781,11.048143,0.0,243.516577,102.067192,-1.130913,3.108127,0.036049,1.988867
275310.502084,0.33050871,-0.34772526,9.78215922,0.002638,-0.001037,0.004371,-39.536194,92.483505,-106.029449,60.187904,24.830416,29.089781,11.048143,0.0,243.516577,102.067192,-1.130913,3.108123,0.036046,1.988941
275310.522068,0.32213097,-0.36599148000000004,9.775723860000001,0.00037,-0.000457,0.005621,-39.672348,92.315353,-105.896027,60.187904,24.830416,29.089781,11.048143,0.0,243.516577,102.067192,-1.130913,3.108115,0.036049,1.98908
275310.542052,0.320787,-0.34353639,9.78036399,0.002083,0.000381,0.003465,-40.256363,91.96228,-105.28688,60.187904,24.830416,29.089781,11.048143,0.0,243.516577,102.067192,-1.130913,3.108109,0.036056,1.988707
275310.562036,0.33739533,-0.35251254000000004,9.775419750000001,0.002451,0.0006,0.004544,-39.853302,92.309982,-105.565643,60.187904,24.830416,29.089781,11.048143,0.0,243.516577,102.067192,-1.130913,3.108116,0.036059,1.988565
275310.582019,0.34069149000000004,-0.34862778,9.77362452,0.002438,0.000213,0.002829,-39.61824,92.281662,-105.82811,60.187904,24.830416,29.089781,11.048143,0.0,243.516577,102.067192,-1.130913,3.108122,0.036053,1.988614
275310.602003,0.32586858,-0.33395202000000007,9.77452704,0.004545,-0.000242,0.0054,-39.624146,92.376038,-106.07811,60.187904,24.830416,29.089781,11.048143,0.0,243.516577,102.067192,-1.130913,3.108116,0.036055,1.988535
275310.621987,0.3270654,-0.36673704,9.768690090000002,0.004553,-0.000339,0.004521,-40.008102,92.094269,-105.464005,60.187904,24.830416,29.089781,11.048143,0.0,243.516577,102.067192,-1.130913,3.108102,0.036052,1.988532
275310.641971,0.31973733,-0.35611281,9.77632227,0.003526,-0.000307,0.003501,-39.601807,92.43045,-105.832138,60.187904,24.830416,29.089781,11.048143,0.0,243.516577,102.067192,-1.130913,3.1081,0.036047,1.988231
275310.681939,0.32736951,-0.3469797,9.77661657,0.002631,-0.001207,0.005573,-39.615814,92.214203,-105.87854,60.187904,24.830416,29.089781,11.048143,0.0,243.516577,102.067192,-1.130913,3.108098,0.036048,1.988209
275310.701923,0.30955455000000004,-0.34832367,9.77661657,0.001968,-0.000497,0.004288,-39.862442,92.090775,-105.656387,60.187904,24.830416,29.089781,11.048143,0.0,243.516577,102.067192,-1.130913,3.108093,0.036038,1.988189
275310.721907,0.32318064,-0.34772526,9.77003406,0.002946,-0.000357,0.004982,-39.897751,92.204681,-105.694229,60.187904,24.830416,29.089781,11.048143,0.0,243.516577,102.067192,-1.130913,3.108101,0.03604,1.988079
275310.741891,0.33186249,-0.35221824,9.75491685,0.002713,-4.2e-05,0.002266,-39.500977,92.513245,-106.085648,60.187904,24.830416,29.089781,11.048143,0.0,243.516577,102.067192,-1.130913,3.108103,0.036042,1.988062
275310.761875,0.32931189000000005,-0.34712685000000004,9.77482134,0.000785,-0.0001,0.004995,-39.718903,92.166519,-106.041031,60.187904,24.830416,29.089781,11.048143,0.0,243.516577,102.067192,-1.130913,3.108109,0.036034,1.988282
275310.761875,0.32931189000000005,-0.34712685000000004,9.77482134,0.000785,-0.0001,0.004995,-39.718903,92.166519,-106.041031,60.187904,24.830416,29.089781,11.048143,0.0,243.516577,102.067192,-1.130913,3.108109,0.036034,1.988282
275310.801843,0.32332779000000006,-0.34353639,9.774968490000001,0.004213,-0.000953,0.005477,-40.050751,92.088776,-105.462051,60.187904,24.830416,29.089781,11.048143,0.0,243.516577,102.067192,-1.130913,3.108126,0.036043,1.988174
275310.821827,0.32093415000000003,-0.35730963,9.774968490000001,0.003584,0.000287,0.003322,-39.985214,92.135605,-105.591827,60.187904,24.830416,29.089781,11.048143,0.0,243.516577,102.067192,-1.130913,3.108111,0.036052,1.987991
275310.841811,0.33200964,-0.34442910000000004,9.77333022,0.005139,-0.000693,0.003256,-39.601105,92.436996,-105.67276,60.187904,24.830416,29.089781,11.048143,0.0,243.516577,102.067192,-1.130913,3.108114,0.036063,1.987825
275310.861794,0.31734369000000007,-0.34906923,9.77737194,0.004451,-0.000252,0.003604,-39.632812,92.465118,-105.929306,60.187904,24.830416,29.089781,11.048143,0.0,243.516577,102.067192,-1.130913,3.108115,0.036045,1.987958
275310.881778,0.32856633,-0.34473321,9.78036399,0.002685,-0.00243,0.004415,-39.924194,92.403122,-105.454956,60.187904,24.830416,29.089781,11.048143,0.0,243.516577,102.067192,-1.130913,3.108115,0.036035,1.988081
275310.901762,0.32991030000000005,-0.34009308,9.77077962,0.003248,-0.000149,0.005582,-39.661896,92.252594,-105.947998,60.187904,24.830416,29.089781,11.048143,0.0,243.516577,102.067192,-1.130913,3.108109,0.036041,1.98803
275310.921746,0.33021441000000007,-0.34398765000000003,9.76809168,0.003304,0.000285,0.005307,-39.494095,92.550552,-106.057739,60.187904,24.830416,29.089781,11.048143,0.0,243.516577,102.067192,-1.130913,3.108108,0.036032,1.988037
275310.94173,0.33530580000000004,-0.35475903000000003,9.76898439,0.00265,0.00025,0.005102,-39.494095,92.550552,-106.057739,60.187904,24.830416,29.089781,11.048143,0.0,243.516577,102.067192,-1.130913,3.10812,0.036043,1.988159
275310.961714,0.32302368,-0.34174116,9.77063247,0.002935,-0.000823,0.005551,-39.644455,92.440323,-106.002045,60.187904,24.830416,29.089781,11.048143,0.0,243.516577,102.067192,-1.130913,3.108124,0.036034,1.988303
275310.981698,0.32467176000000003,-0.35176698,9.7607538,0.003293,0.000319,0.00474,-39.788727,92.35672,-105.666977,60.187904,24.830416,29.089781,11.048143,0.0,243.516577,102.067192,-1.130913,3.10812,0.036027,1.988328
275311.001682,0.329616,-0.35116857000000007,9.77856876,0.003768,0.000867,0.003232,-39.835281,92.034531,-105.543854,60.187904,24.830416,29.089781,11.048143,0.0,243.516577,102.067192,-1.130913,3.108118,0.036035,1.988179
275311.021666,0.33155838000000004,-0.34428195,9.77333022,0.004751,0.00011,0.004258,-39.848206,92.182419,-105.713928,60.187904,24.830416,29.089781,11.048143,0.0,243.516577,102.067192,-1.130913,3.108123,0.036042,1.988198
275311.04165,0.33050871,-0.35386632,9.77706783,0.00439,0.000125,0.004726,-39.601456,92.480438,-105.904861,60.187904,24.830416,29.089781,11.048143,0.0,243.516577,102.067192,-1.130913,3.108126,0.03604,1.988309
275311.061634,0.3153915,-0.34952049,9.760155390000001,0.003706,-0.000593,0.003084,-39.855087,92.390152,-105.632812,60.187904,24.830416,29.089781,11.048143,0.0,243.516577,102.067192,-1.130913,3.108126,0.036042,1.988376
275311.081618,0.33066567,-0.33964182000000004,9.77601816,0.003608,-0.001144,0.004711,-40.072586,92.078201,-105.10675,60.187904,24.830416,29.089781,11.048143,0.0,243.516577,102.067192,-1.130913,3.108113,0.036055,1.988191
275311.101602,0.31763799,-0.35131572,9.77257485,0.002713,-0.000435,0.004439,-39.868805,92.484619,-105.670685,60.187904,24.830416,29.089781,11.048143,0.0,243.516577,102.067192,-1.130913,3.108113,0.036062,1.988036
275311.121586,0.32423030999999997,-0.35431757999999997,9.780658290000002,0.003214,9.3e-05,0.006991,-39.665436,92.323242,-105.896393,60.187904,24.830416,29.089781,11.048143,0.0,243.516577,102.067192,-1.130913,3.108092,0.036069,1.988127
275311.14157,0.3270654,-0.35401347000000005,9.78605379,0.003751,-0.000119,0.002478,-39.591461,92.383316,-105.917419,60.187904,24.830416,29.089781,11.048143,0.0,243.516577,102.067192,-1.130913,3.108091,0.03607,1.988137
275311.161554,0.32153256,-0.35161983,9.77976558,0.00275,-0.000335,0.004246,-40.341187,92.03804,-105.323395,60.187904,24.830416,29.089781,11.048143,0.0,243.516577,102.067192,-1.130913,3.108083,0.036073,1.987939
275311.181537,0.3270654,-0.34233957,9.780962400000002,0.003675,9.8e-05,0.003585,-39.722961,92.225769,-105.879898,60.187904,24.830416,29.089781,11.048143,0.0,243.516577,102.067192,-1.130913,3.108081,0.036075,1.98769
275311.201521,0.32242527000000004,-0.35161983,9.77077962,0.004704,-0.000146,0.00426,-39.809906,92.25972,-105.406998,60.187904,24.830416,29.089781,11.048143,0.0,243.516577,102.067192,-1.130913,3.10807,0.036077,1.987592
275311.221505,0.31180104000000003,-0.35700552,9.78275763,0.004,0.000337,0.003641,-39.694351,92.202316,-105.503021,60.187904,24.830416,29.089781,11.048143,0.0,243.516577,102.067192,-1.130913,3.108067,0.036081,1.987654
275311.241489,0.31000581,-0.34219242000000005,9.780815250000002,0.002956,-0.000516,0.003241,-39.837616,92.090622,-105.283478,60.187904,24.830416,29.089781,11.003851,0.0,-1.0,102.067192,-1.130913,3.108059,0.036091,1.987517
275311.261473,0.32677110000000004,-0.35326791,9.771525180000001,0.004434,-0.000833,0.00475,-39.968506,92.097,-105.439163,60.187904,24.830416,29.089781,11.003851,0.0,-1.0,102.067192,-1.130913,3.108071,0.03609,1.987261
275311.281457,0.33410898,-0.35251254000000004,9.771378030000001,0.003386,-0.001252,0.003298,-39.365433,92.548981,-105.879623,60.187904,24.830416,29.089781,11.003851,0.0,-1.0,102.067192,-1.130913,3.10808,0.036094,1.987215
275311.301441,0.31239945,-0.36269532,9.7579089,0.00274,-0.000595,0.003766,-39.707962,92.379486,-105.832443,60.187904,24.830416,29.089781,11.003851,0.0,-1.0,102.067192,-1.130913,3.10808,0.036088,1.987457
275311.321425,0.3270654,-0.36269532,9.780815250000002,0.002016,-0.001115,0.004039,-39.811951,92.376511,-105.897858,60.187904,24.830416,29.089781,11.003851,0.0,-1.0,102.067192,-1.130913,3.108086,0.036093,1.987681
275311.361393,0.33335360999999997,-0.35042301000000003,9.76508982,0.002253,0.000265,0.005679,-40.118149,92.005661,-105.526184,60.187904,24.830416,29.089781,11.003851,0.0,-1.0,102.067192,-1.130913,3.108089,0.036103,1.987248
275311.361393,0.33335360999999997,-0.35042301000000003,9.76508982,0.002253,0.000265,0.005679,-40.118149,92.005661,-105.526184,60.187904,24.830416,29.089781,11.003851,0.0,-1.0,102.067192,-1.130913,3.108089,0.036103,1.987248
275311.401361,0.33380487000000003,-0.34009308,9.7724277,0.004642,0.001949,0.004156,-39.922653,92.337692,-105.591064,60.187904,24.830416,29.089781,11.003851,0.0,-1.0,102.067299,-1.141479,3.108067,0.036129,1.987183
275311.421345,0.32662395,-0.3529638,9.77422293,0.003803,0.001105,0.003657,-40.2668,92.057037,-105.586166,60.187904,24.830416,29.089781,11.003851,0.0,-1.0,102.067299,-1.141479,3.108071,0.036139,1.987166
275311.441329,0.32796792,-0.36164565000000004,9.76300029,0.00432,0.000391,0.004398,-40.065094,92.170853,-105.922852,60.187904,24.830416,29.089781,11.003851,0.0,-1.0,102.067299,-1.141479,3.108067,0.036143,1.986862
275311.461313,0.31134978,-0.34952049,9.76180347,0.004563,-0.001037,0.00419,-39.808945,92.390976,-106.172195,60.187904,24.830416,29.089781,11.003851,0.0,-1.0,102.067299,-1.141479,3.108068,0.036134,1.986705
275311.481297,0.33695388,-0.34293798000000003,9.77032836,0.004181,-0.001031,0.002968,-39.906204,92.27327,-106.007904,60.187904,24.830416,29.089781,11.003851,0.0,-1.0,102.067299,-1.141479,3.108053,0.036133,1.986698
275311.501281,0.32841918000000003,-0.35461188,9.77797035,0.003527,-0.000289,0.004384,-39.979935,92.330368,-105.725571,60.187904,24.830416,29.089781,11.003851,0.0,-1.0,102.067299,-1.141479,3.108042,0.036124,1.986754
275311.521265,0.31718673000000003,-0.36224406000000003,9.759704130000001,0.002223,-0.001998,0.004349,-40.049042,92.429672,-105.86467,60.187904,24.830416,29.089781,11.003851,0.0,-1.0,102.067299,-1.141479,3.108033,0.036139,1.986694
275311.541248,0.32841918000000003,-0.33605136,9.78529842,0.002544,7.4e-05,0.005619,-39.812454,92.393066,-106.098175,60.187904,24.830416,29.089781,11.003851,0.0,-1.0,102.067299,-1.141479,3.108031,0.036159,1.986719
275311.561232,0.33470739,-0.35042301000000003,9.763294590000001,0.000711,-0.000285,0.003645,-39.427368,92.559418,-106.157227,60.187904,24.830416,29.089781,11.003851,0.0,-1.0,102.067299,-1.141479,3.108033,0.036165,1.986792
275311.581216,0.32347494000000004,-0.35671122,9.78634809,0.00157,-0.000265,0.003879,-39.874878,92.323029,-105.955338,60.187904,24.830416,29.089781,11.003851,0.0,-1.0,102.067299,-1.141479,3.108033,0.036186,1.987078
275311.6012,0.31045707000000006,-0.35416062000000004,9.78185511,0.002575,0.000941,0.004479,-39.850327,92.298706,-105.624557,60.187904,24.830416,29.089781,11.003851,0.0,-1.0,102.067299,-1.141479,3.108036,0.036206,1.987125
275311.621184,0.32976315,-0.36164565000000004,9.77737194,0.00311,-0.000723,0.003748,-39.850327,92.298706,-105.624557,60.187904,24.830416,29.089781,11.003851,0.0,-1.0,102.067299,-1.141479,3.10804,0.036217,1.987127
275311.641168,0.32856633,-0.35939916000000005,9.77003406,0.003086,0.000285,0.002742,-39.637665,92.542374,-105.893173,60.187904,24.830416,29.089781,11.003851,0.0,-1.0,102.067299,-1.141479,3.108036,0.036216,1.987227
275311.641168,0.32856633,-0.35939916000000005,9.77003406,0.003086,0.000285,0.002742,-39.637665,92.542374,-105.893173,60.187904,24.830416,29.089781,11.003851,0.0,-1.0,102.067299,-1.141479,3.108036,0.036216,1.987227
275311.681137,0.33934752,-0.3583593,9.77661657,0.003875,-5.9e-05,0.002268,-39.4021,92.692947,-105.713562,60.187904,24.830416,29.089781,11.003851,0.0,-1.0,102.067299,-1.141479,3.108017,0.036219,1.987827
275311.701121,0.32662395,-0.35506314,9.77273181,0.003099,-0.000934,0.005072,-40.158188,92.083191,-105.159561,60.187904,24.830416,29.089781,11.003851,0.0,-1.0,102.067299,-1.141479,3.108018,0.036236,1.987879
275311.721105,0.31464594,-0.34847082,9.77976558,0.003381,-0.000654,0.003951,-39.477722,92.574799,-106.006348,60.187904,24.830416,29.089781,11.003851,0.0,-1.0,102.067299,-1.141479,3.108015,0.036242,1.987976
275311.741089,0.33231375,-0.34623414,9.790988220000001,0.001129,-0.000353,0.004341,-39.595886,92.371109,-105.797409,60.187904,24.830416,29.089781,11.003851,0.0,-1.0,102.067299,-1.141479,3.108014,0.036244,1.988098
275311.761073,0.33380487000000003,-0.35475903000000003,9.78455286,0.003794,-0.000285,0.003661,-39.457077,92.560059,-106.001801,60.187904,24.830416,29.089781,11.003851,0.0,-1.0,102.067299,-1.141479,3.10802,0.036274,1.988398
275311.781057,0.32452461,-0.34248672,9.77333022,0.00209,0.00036,0.003005,-39.67807,92.333664,-105.906036,60.187904,24.830416,29.089781,11.003851,0.0,-1.0,102.067299,-1.141479,3.108018,0.036263,1.988559
275311.801041,0.32557428000000005,-0.36823797,9.76688505,0.002192,-7.2e-05,0.005352,-39.692505,92.490204,-105.723068,60.187904,24.830416,29.089781,11.003851,0.0,-1.0,102.067299,-1.141479,3.108022,0.036274,1.98851
275311.821025,0.32318064,-0.34757811,9.764795520000002,0.002421,0.000213,0.005251,-39.189636,92.705048,-106.213242,60.187904,24.830416,29.089781,11.003851,0.0,-1.0,102.067299,-1.141479,3.108038,0.036291,1.988889
275311.841009,0.32827203,-0.34114275,9.77646942,0.00433,-0.000271,0.003484,-39.431946,92.559937,-106.036957,60.187904,24.830416,29.089781,11.003851,0.0,-1.0,102.067299,-1.141479,3.108046,0.036301,1.989334
275311.860993,0.32302368,-0.35311095000000003,9.77632227,0.006118,-0.001469,0.003899,-39.557129,92.474091,-106.195465,60.187904,24.830416,29.089781,11.003851,0.0,-1.0,102.067299,-1.141479,3.10807,0.036319,1.989659
275311.880977,0.32407335000000004,-0.35221824,9.77257485,0.004115,-0.000879,0.004282,-39.904694,92.003326,-105.829773,60.187904,24.830416,29.089781,11.003851,0.0,-1.0,102.067299,-1.141479,3.108072,0.036326,1.989387
275311.900961,0.32437746,-0.35506314,9.76568823,0.004196,-0.000493,0.003966,-39.469498,92.518402,-105.738159,60.187904,24.830416,29.089781,11.003851,0.0,-1.0,102.067299,-1.141479,3.108076,0.036335,1.989512
275311.920945,0.31763799,-0.3498246,9.759851280000001,0.002103,-0.001047,0.00345,-39.419525,92.547913,-106.077423,60.187904,24.830416,29.089781,11.003851,0.0,-1.0,102.067299,-1.141479,3.108068,0.036335,1.9898
275311.960913,0.33215679000000004,-0.32482872,9.771525180000001,0.003452,-0.000605,0.004109,-39.949631,92.201157,-105.412399,60.187904,24.830416,29.089781,11.003851,0.0,-1.0,102.067299,-1.141479,3.108075,0.036362,1.990165
275311.960913,0.33215679000000004,-0.32482872,9.771525180000001,0.003452,-0.000605,0.004109,-39.949631,92.201157,-105.412399,60.187904,24.830416,29.089781,11.003851,0.0,-1.0,102.067299,-1.141479,3.108075,0.036362,1.990165
275312.000881,0.31270356000000005,-0.35251254000000004,9.77317326,0.002974,5.3e-05,0.003703,-39.806076,92.285431,-105.589798,60.187904,24.830416,29.089781,11.003851,0.0,-1.0,102.067299,-1.141479,3.108063,0.03636,1.990449
275312.020865,0.32782077000000004,-0.34712685000000004,9.78036399,0.002945,-0.000113,0.003414,-39.491852,92.474915,-106.05394,60.187904,24.830416,29.089781,11.003851,0.0,-1.0,102.067299,-1.141479,3.108059,0.036357,1.990526
275312.040848,0.32287653,-0.34772526,9.77677353,0.004486,-0.000618,0.004082,-39.569626,92.330658,-105.589966,60.187904,24.830416,29.089781,11.003851,0.0,-1.0,102.067299,-1.141479,3.108069,0.036371,1.990715
275312.060832,0.32796792,-0.36867942,9.77092677,0.003465,5.6e-05,0.002685,-39.707458,92.463974,-105.917587,60.187904,24.830416,29.089781,11.003851,0.0,-1.0,102.067299,-1.141479,3.108077,0.036367,1.990717
275312.080816,0.32557428000000005,-0.35446473,9.774968490000001,0.004767,-0.000953,0.003671,-39.613922,92.458984,-105.949234,60.187904,24.830416,29.089781,11.003851,0.0,-1.0,102.067299,-1.141479,3.10807,0.03637,1.990923
275312.1008,0.32631984,-0.36299943,9.77632227,0.002838,-0.000556,0.003456,-39.110596,92.781586,-105.954025,60.187904,24.830416,29.089781,11.003851,0.0,-1.0,102.067299,-1.141479,3.108087,0.036385,1.991109
275312.120784,0.32497587,-0.3586536,9.77333022,0.003131,-0.002606,0.003345,-39.633347,92.445633,-105.860565,60.187904,24.830416,29.089781,11.003851,0.0,-1.0,102.067299,-1.141479,3.108106,0.036388,1.991531
275312.140768,0.33215679000000004,-0.35506314,9.7781175,0.004002,-0.001067,0.004249,-39.838684,92.255173,-105.808487,60.187904,24.830416,29.089781,11.003851,0.0,-1.0,102.067299,-1.141479,3.108104,0.036387,1.99176
275312.160752,0.33455043,-0.35895771,9.7695828,0.001831,-0.000169,0.00576,-39.557068,92.38884,-106.085495,60.187904,24.830416,29.089781,11.003851,0.0,-1.0,102.067299,-1.141479,3.108111,0.036394,1.991748
275312.20072,0.32258223,-0.34054434000000006,9.77797035,0.002862,0.000955,0.003314,-39.467316,92.467407,-106.06926,60.187904,24.830416,29.089781,11.003851,0.0,-1.0,102.067299,-1.141479,3.108118,0.036399,1.992112
275312.220704,0.33320646000000004,-0.34862778,9.771378030000001,0.003098,-0.001898,0.00263,-39.986832,92.241913,-105.342743,60.187904,24.830416,29.089781,11.003851,0.0,-1.0,102.067299,-1.141479,3.108139,0.036413,1.992193
275312.240688,0.32347494000000004,-0.3526695,9.76120506,0.003098,-0.001898,0.00263,-39.453003,92.662842,-106.074127,60.187904,24.830416,29.089781,9.055933,0.0,-1.0,102.067299,-1.141479,3.108139,0.036415,1.992134
275312.240688,0.32347494000000004,-0.3526695,9.76120506,0.003098,-0.001898,0.00263,-39.453003,92.662842,-106.074127,60.187904,24.830416,29.089781,9.055933,0.0,-1.0,102.067299,-1.141479,3.108139,0.036415,1.992134
275312.280656,0.32916474,-0.3501189,9.76149936,0.002721,-0.000841,0.002853,-39.606537,92.477737,-105.838516,60.187904,24.830416,29.089781,9.055933,0.0,-1.0,102.067299,-1.141479,3.108141,0.036422,1.992546
275312.30064,0.329616,-0.347274,9.77751909,0.004959,-0.00068,0.003941,-39.893295,92.259247,-105.861389,60.187904,24.830416,29.089781,9.055933,0.0,-1.0,102.067299,-1.141479,3.108155,0.036431,1.992704
275312.320624,0.33215679000000004,-0.35341506000000006,9.77422293,0.003913,-0.001093,0.00282,-39.893295,92.259247,-105.861389,60.187904,24.830416,29.089781,9.055933,0.0,-1.0,102.067299,-1.141479,3.108162,0.036428,1.99266
275312.340608,0.32722236,-0.35087427000000004,9.77347737,0.003516,-0.000758,0.004405,-39.971909,92.203598,-105.261398,60.187904,24.830416,29.089781,9.055933,0.0,-1.0,102.067299,-1.141479,3.108166,0.036426,1.992361
275312.360592,0.31658832000000003,-0.33664977,9.76209777,0.003466,-0.000621,0.004407,-39.713165,92.295822,-105.796005,60.187904,24.830416,29.089781,9.055933,0.0,-1.0,102.067299,-1.141479,3.108172,0.036426,1.99234
275312.380576,0.32766381,-0.35760393,9.771230880000001,0.002213,0.000245,0.003099,-39.695114,92.22258,-105.601883,60.187904,24.830416,29.089781,9.055933,0.0,-1.0,102.067299,-1.141479,3.108171,0.036427,1.992313
275312.380576,0.32766381,-0.35760393,9.771230880000001,0.002213,0.000245,0.003099,-39.695114,92.22258,-105.601883,60.187904,24.830416,29.089781,9.055933,0.0,-1.0,102.067299,-1.141479,3.108171,0.036427,1.992313
275312.420544,0.33275520000000003,-0.3409956,9.78261048,0.00294,-0.000671,0.003062,-39.860168,92.219269,-105.454697,60.187904,24.830416,29.089781,9.055933,0.0,-1.0,102.067299,-1.141479,3.108179,0.036421,1.992206
275312.440528,0.32272938,-0.35521029,9.765246780000002,0.002736,2.8e-05,0.004185,-39.523895,92.3815,-105.524002,60.187904,24.830416,29.089781,9.055933,0.0,-1.0,102.067299,-1.141479,3.108171,0.036417,1.992242
275312.460512,0.33021441000000007,-0.34607718,9.76809168,0.002629,0.000684,0.003746,-39.636078,92.448959,-105.79129,60.187904,24.830416,29.089781,9.055933,0.0,-1.0,102.067299,-1.141479,3.108174,0.036423,1.992293
275312.480496,0.31658832000000003,-0.34128990000000003,9.77856876,0.003886,-0.001207,0.004664,-39.519592,92.627411,-105.654266,60.187904,24.830416,29.089781,9.055933,0.0,-1.0,102.067299,-1.141479,3.108181,0.036433,1.992302
275312.50048,0.33260805,-0.34233957,9.77721498,0.003115,-0.001037,0.005876,-39.900436,92.327225,-105.536209,60.187904,24.830416,29.089781,9.055933,0.0,-1.0,102.067299,-1.141479,3.108198,0.036443,1.992242
275312.520464,0.32347494000000004,-0.35880075000000006,9.783954450000001,0.00407,-0.000893,0.006484,-39.571716,92.403564,-105.904907,60.187904,24.830416,29.089781,9.055933,0.0,-1.0,102.067299,-1.141479,3.108203,0.036439,1.992211
275312.560432,0.33440328,-0.35446473,9.76464837,0.004536,-0.000939,0.005176,-39.466461,92.477921,-105.723251,60.187904,24.830416,29.089781,9.055933,0.0,-1.0,102.067299,-1.141479,3.108206,0.036448,1.992682
275312.560432,0.33440328,-0.35446473,9.76464837,0.004536,-0.000939,0.005176,-39.466461,92.477921,-105.723251,60.187904,24.830416,29.089781,9.055933,0.0,-1.0,102.067299,-1.141479,3.108206,0.036448,1.992682
275312.6004,0.33829785,-0.36314658000000005,9.75865446,0.003168,-0.000395,0.00573,-39.54039,92.648544,-105.753296,60.187904,24.830416,29.089781,9.055933,0.0,-1.0,102.067299,-1.141479,3.10823,0.036442,1.992727
275312.620384,0.3239262,-0.35176698,9.76688505,0.001047,0.000236,0.003419,-39.800003,92.413116,-105.681564,60.187904,24.830416,29.089781,9.055933,0.0,-1.0,102.067299,-1.141479,3.108237,0.036456,1.992867
275312.640368,0.31703958,-0.3526695,9.772280550000001,0.002841,0.000967,0.0039,-39.623215,92.52124,-105.913498,60.187904,24.830416,29.089781,9.055933,0.0,-1.0,102.067299,-1.141479,3.108235,0.036456,1.992895
275312.660352,0.32811507,-0.34967745000000006,9.77063247,0.004272,0.002211,0.004261,-39.725037,92.514008,-105.378357,60.187904,24.830416,29.089781,9.055933,0.0,-1.0,102.067299,-1.141479,3.108239,0.036456,1.992901
275312.680336,0.31060422000000004,-0.35386632,9.77437008,0.003916,0.0003,0.004464,-40.058228,92.184265,-105.407593,60.187904,24.830416,29.089781,9.055933,0.0,-1.0,102.067299,-1.141479,3.108248,0.036447,1.992965
275312.70032,0.31598991,-0.36075294,9.765246780000002,0.003451,0.00117,0.004814,-39.429138,92.700974,-105.762894,60.187904,24.830416,29.089781,9.055933,0.0,-1.0,102.067299,-1.141479,3.108258,0.03646,1.992815
275312.720304,0.31749084,-0.34997175,9.76659075,0.004078,-0.000688,0.003736,-39.834335,92.359329,-105.573593,60.187904,24.830416,29.089781,9.055933,0.0,-1.0,102.067299,-1.141479,3.108276,0.036474,1.993122
275312.740288,0.32272938,-0.35461188,9.78649524,0.004078,-0.000688,0.003736,-39.557037,92.530762,-105.812927,60.187904,24.830416,29.089781,9.055933,0.0,-1.0,102.067299,-1.141479,3.108288,0.03648,1.993228
275312.760272,0.32796792,-0.34383069,9.77737194,0.004073,-0.001519,0.005468,-40.508652,92.130951,-104.89769,60.187904,24.830416,29.089781,9.055933,0.0,-1.0,102.067299,-1.141479,3.108294,0.036493,1.993287
275312.780256,0.31973733,-0.35910486,9.76733631,0.003558,0.000891,0.004055,-39.546936,92.449799,-105.767822,60.187904,24.830416,29.089781,9.055933,0.0,-1.0,102.067299,-1.141479,3.108301,0.036477,1.993022
275312.80024,0.32827203,-0.35790804000000004,9.78679935,0.002211,-0.001116,0.005658,-39.627441,92.572662,-105.918945,60.187904,24.830416,29.089781,9.055933,0.0,-1.0,102.067299,-1.141479,3.108304,0.036472,1.99316
275312.820224,0.33275520000000003,-0.34787241,9.775871010000001,0.001867,-0.000327,0.004046,-39.768204,92.431305,-105.134659,60.187904,24.830416,29.089781,9.055933,0.0,-1.0,102.067299,-1.141479,3.108313,0.036476,1.993431
275312.840207,0.32677110000000004,-0.34967745000000006,9.765246780000002,0.002703,0.000926,0.004492,-39.690292,92.490295,-105.222794,60.187904,24.830416,29.089781,9.055933,0.0,-1.0,102.067299,-1.141479,3.108312,0.036467,1.993584
275312.860191,0.3182364,-0.35760393,9.77617512,0.00199,0.00049,0.00348,-39.565186,92.559677,-105.355927,60.187904,24.830416,29.089781,9.055933,0.0,-1.0,102.067299,-1.141479,3.108313,0.036472,1.993542
275312.900159,0.31614687,-0.34847082,9.77362452,0.004347,0.001065,0.004437,-39.737579,92.471359,-105.510178,60.187904,24.830416,29.089781,9.055933,0.0,-1.0,102.067299,-1.141479,3.108312,0.036487,1.993951
275312.920143,0.31674527999999996,-0.36135135,9.77646942,0.003404,-0.000781,0.003033,-40.142487,92.143723,-104.913269,60.187904,24.830416,29.089781,9.055933,0.0,-1.0,102.067299,-1.141479,3.108307,0.0365,1.994011
275312.920143,0.31674527999999996,-0.36135135,9.77646942,0.003404,-0.000781,0.003033,-40.142487,92.143723,-104.913269,60.187904,24.830416,29.089781,9.055933,0.0,-1.0,102.067299,-1.141479,3.108307,0.0365,1.994011
275312.940127,0.31868766000000004,-0.3409956,9.77287896,0.002757,-0.000843,0.003882,-40.189774,92.166656,-105.058029,60.187904,24.830416,29.089781,9.055933,0.0,-1.0,102.067299,-1.141479,3.108325,0.036513,1.993717
275312.960111,0.31598991,-0.35939916000000005,9.76809168,0.00259,-7.6e-05,0.005249,-39.749664,92.149384,-105.089233,60.187904,24.830416,29.089781,9.055933,0.0,-1.0,102.067299,-1.141479,3.108336,0.03653,1.993447
275313.000079,0.32018859000000005,-0.33784659,9.783503190000001,0.00301,-0.001009,0.005889,-39.503906,92.350113,-105.760788,60.187904,24.830416,29.089781,9.055933,0.0,-1.0,102.067299,-1.141479,3.108344,0.03652,1.993488
275313.020063,0.33291216,-0.34533162,9.77302611,0.003801,-0.001322,0.005014,-39.817047,92.495331,-105.619278,60.187904,24.830416,29.089781,9.055933,0.0,-1.0,102.067299,-1.141479,3.108346,0.036507,1.993492
275313.040047,0.32796792,-0.3529638,9.775871010000001,0.003466,0.000213,0.002697,-40.019638,92.182129,-105.216431,60.187904,24.830416,29.089781,9.055933,0.0,-1.0,102.067299,-1.141479,3.108347,0.0365,1.993313
275313.060031,0.31598991,-0.35790804000000004,9.775723860000001,0.002526,0.000701,0.004114,-39.780701,92.53093,-105.447571,60.187904,24.830416,29.089781,9.055933,0.0,-1.0,102.067299,-1.141479,3.108357,0.036506,1.993232
275313.080015,0.33231375,-0.35356221,9.77032836,0.002893,0.000455,0.004157,-39.69075,92.44873,-105.712936,60.187904,24.830416,29.089781,9.055933,0.0,-1.0,102.067299,-1.141479,3.108351,0.036518,1.993331
275313.099999,0.32736951,-0.35595585,9.77856876,0.004884,-0.000754,0.003008,-39.627518,92.531311,-105.70755,60.187904,24.830416,29.089781,9.055933,0.0,-1.0,102.067299,-1.141479,3.108347,0.036528,1.993497
275313.119983,0.32542713,-0.35611281,9.7664436,0.003486,-0.001332,0.004197,-39.861069,92.305527,-105.777786,60.187904,24.830416,29.089781,9.055933,0.0,-1.0,102.067299,-1.141479,3.108329,0.036529,1.993602
275313.139967,0.32003163,-0.34937334000000003,9.77362452,0.003897,-0.000411,0.003992,-39.43338,92.775711,-105.539215,60.187904,24.830416,29.089781,9.055933,0.0,-1.0,102.067299,-1.141479,3.108328,0.03652,1.993621
275313.159951,0.32722236,-0.33978897,9.779010210000001,0.003172,-0.001514,0.004706,-39.591263,92.646606,-105.52417,60.187904,24.830416,29.089781,9.055933,0.0,-1.0,102.067299,-1.141479,3.108332,0.036505,1.993828
275313.179935,0.32856633,-0.3526695,9.77377167,0.003172,-0.001514,0.004706,-39.508636,92.497665,-105.646912,60.187904,24.830416,29.089781,9.055933,0.0,-1.0,102.067299,-1.141479,3.108324,0.036505,1.993952
275313.199919,0.30641535000000003,-0.34712685000000004,9.76764042,0.003421,-0.001303,0.005979,-39.683807,92.499405,-105.460358,60.187904,24.830416,29.089781,9.055933,0.0,-1.0,102.067299,-1.141479,3.108333,0.036511,1.993971
275313.219903,0.33200964,-0.35475903000000003,9.77692068,0.001386,6.9e-05,0.004943,-40.046844,92.308365,-105.358032,60.187904,24.830416,29.089781,9.055933,0.0,-1.0,102.067299,-1.141479,3.10834,0.036523,1.993834
275313.259871,0.32182686000000005,-0.35939916000000005,9.768238830000001,0.003713,0.000955,0.004629,-39.658051,92.466537,-105.625519,60.187904,24.830416,29.089781,8.995104,0.0,-1.0,102.067299,-1.141479,3.108318,0.036524,1.993935
275313.279855,0.33141123,-0.35027586000000005,9.77646942,0.002386,-0.001363,0.003213,-39.470612,92.72345,-105.527573,60.187904,24.830416,29.089781,8.995104,0.0,-1.0,102.067299,-1.141479,3.108336,0.036531,1.994013
275313.299839,0.33275520000000003,-0.35116857000000007,9.78934014,0.003963,-0.000514,0.004241,-39.841812,92.506577,-105.470901,60.187904,24.830416,29.089781,8.995104,0.0,-1.0,102.067299,-1.141479,3.108336,0.036534,1.99402
275313.319823,0.33425613,-0.35356221,9.77991273,0.003949,-0.001286,0.003661,-39.760483,92.679779,-105.407578,60.187904,24.830416,29.089781,8.995104,0.0,-1.0,102.067299,-1.141479,3.108325,0.036517,1.994177
275313.339807,0.32796792,-0.35236539,9.77362452,0.003798,2e-06,0.003167,-39.882034,92.469925,-105.810959,60.187904,24.830416,29.089781,8.995104,0.0,-1.0,102.067299,-1.141479,3.108323,0.036522,1.994298
