timestamp,time_rel,x,y,theta,vx,vy,accel_x,accel_y,accel_z,gyro_x,gyro_y,gyro_z
0.0,0.0,0.0,0.0,2.81409615339067,0.0,0.0,-9.4279986,-0.14818986,-2.69364942,0.011009,0.022216,0.004617
0.01998700003605336,0.01998700003605336,0.0,0.0,2.7263033050853203,0.0,0.0,-9.43233462,-0.23980545,-2.71924371,0.006935,-0.000348,0.003686
0.0399739999556914,0.0399739999556914,0.0,0.0,2.6560035204239636,0.0,0.0,-9.52125246,-0.23964849,-2.6846634600000003,-0.001753,0.001578,0.003886
0.05995999998413026,0.05995999998413026,0.0,0.0,2.5974231483616936,0.0,0.0,-9.41362695,-0.22872015,-2.76684183,0.001472,-0.003957,0.003308
0.07994700002018362,0.07994700002018362,0.0,0.0,2.5482390352999875,0.0,0.0,-9.46332441,-0.2257281,-2.70951219,0.005903,-0.004082,0.003882
0.09993400005623698,0.09993400005623698,0.0,0.0,2.506850117507158,0.0,0.0,-9.47708784,-0.26853894,-2.63556441,0.002198,0.005484,0.003453
0.11992099997587502,0.11992099997587502,0.0,0.0,2.471623283448169,0.0,0.0,-9.4049451,-0.20926692,-2.75157747,0.004379,0.002117,0.003231
0.15989400004036725,0.15989400004036725,0.0,0.0,2.4717728304958513,0.0,0.0,-9.45972414,-0.25327458,-2.68226982,0.001029,-0.001756,0.004182
0.15989400004036725,0.15989400004036725,0.0,0.0,2.4717832736578824,0.0,0.0,-9.45972414,-0.25327458,-2.68226982,0.001029,-0.001756,0.004182
0.19986799999605864,0.19986799999605864,0.0,0.0,2.4719357167910347,0.0,0.0,-9.46093077,-0.2430918,-2.66834943,0.002053,0.000246,0.004055
0.19986799999605864,0.19986799999605864,0.0,0.0,2.4719415254875203,0.0,0.0,-9.46093077,-0.2430918,-2.66834943,0.002053,0.000246,0.004055
0.23984100006055087,0.23984100006055087,0.0,0.0,2.472072878285622,0.0,0.0,-9.43353144,-0.2254338,-2.7559233,0.00429,-0.002273,0.002736
0.23984100006055087,0.23984100006055087,0.0,0.0,2.4720596466658744,0.0,0.0,-9.43353144,-0.2254338,-2.7559233,0.00429,-0.002273,0.002736
0.27981500001624227,0.27981500001624227,0.0,0.0,2.472212105443221,0.0,0.0,-9.4453623,-0.24249339,-2.69350227,0.003483,0.00108,0.004239
0.27981500001624227,0.27981500001624227,0.0,0.0,2.472222268283941,0.0,0.0,-9.4453623,-0.24249339,-2.69350227,0.003483,0.00108,0.004239
0.31978799996431917,0.31978799996431917,0.0,0.0,2.4723763850404072,0.0,0.0,-9.46376586,-0.2456424,-2.68870518,0.000811,0.001313,0.004092
0.33977500000037253,0.33977500000037253,0.0,0.0,2.472464526812682,0.0,0.0,-9.45583938,-0.22273605,-2.70742266,0.005401,-0.000739,0.0045
0.3597620000364259,0.3597620000364259,0.0,0.0,2.4725443560524143,0.0,0.0,-9.43592508,-0.21046374,-2.71984212,0.00401,-0.002713,0.004015
0.3797489999560639,0.3797489999560639,0.0,0.0,2.472622742946063,0.0,0.0,-9.47349738,-0.23755896,-2.68212267,0.001881,0.002135,0.00393
0.3997349999845028,0.3997349999845028,0.0,0.0,2.472721897111599,0.0,0.0,-9.4598811,-0.24354306,-2.7129555000000005,0.003329,-0.002369,0.00511
0.3997349999845028,0.3997349999845028,0.0,0.0,2.4727384848855785,0.0,0.0,-9.4598811,-0.24354306,-2.7129555000000005,0.003329,-0.002369,0.00511
0.3997349999845028,0.3997349999845028,0.0,0.0,2.472751537309824,0.0,0.0,-9.4598811,-0.24354306,-2.7129555000000005,0.003329,-0.002369,0.00511
0.45969599997624755,0.45969599997624755,0.0,0.0,2.472978877485814,0.0,0.0,-9.446255010000002,-0.22737618,-2.71520199,0.00365,-0.001135,0.002622
0.4796820000046864,0.4796820000046864,0.0,0.0,2.473063977251936,0.0,0.0,-9.44685342,-0.22393287,-2.7243351,0.002427,0.001811,0.004292
0.4996690000407398,0.4996690000407398,0.0,0.0,2.4731580281731897,0.0,0.0,-9.46332441,-0.23980545,-2.68900929,0.003265,-9.3e-05,0.004801
0.5196559999603778,0.5196559999603778,0.0,0.0,2.473256644479564,0.0,0.0,-9.45254322,-0.21330864,-2.7184981500000003,0.00344,-0.001643,0.005048
0.5396429999964312,0.5396429999964312,0.0,0.0,2.4733394469302015,0.0,0.0,-9.4453623,-0.2282787,-2.7039793500000004,0.002671,0.001411,0.004121
0.55962900002487,0.55962900002487,0.0,0.0,2.4734205676653414,0.0,0.0,-9.45897858,-0.2282787,-2.69214849,0.004332,-0.00081,0.004028
0.5796160000609234,0.5796160000609234,0.0,0.0,2.473512136836602,0.0,0.0,-9.44460693,-0.23036823,-2.71445643,0.000329,5.3e-05,0.004633
0.5996029999805614,0.5996029999805614,0.0,0.0,2.4735630265094386,0.0,0.0,-9.45074799,-0.22722903,-2.70502902,0.003642,-6.2e-05,0.002287
0.6195900000166148,0.6195900000166148,0.0,0.0,2.473644334487057,0.0,0.0,-9.42680178,-0.16390548,-2.721195900000001,-0.001232,-0.008781,0.004075
0.6395770000526682,0.6395770000526682,0.0,0.0,2.473763368560741,0.0,0.0,-9.489811410000002,-0.22034241,-2.66970321,-0.003017,-0.001077,0.006243
0.6595629999646917,0.6595629999646917,0.0,0.0,2.473865329213621,0.0,0.0,-9.45269037,-0.20327301,-2.72223576,0.008812,0.007552,0.005218
0.6795500000007451,0.6795500000007451,0.0,0.0,2.4740127518829365,0.0,0.0,-9.38039067,-0.23516532,-2.75996502,0.00598,-0.002698,0.007815
0.6995370000367984,0.6995370000367984,0.0,0.0,2.4741428819949425,0.0,0.0,-9.52214517,-0.19444401,-2.64993606,3.7e-05,0.000463,0.006754
0.7195239999564365,0.7195239999564365,0.0,0.0,2.474223925022674,0.0,0.0,-9.446255010000002,-0.25686504,-2.68482042,0.000201,0.000108,0.003893
0.7395099999848753,0.7395099999848753,0.0,0.0,2.4742921842125405,0.0,0.0,-9.43323714,-0.19414971,-2.7276312600000003,0.004247,0.004733,0.003182
0.7594970000209287,0.7594970000209287,0.0,0.0,2.474443912395646,0.0,0.0,-9.39131901,-0.38036313,-2.67164559,0.000111,0.005316,0.008021
0.779484000056982,0.779484000056982,0.0,0.0,2.4746910106736397,0.0,0.0,-9.51302187,-0.18427104,-2.7268758900000005,0.016504,0.007824,0.013446
0.7994709999766201,0.7994709999766201,0.0,0.0,2.4747544973438647,0.0,0.0,-9.40898682,-0.23830452,-2.79993096,0.012235,-0.006001,0.002712
0.8394440000411123,0.8394440000411123,0.0,0.0,2.475107357656782,0.0,0.0,-9.39131901,-0.44382402,-2.75652171,0.036158,0.000404,0.012073
0.8594309999607503,0.8594309999607503,0.0,0.0,2.4750115660887397,0.0,0.0,-9.37979226,-0.5029587000000001,-2.68257393,0.017685,-0.026955,-0.005344
0.8794179999968037,0.8794179999968037,0.0,0.0,2.475019164419086,0.0,0.0,-9.44311581,-0.4975632,-2.6984367,-0.013769,-0.007557,0.000104
0.8994050000328571,0.8994050000328571,0.0,0.0,2.4748978181344867,0.0,0.0,-9.545797080000002,-0.38065743,-2.55473982,-0.04606,0.000359,-0.006804
0.9193910000612959,0.9193910000612959,0.0,0.0,2.47464265957192,0.0,0.0,-9.5321808,-0.30641535,-2.63422044,-0.051814,0.011995,-0.014012
0.9193910000612959,0.9193910000612959,0.0,0.0,2.4744066071592083,0.0,0.0,-9.5321808,-0.30641535,-2.63422044,-0.051814,0.011995,-0.014012
0.9593650000169873,0.9593650000169873,0.0,0.0,2.474361949905118,0.0,0.0,-9.43443396,-0.29788065,-2.73107457,-0.041085,0.01249,-0.000952
0.9593650000169873,0.9593650000169873,0.0,0.0,2.4743661191379918,0.0,0.0,-9.43443396,-0.29788065,-2.73107457,-0.041085,0.01249,-0.000952
0.9793520000530407,0.9793520000530407,0.0,0.0,2.4741347306933426,0.0,0.0,-9.40135464,-0.23545962,-2.65607712,-0.066926,0.001898,-0.014073
0.9793520000530407,0.9793520000530407,0.0,0.0,2.473972707069038,0.0,0.0,-9.40135464,-0.23545962,-2.65607712,-0.066926,0.001898,-0.014073
1.039312000037171,1.039312000037171,0.0,0.0,2.4739434927172077,0.0,0.0,-9.4516407,-0.21450546,-3.1763995200000004,0.006428,-0.033686,0.007814
1.059298999956809,1.059298999956809,0.0,0.0,2.4743702443707365,0.0,0.0,-9.72782163,-0.07139718,-2.68736121,0.005485,-0.012096,0.024178
1.0792859999928623,1.0792859999928623,0.0,0.0,2.4743337995358488,0.0,0.0,-9.67842828,-0.27273762,-2.63332773,-0.008677,-0.002293,-0.002225
1.0992720000213012,1.0992720000213012,0.0,0.0,2.4743743701081424,0.0,0.0,-9.28159416,-0.25626663,-2.9773055700000004,0.014957,-0.015992,0.002166
1.1192590000573546,1.1192590000573546,0.0,0.0,2.4744479446913417,0.0,0.0,-9.26812503,-0.03398184,-2.80142208,0.011268,-0.051714,0.00401
1.1192590000573546,1.1192590000573546,0.0,0.0,2.4744870067466174,0.0,0.0,-9.26812503,-0.03398184,-2.80142208,0.011268,-0.051714,0.00401
1.159233000013046,1.159233000013046,0.0,0.0,2.474118402685262,0.0,0.0,-9.327406860000002,0.2630061,-2.5038455400000004,-0.088876,-0.155124,-0.023272
1.1792200000490993,1.1792200000490993,0.0,0.0,2.473456542045489,0.0,0.0,-9.33803109,0.07499745,-2.62539144,-0.146406,-0.239241,-0.037464
1.1992059999611229,1.1992059999611229,0.0,0.0,2.4722793580090645,0.0,0.0,-9.13206033,-0.09071307,-2.6661029400000005,-0.201708,-0.328383,-0.066197
1.1992059999611229,1.1992059999611229,0.0,0.0,2.471481760925018,0.0,0.0,-9.13206033,-0.09071307,-2.6661029400000005,-0.201708,-0.328383,-0.066197
1.2391800000332296,1.2391800000332296,0.0,0.0,2.47009610466604,0.0,0.0,-9.38608047,-0.36090009,-2.90785077,-0.275377,-0.391758,-0.05267
1.2591669999528676,1.2591669999528676,0.0,0.0,2.469199595886087,0.0,0.0,-9.31947057,-0.31898196,-2.7981357300000003,-0.27006,-0.474329,-0.047738
1.279153999988921,1.279153999988921,0.0,0.0,2.46798894102054,0.0,0.0,-9.2085489,-0.36898353,-2.75636475,-0.295041,-0.627621,-0.065307
1.2991400000173599,1.2991400000173599,0.0,0.0,2.466938849582492,0.0,0.0,-9.22097817,0.00628821,-2.6746376400000003,-0.261558,-0.72854,-0.055375
1.3191270000534132,1.3191270000534132,0.0,0.0,2.4660924788870364,0.0,0.0,-9.28668555,-0.14759145,-2.10896361,-0.291339,-0.82714,-0.043254
1.3391139999730512,1.3391139999730512,0.0,0.0,2.465214104609614,0.0,0.0,-9.25360623,-0.18681183,-2.64125421,-0.259685,-0.939532,-0.044954
1.3591010000091046,1.3591010000091046,0.0,0.0,2.4645120974481323,0.0,0.0,-8.82759717,-0.39787398,-2.35819647,-0.264395,-1.094989,-0.034676
1.379088000045158,1.379088000045158,0.0,0.0,2.464130368880088,0.0,0.0,-8.98521444,-0.11496339,-1.9871136,-0.265319,-1.238576,-0.016347
1.3990739999571815,1.3990739999571815,0.0,0.0,2.463922813012834,0.0,0.0,-9.19298043,-0.08157996,-1.4468867100000002,-0.278392,-1.322081,-0.006754
1.4190609999932349,1.4190609999932349,0.0,0.0,2.4641136834336823,0.0,0.0,-9.17786322,-0.18695898,-1.12012542,-0.293327,-1.48143,0.015603
1.4390480000292882,1.4390480000292882,0.0,0.0,2.464682187755267,0.0,0.0,-9.19582533,-0.41194152,-0.88914897,-0.322677,-1.555688,0.036406
1.4790219999849796,1.4790219999849796,0.0,0.0,2.466097835125881,0.0,0.0,-9.62962353,-0.55489284,-0.12917808,-0.295962,-1.593431,0.091162
1.4790219999849796,1.4790219999849796,0.0,0.0,2.4676526226213262,0.0,0.0,-9.62962353,-0.55489284,-0.12917808,-0.295962,-1.593431,0.091162
1.5189950000494719,1.5189950000494719,0.0,0.0,2.479437403384024,0.0,0.0,-13.25343753,0.00059841,2.28230631,-0.099601,-1.149212,0.613949
1.5189950000494719,1.5189950000494719,0.0,0.0,2.4879359928835125,0.0,0.0,-13.25343753,0.00059841,2.28230631,-0.099601,-1.149212,0.613949
1.5589690000051633,1.5589690000051633,0.0,0.0,2.4921471251382705,0.0,0.0,-10.69436169,0.10328949,-0.18576216,-0.041652,-0.581716,0.038579
1.5789560000412166,1.5789560000412166,0.0,0.0,2.4925938747788843,0.0,0.0,-10.63478556,0.3930867,0.24354306,-0.010614,-0.44987,0.011078
1.5989419999532402,1.5989419999532402,0.0,0.0,2.493090396515294,0.0,0.0,-10.1456001,0.17198892,0.42750999,0.00372,-0.417235,0.014835
1.5989419999532402,1.5989419999532402,0.0,0.0,2.4915548242445595,0.0,0.0,-10.1456001,0.17198892,0.42750999,0.00372,-0.417235,0.014835
1.6389160000253469,1.6389160000253469,0.0,0.0,2.494185516293454,0.0,0.0,-9.69338853,0.14160735,0.78481962,-0.007149,-0.514298,0.024723
1.6589030000614002,1.6589030000614002,0.0,0.0,2.495106705800544,0.0,0.0,-9.58546872,-0.1679472,0.8689403700000001,-0.055631,-0.652415,0.041024
1.6788899999810383,1.6788899999810383,0.0,0.0,2.4961800397236704,0.0,0.0,-9.55897191,-0.1764819,0.8385588,-0.091586,-0.787537,0.050206
1.6988760000094771,1.6988760000094771,0.0,0.0,2.4971797829828724,0.0,0.0,-9.73275606,0.03008727,0.90531585,-0.088184,-0.862072,0.046517
1.7188630000455305,1.7188630000455305,0.0,0.0,2.4980107782771297,0.0,0.0,-9.71899263,0.07244685,1.0553009400000002,-0.053998,-0.913154,0.037445
1.7188630000455305,1.7188630000455305,0.0,0.0,2.4975193488792575,0.0,0.0,-9.71899263,0.07244685,1.0553009400000002,-0.053998,-0.913154,0.037445
1.758837000001222,1.758837000001222,0.0,0.0,2.4992234444635306,0.0,0.0,-9.62722989,-0.10568313,1.40961852,0.019363,-1.029014,0.013853
1.7788240000372753,1.7788240000372753,0.0,0.0,2.499523652659712,0.0,0.0,-9.50329035,-0.12424365,1.7610912000000003,0.045594,-1.076813,0.009021
1.7988109999569133,1.7988109999569133,0.0,0.0,2.4997739164231962,0.0,0.0,-9.41721741,-0.23920704,2.01496419,0.042524,-1.144667,0.007054
1.7988109999569133,1.7988109999569133,0.0,0.0,2.499179032228014,0.0,0.0,-9.41721741,-0.23920704,2.01496419,0.042524,-1.144667,0.007054
1.8387840000214055,1.8387840000214055,0.0,0.0,2.499842307883119,0.0,0.0,-9.18145368,0.17124336,2.70053604,0.116133,-1.200541,-0.014967
1.8587710000574589,1.8587710000574589,0.0,0.0,2.5009338116171635,0.0,0.0,-9.83410317,0.57914316,2.94752241,0.148845,-1.08301,0.057733
1.878757999977097,1.878757999977097,0.0,0.0,2.499520247401575,0.0,0.0,-9.54519867,0.11032326,2.65697964,0.172112,-1.084351,-0.086491
1.8987450000131503,1.8987450000131503,0.0,0.0,2.4997482921508007,0.0,0.0,-9.99126918,0.0378666,3.2527311300000004,0.1753,-0.965472,0.010136
1.9187310000415891,1.9187310000415891,0.0,0.0,2.498569352020878,0.0,0.0,-8.24664897,0.1583726399999999,3.77290638,0.150767,-0.882562,-0.070439
1.9187310000415891,1.9187310000415891,0.0,0.0,2.4973814360989746,0.0,0.0,-8.24664897,0.1583726399999999,3.77290638,0.150767,-0.882562,-0.070439
1.9587049999972805,1.9587049999972805,0.0,0.0,2.496689879349325,0.0,0.0,-8.541537570000001,0.22632651,4.000733820000001,0.152269,-0.890818,-0.036951
1.978692000033334,1.978692000033334,0.0,0.0,2.4972447364457526,0.0,0.0,-9.14088933,0.31434183,4.62493431,0.140874,-0.819383,0.033035
1.998678999952972,1.998678999952972,0.0,0.0,2.4972000822545057,0.0,0.0,-8.40382479,-0.28620675,4.90964013,0.091491,-0.821571,-0.002335
2.0186659999890253,2.0186659999890253,0.0,0.0,2.497675648043524,0.0,0.0,-8.438699340000001,-0.54022689,5.038072650000001,0.047931,-0.803208,0.027639
2.038652000017464,2.038652000017464,0.0,0.0,2.498168984010629,0.0,0.0,-8.8066332,-0.5089428,4.73660154,0.017867,-0.76921,0.028067
2.0586390000535175,2.0586390000535175,0.0,0.0,2.4990047412719747,0.0,0.0,-8.422983720000001,0.01616688,4.69768527,0.005525,-0.769477,0.047261
2.0786259999731556,2.0786259999731556,0.0,0.0,2.4996804586805403,0.0,0.0,-8.546177700000001,0.22048956,4.724623530000001,0.011614,-0.77698,0.037214
2.098613000009209,2.098613000009209,0.0,0.0,2.500439013726594,0.0,0.0,-8.44034742,0.09894366,4.67568144,0.011885,-0.812623,0.041464
2.1186000000452623,2.1186000000452623,0.0,0.0,2.5012409196930445,0.0,0.0,-8.382870630000001,0.11346246,4.80904839,0.009008,-0.867409,0.043426
2.1186000000452623,2.1186000000452623,0.0,0.0,2.501576741661758,0.0,0.0,-8.382870630000001,0.11346246,4.80904839,0.009008,-0.867409,0.043426
2.1385869999649003,2.1385869999649003,0.0,0.0,2.5022886111035323,0.0,0.0,-8.316103770000002,0.20462679,4.94721243,0.019137,-0.905706,0.038907
2.158572999993339,2.158572999993339,0.0,0.0,2.5030134190477966,0.0,0.0,-8.18991774,0.23845167,5.13791883,0.032954,-0.930308,0.039066
2.158572999993339,2.158572999993339,0.0,0.0,2.5031756169252564,0.0,0.0,-8.18991774,0.23845167,5.13791883,0.032954,-0.930308,0.039066
2.158572999993339,2.158572999993339,0.0,0.0,2.503305787098414,0.0,0.0,-8.18991774,0.23845167,5.13791883,0.032954,-0.930308,0.039066
2.2385210000211373,2.2385210000211373,0.0,0.0,2.5057768746535007,0.0,0.0,-7.53039144,0.11465928,6.13184841,0.059434,-0.941249,0.034958
2.2585080000571907,2.2585080000571907,0.0,0.0,2.50603563424127,0.0,0.0,-7.97361705,-0.02575125,5.930517780000001,0.091712,-0.953448,0.010387
2.278493999969214,2.278493999969214,0.0,0.0,2.5065586042022288,0.0,0.0,-7.21768788,0.03697389,6.07586274,0.077737,-1.033169,0.025959
2.318468000041321,2.318468000041321,0.0,0.0,2.507155300085225,0.0,0.0,-6.4204488,0.8541272700000001,6.5848055400000005,0.236137,-0.949083,0.001982
2.318468000041321,2.318468000041321,0.0,0.0,2.5067908551067735,0.0,0.0,-6.4204488,0.8541272700000001,6.5848055400000005,0.236137,-0.949083,0.001982
2.3584419999970123,2.3584419999970123,0.0,0.0,2.5066038556608063,0.0,0.0,-7.1757795600000005,0.17244018,6.4173096,0.26526,-1.046389,-0.032512
2.3784290000330657,2.3784290000330657,0.0,0.0,2.506774760045257,0.0,0.0,-6.4436494500000006,0.5601313800000001,6.82909416,0.256721,-1.112094,0.008291
2.3984150000615045,2.3984150000615045,0.0,0.0,2.507555909606893,0.0,0.0,-6.22165896,0.46118772,6.68554443,0.243192,-1.25206,0.04104
2.3984150000615045,2.3984150000615045,0.0,0.0,2.5079623700323346,0.0,0.0,-6.22165896,0.46118772,6.68554443,0.243192,-1.25206,0.04104
2.4184019999811426,2.4184019999811426,0.0,0.0,2.5092731397638817,0.0,0.0,-6.3141672600000005,0.6354329400000001,5.79130407,0.285775,-1.337963,0.075564
2.4583760000532493,2.4583760000532493,0.0,0.0,2.5114453093559526,0.0,0.0,-5.61168297,0.63198963,7.17068817,0.340864,-1.53481,0.087179
2.4783629999728873,2.4783629999728873,0.0,0.0,2.513937346297131,0.0,0.0,-5.16157074,0.26465418,7.665406470000001,0.315502,-1.631266,0.133018
2.4783629999728873,2.4783629999728873,0.0,0.0,2.5152923793104867,0.0,0.0,-5.16157074,0.26465418,7.665406470000001,0.315502,-1.631266,0.133018
2.4983500000089407,2.4983500000089407,0.0,0.0,2.5206518081230005,0.0,0.0,-4.0300657200000005,-0.00837774,8.09516295,0.257263,-1.716314,0.317177
2.5383229999570176,2.5383229999570176,0.0,0.0,2.5308821459468076,0.0,0.0,-4.645290060000001,0.8906499,8.49334104,0.212056,-1.784055,0.453524
2.558309999993071,2.558309999993071,0.0,0.0,2.5407309174705563,0.0,0.0,-4.06959021,1.42653096,8.28945981,0.269071,-1.68208,0.529572
2.5782970000291243,2.5782970000291243,0.0,0.0,2.5496077010271847,0.0,0.0,-4.18454379,1.4293758600000002,9.37575054,0.24846,-1.650296,0.471466
2.5982839999487624,2.5982839999487624,0.0,0.0,2.557190113081184,0.0,0.0,-4.05387459,1.34690319,9.55148688,0.216038,-1.569604,0.396091
2.5982839999487624,2.5982839999487624,0.0,0.0,2.559403513949664,0.0,0.0,-4.05387459,1.34690319,9.55148688,0.216038,-1.569604,0.396091
2.6382570000132546,2.6382570000132546,0.0,0.0,2.5690813795328395,0.0,0.0,-3.37068657,1.16981307,10.31954121,0.038633,-1.495477,0.203844
2.658244000049308,2.658244000049308,0.0,0.0,2.573039351126729,0.0,0.0,-3.33087759,1.27998918,9.83978316,0.005634,-1.397925,0.189591
2.678230999968946,2.678230999968946,0.0,0.0,2.577342492298607,0.0,0.0,-2.80321731,1.3961493900000002,9.49026267,0.022417,-1.273983,0.210307
2.6982180000049993,2.6982180000049993,0.0,0.0,2.582323412625061,0.0,0.0,-2.66550453,1.4272863300000005,9.39700881,0.071561,-1.178494,0.249455
2.7182050000410527,2.7182050000410527,0.0,0.0,2.5879764496334197,0.0,0.0,-1.87874253,1.43626248,9.45089514,0.088441,-1.105526,0.28762
2.7381919999606907,2.7381919999606907,0.0,0.0,2.593854771990329,0.0,0.0,-1.7794947600000002,1.7860870800000002,9.7490799,0.118531,-0.966609,0.299772
2.758178999996744,2.758178999996744,0.0,0.0,2.5946783621446547,0.0,0.0,-3.4955286300000004,1.02941235,11.31736536,-0.040003,-0.967567,0.01082
2.758178999996744,2.758178999996744,0.0,0.0,2.591342578841017,0.0,0.0,-3.4955286300000004,1.02941235,11.31736536,-0.040003,-0.967567,0.01082
2.758178999996744,2.758178999996744,0.0,0.0,2.58870678809655,0.0,0.0,-3.4955286300000004,1.02941235,11.31736536,-0.040003,-0.967567,0.01082
2.758178999996744,2.758178999996744,0.0,0.0,2.586571579078961,0.0,0.0,-3.4955286300000004,1.02941235,11.31736536,-0.040003,-0.967567,0.01082
2.758178999996744,2.758178999996744,0.0,0.0,2.584806715312297,0.0,0.0,-3.4955286300000004,1.02941235,11.31736536,-0.040003,-0.967567,0.01082
2.758178999996744,2.758178999996744,0.0,0.0,2.5833235331890254,0.0,0.0,-3.4955286300000004,1.02941235,11.31736536,-0.040003,-0.967567,0.01082
2.758178999996744,2.758178999996744,0.0,0.0,2.582059579785927,0.0,0.0,-3.4955286300000004,1.02941235,11.31736536,-0.040003,-0.967567,0.01082
2.758178999996744,2.758178999996744,0.0,0.0,2.5809695939234496,0.0,0.0,-3.4955286300000004,1.02941235,11.31736536,-0.040003,-0.967567,0.01082
2.758178999996744,2.758178999996744,0.0,0.0,2.580019971479449,0.0,0.0,-3.4955286300000004,1.02941235,11.31736536,-0.040003,-0.967567,0.01082
2.758178999996744,2.758178999996744,0.0,0.0,2.5791852395527766,0.0,0.0,-3.4955286300000004,1.02941235,11.31736536,-0.040003,-0.967567,0.01082
2.758178999996744,2.758178999996744,0.0,0.0,2.578445737353592,0.0,0.0,-3.4955286300000004,1.02941235,11.31736536,-0.040003,-0.967567,0.01082
2.758178999996744,2.758178999996744,0.0,0.0,2.5777860479827295,0.0,0.0,-3.4955286300000004,1.02941235,11.31736536,-0.040003,-0.967567,0.01082
2.758178999996744,2.758178999996744,0.0,0.0,2.577193911976817,0.0,0.0,-3.4955286300000004,1.02941235,11.31736536,-0.040003,-0.967567,0.01082
2.758178999996744,2.758178999996744,0.0,0.0,2.5766594583614353,0.0,0.0,-3.4955286300000004,1.02941235,11.31736536,-0.040003,-0.967567,0.01082
2.8381260000169277,2.8381260000169277,0.0,0.0,2.5810238916945814,0.0,0.0,-1.58370678,0.72404667,10.745403120000002,-0.001374,-0.47867,-0.218056
2.9180730000371113,2.9180730000371113,0.0,0.0,2.5807562783705134,0.0,0.0,-0.98046045,0.77972823,6.03754488,-0.017354,-0.143936,-0.248826
3.0379940000129864,3.0379940000129864,0.0,0.0,2.4717150465855084,0.0,0.0,-0.6723970200000001,0.95381649,9.25855047,-0.17295,-0.354823,-0.199353
3.1179420000407845,3.1179420000407845,0.0,0.0,2.4664915671879646,0.0,0.0,-0.7289811,0.46822149,10.16955612,-0.342514,-0.635296,-0.107396
3.1379289999604225,3.1379289999604225,0.0,0.0,2.464098831240052,0.0,0.0,-0.6649218000000001,0.7324244100000001,9.57633561,-0.348418,-0.674079,-0.09859
3.157915999996476,3.157915999996476,0.0,0.0,2.461732899817447,0.0,0.0,-0.40894947,0.7414103700000001,9.86703534,-0.356464,-0.715959,-0.103288
3.1779020000249147,3.1779020000249147,0.0,0.0,2.4592190496891266,0.0,0.0,-0.09894366,1.03494519,9.63052605,-0.344815,-0.722884,-0.113144
3.197889000060968,3.197889000060968,0.0,0.0,2.4573296201997117,0.0,0.0,0.36763956,0.6009998400000001,9.56451456,-0.320071,-0.689466,-0.09121
3.217875999980606,3.217875999980606,0.0,0.0,2.4563312472620584,0.0,0.0,0.40655583,0.45295713,10.02075804,-0.303519,-0.664968,-0.054259
3.2378630000166595,3.2378630000166595,0.0,0.0,2.455168550093976,0.0,0.0,-1.88113617,1.56409659,9.51302187,0.134466,0.519202,-0.060163
3.257850000052713,3.257850000052713,0.0,0.0,2.4539908735901967,0.0,0.0,1.2088863,-0.3788622,6.6524651100000005,0.134466,0.519202,-0.060163
3.277836999972351,3.277836999972351,0.0,0.0,2.3133552455365347,0.0,0.0,1.24990191,-0.09774684,9.74293884,0.038592,0.194377,-0.081769
3.2978240000084043,3.2978240000084043,0.0,0.0,2.310672934818122,0.0,0.0,-0.40999914,-0.17812998,11.5309683,0.013939,0.055519,-0.132919
3.317810000036843,3.317810000036843,0.0,0.0,2.3070934312979983,0.0,0.0,-0.06316659,-0.21450546,10.80693144,0.014881,0.005171,-0.178977
3.337796999956481,3.337796999956481,0.0,0.0,2.3021277702802756,0.0,0.0,-0.44157753,-0.5897772,10.56892122,-0.002399,0.005903,-0.250987
3.3577839999925345,3.3577839999925345,0.0,0.0,2.296596743320432,0.0,0.0,0.04235958,-0.5204695500000001,9.888735060000002,0.005948,-0.024002,-0.281951
3.397757999948226,3.397757999948226,0.0,0.0,2.28678453749235,0.0,0.0,0.28905165,0.23560677,9.66554775,0.005202,-0.01878,-0.342139
3.397757999948226,3.397757999948226,0.0,0.0,2.283594312636569,0.0,0.0,0.28905165,0.23560677,9.66554775,0.005202,-0.01878,-0.342139
3.4377320000203326,3.4377320000203326,0.0,0.0,2.272852478290294,0.0,0.0,0.30506157,0.28860039,9.60252831,0.016839,-0.016372,-0.345947
3.457719000056386,3.457719000056386,0.0,0.0,2.2672774948489023,0.0,0.0,0.35341506,0.2633004,9.82272357,0.001824,-0.01942,-0.279753
3.4777049999684095,3.4777049999684095,0.0,0.0,2.2627386588314655,0.0,0.0,0.29728224,0.2894931,9.66330126,-0.004348,-0.01206,-0.227232
3.497692000004463,3.497692000004463,0.0,0.0,2.2596314722200095,0.0,0.0,0.41404086,0.33724818,9.60522606,0.007819,-0.011084,-0.152546
3.5176790000405163,3.5176790000405163,0.0,0.0,2.2572650514836283,0.0,0.0,0.13696722,0.28725642,9.73949553,0.001972,-0.005477,-0.113083
3.5176790000405163,3.5176790000405163,0.0,0.0,2.2587111275603737,0.0,0.0,0.13696722,0.28725642,9.73949553,0.001972,-0.005477,-0.113083
3.5376659999601543,3.5376659999601543,0.0,0.0,2.2565276333996813,0.0,0.0,0.2225889,0.29189655,9.75985128,-0.000198,-0.022075,-0.093581
3.577640000032261,3.577640000032261,0.0,0.0,2.2509393724601807,0.0,0.0,0.12888378,0.20791314,9.84098979,0.002169,-0.004453,-0.096185
3.597626999951899,3.597626999951899,0.0,0.0,2.2495147386721372,0.0,0.0,0.06960195,0.19085355,9.72587925,0.003545,0.000344,-0.063322
3.597626999951899,3.597626999951899,0.0,0.0,2.2509547766100466,0.0,0.0,0.06960195,0.19085355,9.72587925,0.003545,0.000344,-0.063322
3.6376000000163913,3.6376000000163913,0.0,0.0,2.2476243698415956,0.0,0.0,-0.06287229,0.18022932,9.82197801,0.003427,0.001469,-0.013338
3.6575870000524446,3.6575870000524446,0.0,0.0,2.247329451580905,0.0,0.0,0.08906499,0.27363033,9.78230637,0.003664,0.001592,-0.003002
3.6775739999720827,3.6775739999720827,0.0,0.0,2.247008168682667,0.0,0.0,0.16241436,0.32751666,9.83365191,-0.000668,-0.002151,-0.005791
3.697561000008136,3.697561000008136,0.0,0.0,2.2467416303558148,0.0,0.0,0.11197134,0.2948886,9.78515127,0.004129,-0.001759,-0.003934
3.7175480000441894,3.7175480000441894,0.0,0.0,2.246677947083133,0.0,0.0,0.0808344,0.23081949,9.85250673,-0.003587,0.001549,0.006309
3.7375349999638274,3.7375349999638274,0.0,0.0,2.2466979700222094,0.0,0.0,0.0782838,0.37616445,9.79758054,-0.003559,0.000207,0.009835
3.757521999999881,3.757521999999881,0.0,0.0,2.2466448430156065,0.0,0.0,0.06541308,0.44217594,9.75356307,9.9e-05,-0.001397,0.004573
3.777509000035934,3.777509000035934,0.0,0.0,2.2465357769922285,0.0,0.0,0.1761876,0.36209691,9.746235,0.001749,-0.005214,0.000459
3.797495999955572,3.797495999955572,0.0,0.0,2.246490382648979,0.0,0.0,0.11661147,0.33590421,9.68396112,0.003623,-0.007757,0.00328
3.817481999984011,3.817481999984011,0.0,0.0,2.2464870466661475,0.0,0.0,-0.02499588,0.28860039,9.7174917,0.000433,-0.000627,0.004914
3.8374690000200644,3.8374690000200644,0.0,0.0,2.2464701321382465,0.0,0.0,0.17858124,0.3236319,9.70252164,0.001581,-0.002868,0.003442
3.8574560000561178,3.8574560000561178,0.0,0.0,2.246508317876435,0.0,0.0,0.08308089,0.30926025,9.77168214,0.003296,0.000979,0.005985
3.877442999975756,3.877442999975756,0.0,0.0,2.246497892216045,0.0,0.0,0.05942898,0.32033574,9.79593246,-0.000327,5.5e-05,0.002634
3.897430000011809,3.897430000011809,0.0,0.0,2.246510956860126,0.0,0.0,0.13531914,0.32497587,9.780815250000002,0.004351,-0.000111,0.003527
3.9174170000478625,3.9174170000478625,0.0,0.0,2.2465500066471584,0.0,0.0,0.08712261,0.30297204,9.80101404,0.001164,0.000825,0.004601
3.9374039999675006,3.9374039999675006,0.0,0.0,2.2465808367847533,0.0,0.0,0.10164141,0.31658832,9.77706783,0.002077,0.000258,0.003747
3.957391000003554,3.957391000003554,0.0,0.0,2.246636319543609,0.0,0.0,0.08712261,0.31359627,9.78993855,0.005099,0.002736,0.004839
3.977377000031993,3.977377000031993,0.0,0.0,2.2466652433519183,0.0,0.0,0.10298538,0.31778514,9.77797035,0.002961,-0.001522,0.003013
3.997363999951631,3.997363999951631,0.0,0.0,2.2467377242665556,0.0,0.0,0.09176274,0.329616,9.75611367,0.003796,0.000254,0.005283
4.0373380000237375,4.0373380000237375,0.0,0.0,2.2467291399165106,0.0,0.0,0.09011466,0.3408386399999999,9.7664436,0.003798,-0.001115,0.005868
4.057325000059791,4.057325000059791,0.0,0.0,2.24682688548857,0.0,0.0,0.08007903,0.37272114,9.76090095,0.006031,-0.001413,0.005307
4.077311999979429,4.077311999979429,0.0,0.0,2.2469272488900875,0.0,0.0,0.09220419,0.37168128,9.79009551,0.004781,-0.002619,0.005478
4.097299000015482,4.097299000015482,0.0,0.0,2.2469876822536516,0.0,0.0,0.08981055,0.38335518,9.76508982,0.00262,0.000971,0.003348
4.117286000051536,4.117286000051536,0.0,0.0,2.2470820350140652,0.0,0.0,0.10014048,0.37916631,9.7522191,0.003762,-0.000732,0.00517
4.117286000051536,4.117286000051536,0.0,0.0,2.247168710749361,0.0,0.0,0.10014048,0.37916631,9.7522191,0.003762,-0.000732,0.00517
4.157260000007227,4.157260000007227,0.0,0.0,2.2472571765536653,0.0,0.0,0.08981055,0.38649438,9.78529842,0.001137,0.0005,0.004274
4.177246000035666,4.177246000035666,0.0,0.0,2.2473552155244443,0.0,0.0,0.08442486,0.38993769,9.7695828,0.005849,-8.9e-05,0.005313
4.197232999955304,4.197232999955304,0.0,0.0,2.247433819742958,0.0,0.0,0.08382645,0.39352815,9.77766624,0.003875,-0.00067,0.00419
4.197232999955304,4.197232999955304,0.0,0.0,2.2474693406015405,0.0,0.0,0.08382645,0.39352815,9.77766624,0.003875,-0.00067,0.00419
4.237207000027411,4.237207000027411,0.0,0.0,2.247607164367956,0.0,0.0,0.0960987599999999,0.38065743,9.79129233,0.004593,-0.001135,0.004983
4.257193999947049,4.257193999947049,0.0,0.0,2.2476682069036675,0.0,0.0,0.09774684,0.37960776,9.7752726,0.001652,0.001062,0.003112
4.277180999983102,4.277180999983102,0.0,0.0,2.2477392992843184,0.0,0.0,0.09325386,0.35939916,9.77946147,0.002123,0.000672,0.003672
4.297168000019155,4.297168000019155,0.0,0.0,2.2478215994081943,0.0,0.0,0.08772102,0.35087427,9.77587101,0.004586,0.000981,0.004291
4.317155000055209,4.317155000055209,0.0,0.0,2.247896439829149,0.0,0.0,0.08996751,0.33964182,9.77856876,0.002014,0.000502,0.003844
4.337141999974847,4.337141999974847,0.0,0.0,2.24798228926241,0.0,0.0,0.09595161,0.31359627,9.7664436,0.005142,0.000966,0.004456
4.3571290000109,4.3571290000109,0.0,0.0,2.248071606530644,0.0,0.0,0.09325386,0.29548701,9.79098822,0.00352,0.001922,0.004631
4.377115000039339,4.377115000039339,0.0,0.0,2.2481549544733452,0.0,0.0,0.11092167,0.29458449,9.7781175,0.002667,-0.001145,0.004268
4.397101999958977,4.397101999958977,0.0,0.0,2.248212117651569,0.0,0.0,0.08322804,0.28575549,9.80326053,0.004495,-0.000322,0.002759
4.4170889999950305,4.4170889999950305,0.0,0.0,2.248297983301267,0.0,0.0,0.09131148,0.28231218,9.76898439,0.00223,0.000649,0.004414
4.437076000031084,4.437076000031084,0.0,0.0,2.248380527953149,0.0,0.0,0.09759969,0.27662238,9.77137803,0.002856,-0.000244,0.004207
4.457062999950722,4.457062999950722,0.0,0.0,2.248470636831188,0.0,0.0,0.08726976,0.27408159,9.78814332,0.005745,-0.000214,0.004629
4.477049999986775,4.477049999986775,0.0,0.0,2.2485321576497004,0.0,0.0,0.09834525,0.26704782,9.7926363,-0.000552,0.000972,0.002973
4.497037000022829,4.497037000022829,0.0,0.0,2.2486100271849407,0.0,0.0,0.10478061,0.2650956299999999,9.80985285,0.004091,-0.001737,0.003926
4.517024000058882,4.517024000058882,0.0,0.0,2.2486799925182517,0.0,0.0,0.08562168,0.28381311,9.77946147,0.003841,-0.000302,0.003468
4.53701099997852,4.53701099997852,0.0,0.0,2.24875752008123,0.0,0.0,0.09580446,0.29713509,9.7841016,0.00174,0.000388,0.003907
4.556998000014573,4.556998000014573,0.0,0.0,2.248843859278418,0.0,0.0,0.08906499,0.30641535,9.79533405,0.005183,-0.002628,0.004409
4.576985000050627,4.576985000050627,0.0,0.0,2.248919605506879,0.0,0.0,0.0896634,0.32452461,9.76988691,0.002972,-0.000239,0.003787
4.59697099996265,4.59697099996265,0.0,0.0,2.2490147365078776,0.0,0.0,0.09894366,0.33425613,9.76823883,0.00326,-0.001582,0.004902
4.616957999998704,4.616957999998704,0.0,0.0,2.249108240776307,0.0,0.0,0.09295956,0.33919056,9.78335604,0.005241,-0.002535,0.004787
4.656931999954395,4.656931999954395,0.0,0.0,2.249270484660367,0.0,0.0,0.0953532,0.35521029,9.78993855,0.00436,-0.001107,0.004057
4.656931999954395,4.656931999954395,0.0,0.0,2.2492704362843856,0.0,0.0,0.0953532,0.35521029,9.78993855,0.00436,-0.001107,0.004057
4.696906000026502,4.696906000026502,0.0,0.0,2.2494242149880534,0.0,0.0,0.08861373,0.34203546,9.78605379,0.000382,0.000109,0.003608
4.716893000062555,4.716893000062555,0.0,0.0,2.2495064668638154,0.0,0.0,0.08352234,0.33574725,9.78335604,0.006216,-0.001333,0.004124
4.716893000062555,4.716893000062555,0.0,0.0,2.2495082834850075,0.0,0.0,0.08352234,0.33574725,9.78335604,0.006216,-0.001333,0.004124
4.7568670000182465,4.7568670000182465,0.0,0.0,2.2496588086826215,0.0,0.0,0.08981055,0.30581694,9.77137803,0.003232,-0.000416,0.003456
4.7768540000543,4.7768540000543,0.0,0.0,2.249763068310303,0.0,0.0,0.09879651,0.31030011,9.76883724,0.004412,-0.00175,0.005343
4.796840999973938,4.796840999973938,0.0,0.0,2.2498557378800985,0.0,0.0,0.10403505,0.30596409,9.78709365,0.001972,0.000848,0.004689
4.796840999973938,4.796840999973938,0.0,0.0,2.2498632848542437,0.0,0.0,0.10403505,0.30596409,9.78709365,0.001972,0.000848,0.004689
4.816828000009991,4.816828000009991,0.0,0.0,2.2499435454084225,0.0,0.0,0.10119015,0.29278926,9.780511140000002,0.003806,-0.00163,0.003953
4.856800999958068,4.856800999958068,0.0,0.0,2.2500966881138122,0.0,0.0,0.10628154,0.30192237,9.77437008,0.002204,-0.000201,0.003343
4.8767879999941215,4.8767879999941215,0.0,0.0,2.2501896947396425,0.0,0.0,0.10238697,0.29443734,9.77333022,0.00564,-0.000997,0.004715
4.896775000030175,4.896775000030175,0.0,0.0,2.2502787389230727,0.0,0.0,0.09999333,0.3008727,9.78560253,0.001992,-0.000585,0.004486
4.916761999949813,4.916761999949813,0.0,0.0,2.250356495221503,0.0,0.0,0.08996751,0.3204828899999999,9.79158663,0.000554,-0.000122,0.003849
4.936748999985866,4.936748999985866,0.0,0.0,2.250437108383373,0.0,0.0,0.09655002,0.32122845,9.76044969,0.005537,-0.000263,0.004015
4.95673600002192,4.95673600002192,0.0,0.0,2.250522092448671,0.0,0.0,0.08861373,0.31584276,9.78305193,0.000993,0.000565,0.004264
4.976723000057973,4.976723000057973,0.0,0.0,2.25060797079097,0.0,0.0,0.11061756,0.31734369,9.78784902,0.004723,-0.001474,0.004313
4.996709999977611,4.996709999977611,0.0,0.0,2.2506977857197192,0.0,0.0,0.08322804,0.3327552,9.76584519,0.004168,0.000327,0.004534
5.016697000013664,5.016697000013664,0.0,0.0,2.2507800047384956,0.0,0.0,0.10208286,0.32557428,9.79428438,0.002296,0.000267,0.004097
5.036684000049718,5.036684000049718,0.0,0.0,2.2508399547675095,0.0,0.0,0.09490194,0.29907747,9.79727643,0.005139,0.000875,0.002832
5.056670999969356,5.056670999969356,0.0,0.0,2.2509050914388187,0.0,0.0,0.0981981,0.32811507,9.77302611,0.003527,-0.000311,0.003151
5.076656999997795,5.076656999997795,0.0,0.0,2.2509962207287693,0.0,0.0,0.0805302899999999,0.32722236,9.77407578,0.00308,0.000377,0.00465
5.096644000033848,5.096644000033848,0.0,0.0,2.2510653724011913,0.0,0.0,0.08891784,0.31449879,9.80416305,0.004663,-0.000643,0.003381
5.116630999953486,5.116630999953486,0.0,0.0,2.251159044154946,0.0,0.0,0.08667135,0.31180104,9.78185511,0.002173,7.4e-05,0.004795
5.136617999989539,5.136617999989539,0.0,0.0,2.2512594863047344,0.0,0.0,0.10747836,0.29982303,9.77706783,0.004741,-0.000892,0.005167
5.156605000025593,5.156605000025593,0.0,0.0,2.2513224381440535,0.0,0.0,0.09355797,0.30326634,9.80954874,0.003544,-0.00051,0.002998
5.176592000061646,5.176592000061646,0.0,0.0,2.2513933908957346,0.0,0.0,0.09265545,0.31090833,9.77677353,0.002138,0.001173,0.003479
5.196578999981284,5.196578999981284,0.0,0.0,2.251497343083476,0.0,0.0,0.08741691,0.29862621,9.78574968,0.005329,-0.000729,0.005383
5.2165660000173375,5.2165660000173375,0.0,0.0,2.2515856517895863,0.0,0.0,0.08636724,0.32122845,9.79428438,0.001793,-0.001084,0.004458
5.236553000053391,5.236553000053391,0.0,0.0,2.251674062831099,0.0,0.0,0.08412075,0.32766381,9.76254903,0.001793,-0.001084,0.004458
5.256539999973029,5.256539999973029,0.0,0.0,2.25177521459357,0.0,0.0,0.08576883,0.3094074,9.77333022,0.005814,-0.001805,0.005185
5.276527000009082,5.276527000009082,0.0,0.0,2.2518322416190077,0.0,0.0,0.08712261,0.31778514,9.75865446,0.001806,-0.002205,0.00263
5.296514000045136,5.296514000045136,0.0,0.0,2.25189230621742,0.0,0.0,0.08532738,0.32213097,9.74967831,0.004475,-0.000454,0.002838
5.316500999964774,5.316500999964774,0.0,0.0,2.251994878394518,0.0,0.0,0.09355797,0.30581694,9.78589683,0.003514,-0.000753,0.005308
5.356474000029266,5.356474000029266,0.0,0.0,2.252172837702922,0.0,0.0,0.10298538,0.32377905,9.76195062,0.005858,-0.001415,0.004792
5.356474000029266,5.356474000029266,0.0,0.0,2.2521823131303425,0.0,0.0,0.10298538,0.32377905,9.76195062,0.005858,-0.001415,0.004792
5.396447999984957,5.396447999984957,0.0,0.0,2.2523656043048987,0.0,0.0,0.10193571,0.31734369,9.7721334,0.002987,0.000263,0.004904
5.396447999984957,5.396447999984957,0.0,0.0,2.2523740863104393,0.0,0.0,0.10193571,0.31734369,9.7721334,0.002987,0.000263,0.004904
5.436422000057064,5.436422000057064,0.0,0.0,2.2525335067011847,0.0,0.0,0.09310671,0.3125466,9.79727643,0.002661,0.001826,0.003444
5.436422000057064,5.436422000057064,0.0,0.0,2.2525195418254693,0.0,0.0,0.09310671,0.3125466,9.79727643,0.002661,0.001826,0.003444
5.476396000012755,5.476396000012755,0.0,0.0,2.2526738852629116,0.0,0.0,0.09385227,0.30985866,9.77960862,0.0038,0.000164,0.00345
5.476396000012755,5.476396000012755,0.0,0.0,2.2526636273127867,0.0,0.0,0.09385227,0.30985866,9.77960862,0.0038,0.000164,0.00345
5.516369999968447,5.516369999968447,0.0,0.0,2.252820118120047,0.0,0.0,0.10269108,0.30221667,9.79368597,0.004626,-0.001248,0.00379
5.516369999968447,5.516369999968447,0.0,0.0,2.252817070903017,0.0,0.0,0.10269108,0.30221667,9.79368597,0.004626,-0.001248,0.00379
5.5563440000405535,5.5563440000405535,0.0,0.0,2.252978564322248,0.0,0.0,0.07364367,0.32452461,9.77168214,0.002626,0.000875,0.00414
5.5563440000405535,5.5563440000405535,0.0,0.0,2.2529809659219495,0.0,0.0,0.07364367,0.32452461,9.77168214,0.002626,0.000875,0.00414
5.596317999996245,5.596317999996245,0.0,0.0,2.2531457662234784,0.0,0.0,0.09864936,0.32138541,9.79952292,0.001457,0.001912,0.004273
5.596317999996245,5.596317999996245,0.0,0.0,2.2531493284968214,0.0,0.0,0.09864936,0.32138541,9.79952292,0.001457,0.001912,0.004273
5.636291999951936,5.636291999951936,0.0,0.0,2.253303216853265,0.0,0.0,0.09909081,0.32018859,9.78725061,0.005564,0.000974,0.003566
5.636291999951936,5.636291999951936,0.0,0.0,2.2532965590986107,0.0,0.0,0.09909081,0.32018859,9.78725061,0.005564,0.000974,0.003566
5.6762650000164285,5.6762650000164285,0.0,0.0,2.253467335385343,0.0,0.0,0.09789399,0.31644117,9.77706783,0.005588,-0.001762,0.004694
5.6762650000164285,5.6762650000164285,0.0,0.0,2.2534771575733323,0.0,0.0,0.09789399,0.31644117,9.77706783,0.005588,-0.001762,0.004694
5.71623899997212,5.71623899997212,0.0,0.0,2.2536373228897677,0.0,0.0,0.08576883,0.30476727,9.796373910000002,0.001788,-0.00176,0.003846
5.71623899997212,5.71623899997212,0.0,0.0,2.2536336004688664,0.0,0.0,0.08576883,0.30476727,9.796373910000002,0.001788,-0.00176,0.003846
5.756213000044227,5.756213000044227,0.0,0.0,2.253780366112668,0.0,0.0,0.0805302899999999,0.32122845,9.77706783,0.003422,0.000418,0.003163
5.756213000044227,5.756213000044227,0.0,0.0,2.2537686402945925,0.0,0.0,0.0805302899999999,0.32122845,9.77706783,0.003422,0.000418,0.003163
5.796186999999918,5.796186999999918,0.0,0.0,2.253942160111123,0.0,0.0,0.08951625,0.31464594,9.78964425,0.004724,0.00106,0.004998
5.816174000035971,5.816174000035971,0.0,0.0,2.254027551103764,0.0,0.0,0.10628154,0.32122845,9.76659075,0.001031,0.000271,0.004314
5.836160999955609,5.836160999955609,0.0,0.0,2.254123342276519,0.0,0.0,0.09864936,0.31614687,9.79053696,0.004546,-0.001107,0.004907
5.856147999991663,5.856147999991663,0.0,0.0,2.254181773031858,0.0,0.0,0.08667135,0.32782077,9.78709365,0.001295,0.000138,0.002735
5.876135000027716,5.876135000027716,0.0,0.0,2.254264939011321,0.0,0.0,0.09968922,0.32018859,9.7664436,0.002101,0.000698,0.00419
5.876135000027716,5.876135000027716,0.0,0.0,2.2542678584337263,0.0,0.0,0.09968922,0.32018859,9.7664436,0.002101,0.000698,0.00419
5.916108999983408,5.916108999983408,0.0,0.0,2.2544103819541217,0.0,0.0,0.09909081,0.3008727,9.78919299,0.002124,-0.000918,0.002967
5.936096000019461,5.936096000019461,0.0,0.0,2.254445623311417,0.0,0.0,0.09160578,0.31239945,9.78021684,0.003558,-0.000297,0.001437
5.956083000055514,5.956083000055514,0.0,0.0,2.254518752317818,0.0,0.0,0.08517042,0.31194819,9.79038981,0.005741,-0.001036,0.003676
5.976068999967538,5.976068999967538,0.0,0.0,2.2546065937336905,0.0,0.0,0.09490194,0.30895614,9.7781175,0.001422,-0.000181,0.004522
5.996056000003591,5.996056000003591,0.0,0.0,2.2547008202438104,0.0,0.0,0.08801532,0.31524435,9.78814332,0.005994,-0.001684,0.00487
6.0160430000396445,6.0160430000396445,0.0,0.0,2.25477868834421,0.0,0.0,0.10343664,0.30716091,9.78275763,0.004033,-0.00046,0.003903
6.036029999959283,6.036029999959283,0.0,0.0,2.25487082277642,0.0,0.0,0.1067328,0.31658832,9.7957755,0.001005,0.000208,0.004724
6.056016999995336,6.056016999995336,0.0,0.0,2.254951615998899,0.0,0.0,0.09759969,0.31434183,9.793087560000002,0.004197,-0.000628,0.004053
6.076004000031389,6.076004000031389,0.0,0.0,2.255024765796385,0.0,0.0,0.09774684,0.30670965,9.78275763,0.003531,-0.000359,0.003611
6.095990999951027,6.095990999951027,0.0,0.0,2.2551299504134263,0.0,0.0,0.08622009,0.32557428,9.79024266,0.002016,0.001473,0.005464
6.095990999951027,6.095990999951027,0.0,0.0,2.25515031876418,0.0,0.0,0.08622009,0.32557428,9.79024266,0.002016,0.001473,0.005464
6.095990999951027,6.095990999951027,0.0,0.0,2.255166429837855,0.0,0.0,0.08622009,0.32557428,9.79024266,0.002016,0.001473,0.005464
6.115977999987081,6.115977999987081,0.0,0.0,2.2552444348211917,0.0,0.0,0.10837107,0.31419468,9.77512545,0.006142,-0.000954,0.003688
6.1759389999788254,6.1759389999788254,0.0,0.0,2.2554909060993555,0.0,0.0,0.09999333,0.31959018,9.77541975,0.003505,1.7e-05,0.003579
6.195926000014879,6.195926000014879,0.0,0.0,2.2555674474185583,0.0,0.0,0.08756406,0.31404753,9.77228055,0.002316,0.001607,0.003778
6.23589999997057,6.23589999997057,0.0,0.0,2.2557454295055734,0.0,0.0,0.09774684,0.31658832,9.7781175,0.00283,-0.00159,0.004752
6.23589999997057,6.23589999997057,0.0,0.0,2.255754006076332,0.0,0.0,0.09774684,0.31658832,9.7781175,0.00283,-0.00159,0.004752
6.255887000006624,6.255887000006624,0.0,0.0,2.2558396577752866,0.0,0.0,0.10253412,0.31614687,9.75461274,0.002729,-0.000492,0.00428
6.275874000042677,6.275874000042677,0.0,0.0,2.2559259815622,0.0,0.0,0.08816247,0.30985866,9.78141366,0.005466,-0.001296,0.00432
6.315847999998368,6.315847999998368,0.0,0.0,2.256131295819369,0.0,0.0,0.09805095,0.30431601,9.79113537,0.002774,-0.002658,0.006028
6.315847999998368,6.315847999998368,0.0,0.0,2.2561557297332566,0.0,0.0,0.09805095,0.30431601,9.79113537,0.002774,-0.002658,0.006028
6.3558210000628605,6.3558210000628605,0.0,0.0,2.2563438711172843,0.0,0.0,0.08308089,0.31449879,9.7579089,0.001922,0.000101,0.004653
6.3558210000628605,6.3558210000628605,0.0,0.0,2.2563424592770733,0.0,0.0,0.08308089,0.31449879,9.7579089,0.001922,0.000101,0.004653
6.395795000018552,6.395795000018552,0.0,0.0,2.2565285700596203,0.0,0.0,0.0956475,0.32332779,9.78185511,0.003354,0.001125,0.00457
6.395795000018552,6.395795000018552,0.0,0.0,2.2565263878389583,0.0,0.0,0.0956475,0.32332779,9.78185511,0.003354,0.001125,0.00457
6.435768999974243,6.435768999974243,0.0,0.0,2.2567081552602613,0.0,0.0,0.09011466,0.31404753,9.79368597,0.005568,-0.002218,0.004375
6.435768999974243,6.435768999974243,0.0,0.0,2.2567038884254433,0.0,0.0,0.09011466,0.31404753,9.79368597,0.005568,-0.002218,0.004375
6.47574300004635,6.47574300004635,0.0,0.0,2.2569028688957484,0.0,0.0,0.10463346,0.31330197,9.78500412,0.004073,-0.002358,0.005432
6.47574300004635,6.47574300004635,0.0,0.0,2.2569139042280284,0.0,0.0,0.10463346,0.31330197,9.78500412,0.004073,-0.002358,0.005432
6.5157170000020415,6.5157170000020415,0.0,0.0,2.257095684642665,0.0,0.0,0.08786817,0.30895614,9.78156081,0.001495,-0.001999,0.004212
6.535704000038095,6.535704000038095,0.0,0.0,2.257217934732237,0.0,0.0,0.09655002,0.30670965,9.77108373,0.005248,-0.001688,0.006299
6.555690999957733,6.555690999957733,0.0,0.0,2.2573190130997514,0.0,0.0,0.09984618,0.31749084,9.7752726,0.00269,0.001237,0.005072
6.575677999993786,6.575677999993786,0.0,0.0,2.2574072570964505,0.0,0.0,0.08502327,0.32318064,9.79443153,0.004032,-0.000787,0.004341
6.59566500002984,6.59566500002984,0.0,0.0,2.2574813715840243,0.0,0.0,0.09714843,0.30027429,9.80490861,0.004192,-0.00229,0.003548
6.615651999949478,6.615651999949478,0.0,0.0,2.257562423047106,0.0,0.0,0.0984924,0.31778514,9.77003406,0.002557,-0.000236,0.003966
6.635638999985531,6.635638999985531,0.0,0.0,2.2576388838538293,0.0,0.0,0.08382645,0.31689243,9.77601816,0.003004,-0.002271,0.003717
6.655626000021584,6.655626000021584,0.0,0.0,2.2577216920812537,0.0,0.0,0.08232552,0.30282489,9.79398027,0.004226,0.000132,0.004095
6.675613000057638,6.675613000057638,0.0,0.0,2.257822977578374,0.0,0.0,0.09236115,0.31194819,9.78574968,0.00217,-0.001601,0.005158
6.695599999977276,6.695599999977276,0.0,0.0,2.2578831878227525,0.0,0.0,0.09040896,0.31718673,9.7724277,0.005269,-0.001226,0.002795
6.715587000013329,6.715587000013329,0.0,0.0,2.2579594016596536,0.0,0.0,0.10537902,0.31270356,9.77377167,0.003853,-0.000207,0.003743
6.7355740000493824,6.7355740000493824,0.0,0.0,2.25804403990859,0.0,0.0,0.09176274,0.32871348,9.77826465,0.002989,-0.000601,0.004236
6.7555609999690205,6.7555609999690205,0.0,0.0,2.2581326925704808,0.0,0.0,0.09295956,0.32018859,9.77407578,0.005528,-0.000774,0.004466
6.775548000005074,6.775548000005074,0.0,0.0,2.2582335537366003,0.0,0.0,0.10238697,0.31134978,9.76568823,0.001599,-0.001208,0.005162
6.795534000033513,6.795534000033513,0.0,0.0,2.2583182645203,0.0,0.0,0.09145863,0.31165389,9.7841016,0.003342,-0.001127,0.004218
6.815520999953151,6.815520999953151,0.0,0.0,2.258405103104055,0.0,0.0,0.09340101,0.31763799,9.76180347,0.004033,0.000734,0.004343
6.835507999989204,6.835507999989204,0.0,0.0,2.2584912758136326,0.0,0.0,0.10762551,0.3182364,9.7869465,0.002796,0.000209,0.004305
6.8554950000252575,6.8554950000252575,0.0,0.0,2.258543628820224,0.0,0.0,0.08636724,0.30625839,9.7866522,0.003821,-0.00101,0.002362
6.895468999980949,6.895468999980949,0.0,0.0,2.2587055984854505,0.0,0.0,0.10148445,0.31569561,9.7869465,0.002146,-5.5e-05,0.004015
6.915456000017002,6.915456000017002,0.0,0.0,2.25877532341568,0.0,0.0,0.08846658,0.30132396,9.78141366,0.00502,-0.000387,0.003461
6.915456000017002,6.915456000017002,0.0,0.0,2.2587665161124315,0.0,0.0,0.08846658,0.30132396,9.78141366,0.00502,-0.000387,0.003461
6.955429999972694,6.955429999972694,0.0,0.0,2.2589290568245675,0.0,0.0,0.10552617,0.31390038,9.80206371,0.004409,-0.000205,0.004231
6.955429999972694,6.955429999972694,0.0,0.0,2.258933381438897,0.0,0.0,0.10552617,0.31390038,9.80206371,0.004409,-0.000205,0.004231
6.9954040000448,6.9954040000448,0.0,0.0,2.2590967074608717,0.0,0.0,0.09086022,0.32287653,9.80026848,0.001999,-0.000506,0.004189
6.9954040000448,6.9954040000448,0.0,0.0,2.259099324609485,0.0,0.0,0.09086022,0.32287653,9.80026848,0.001999,-0.000506,0.004189
7.035378000000492,7.035378000000492,0.0,0.0,2.2592334047508054,0.0,0.0,0.10867518,0.31598991,9.77092677,0.003915,0.001295,0.002511
7.035378000000492,7.035378000000492,0.0,0.0,2.259212568996979,0.0,0.0,0.10867518,0.31598991,9.77092677,0.003915,0.001295,0.002511
7.075351999956183,7.075351999956183,0.0,0.0,2.259374362615362,0.0,0.0,0.08262963,0.31689243,9.78245352,0.004849,-0.001962,0.00452
7.075351999956183,7.075351999956183,0.0,0.0,2.259385809296562,0.0,0.0,0.08262963,0.31689243,9.78245352,0.004849,-0.001962,0.00452
7.11532600002829,7.11532600002829,0.0,0.0,2.259537847673057,0.0,0.0,0.08172711,0.31959018,9.77677353,0.005553,-0.001319,0.00371
7.11532600002829,7.11532600002829,0.0,0.0,2.2595356184301503,0.0,0.0,0.08172711,0.31959018,9.77677353,0.005553,-0.001319,0.00371
7.155299999983981,7.155299999983981,0.0,0.0,2.259681489629221,0.0,0.0,0.09445068,0.31943322,9.78649524,0.001302,-0.000905,0.00341
7.175287000020035,7.175287000020035,0.0,0.0,2.2597729561726156,0.0,0.0,0.08471916,0.30536568,9.78934014,0.005296,0.000233,0.004688
7.195274000056088,7.195274000056088,0.0,0.0,2.259857255808723,0.0,0.0,0.10687995,0.32827203,9.78320889,0.002547,4.4e-05,0.004262
7.215260999975726,7.215260999975726,0.0,0.0,2.259941672219907,0.0,0.0,0.10073889,0.31344912,9.78754491,0.002547,4.4e-05,0.004262
7.235248000011779,7.235248000011779,0.0,0.0,2.2600374067885856,0.0,0.0,0.10432935,0.30730806,9.78275763,0.004969,0.000523,0.004903
7.255235000047833,7.255235000047833,0.0,0.0,2.2601403419643766,0.0,0.0,0.09176274,0.31060422,9.77137803,0.002598,0.000294,0.005298
7.275221999967471,7.275221999967471,0.0,0.0,2.2602165569801507,0.0,0.0,0.10448631,0.31239945,9.76913154,0.002048,0.000328,0.003747
7.295209000003524,7.295209000003524,0.0,0.0,2.260297158753966,0.0,0.0,0.09624591,0.33141123,9.78320889,0.004416,0.000496,0.004008
7.3151960000395775,7.3151960000395775,0.0,0.0,2.2603805062860527,0.0,0.0,0.09205704,0.31045707,9.77572386,0.000594,-0.000178,0.004169
7.3351829999592155,7.3351829999592155,0.0,0.0,2.2604775580358423,0.0,0.0,0.10358379,0.31928607,9.7755669,0.003614,-0.000472,0.004955
7.355169999995269,7.355169999995269,0.0,0.0,2.2605322340049803,0.0,0.0,0.09595161,0.31718673,9.77692068,0.004536,-0.000738,0.002509
7.375157000031322,7.375157000031322,0.0,0.0,2.260607786666884,0.0,0.0,0.0839736,0.30746502,9.79473564,0.001656,-5e-06,0.003741
7.375157000031322,7.375157000031322,0.0,0.0,2.260603721357464,0.0,0.0,0.0839736,0.30746502,9.79473564,0.001656,-5e-06,0.003741
7.415130999987014,7.415130999987014,0.0,0.0,2.2607431871462627,0.0,0.0,0.08457201,0.3270654,9.76508982,0.001841,-0.000212,0.002855
7.435118000023067,7.435118000023067,0.0,0.0,2.2607955018213346,0.0,0.0,0.10747836,0.31569561,9.76508982,0.004979,0.000494,0.002434
7.455104000051506,7.455104000051506,0.0,0.0,2.2608780105965245,0.0,0.0,0.09834525,0.32467176,9.79143948,0.004859,-0.000358,0.004203
7.475090999971144,7.475090999971144,0.0,0.0,2.2609284895785056,0.0,0.0,0.0896634,0.31494024,9.79248915,0.001442,-0.000146,0.002346
7.495078000007197,7.495078000007197,0.0,0.0,2.2610191481056177,0.0,0.0,0.08636724,0.32916474,9.77826465,0.00501,5.9e-05,0.004688
7.515065000043251,7.515065000043251,0.0,0.0,2.2611072432864336,0.0,0.0,0.10193571,0.30536568,9.78919299,0.003297,-0.0005,0.004517
7.5550400000065565,7.5550400000065565,0.0,0.0,2.2612612132554855,0.0,0.0,0.08547453,0.3267711,9.77826465,0.005016,-0.001358,0.003913
7.5550400000065565,7.5550400000065565,0.0,0.0,2.261262919910598,0.0,0.0,0.08547453,0.3267711,9.77826465,0.005016,-0.001358,0.003913
7.595013999962248,7.595013999962248,0.0,0.0,2.2614361126341542,0.0,0.0,0.08667135,0.32377905,9.77916717,0.003031,-0.00238,0.004904
7.595013999962248,7.595013999962248,0.0,0.0,2.2614513037525903,0.0,0.0,0.08667135,0.32377905,9.77916717,0.003031,-0.00238,0.004904
7.615000999998301,7.615000999998301,0.0,0.0,2.2615381525769376,0.0,0.0,0.09011466,0.30625839,9.77347737,0.004407,0.000631,0.004397
7.634988000034355,7.634988000034355,0.0,0.0,2.2616136428874736,0.0,0.0,0.10537902,0.3179421,9.77946147,0.002697,0.001255,0.003705
7.674961999990046,7.674961999990046,0.0,0.0,2.261809058825331,0.0,0.0,0.09640287,0.31105548,9.76988691,0.004301,0.000346,0.005815
7.674961999990046,7.674961999990046,0.0,0.0,2.2618332514687776,0.0,0.0,0.09640287,0.31105548,9.76988691,0.004301,0.000346,0.005815
7.714936000062153,7.714936000062153,0.0,0.0,2.2620087792053187,0.0,0.0,0.08382645,0.30866184,9.77572386,0.003704,-0.001673,0.004242
7.714936000062153,7.714936000062153,0.0,0.0,2.2620050066963397,0.0,0.0,0.08382645,0.30866184,9.77572386,0.003704,-0.001673,0.004242
7.754910000017844,7.754910000017844,0.0,0.0,2.262185971431462,0.0,0.0,0.09265545,0.32572143,9.77737194,0.003405,-0.000999,0.004623
7.754910000017844,7.754910000017844,0.0,0.0,2.2621883407059293,0.0,0.0,0.09265545,0.32572143,9.77737194,0.003405,-0.000999,0.004623
7.7948839999735355,7.7948839999735355,0.0,0.0,2.2623577707658376,0.0,0.0,0.08861373,0.32182686,9.76793472,0.001217,-0.000307,0.003924
7.7948839999735355,7.7948839999735355,0.0,0.0,2.262350151541199,0.0,0.0,0.08861373,0.32182686,9.76793472,0.001217,-0.000307,0.003924
7.834858000045642,7.834858000045642,0.0,0.0,2.2625277295962105,0.0,0.0,0.09190989,0.29833191,9.79758054,0.002789,-0.000428,0.004557
7.85484499996528,7.85484499996528,0.0,0.0,2.2626141265632507,0.0,0.0,0.09295956,0.32213097,9.77496849,0.001712,-0.00156,0.004315
7.874832000001334,7.874832000001334,0.0,0.0,2.262694389571543,0.0,0.0,0.09400923,0.32302368,9.77916717,0.002919,0.002255,0.003968
7.894819000037387,7.894819000037387,0.0,0.0,2.2627882199747757,0.0,0.0,0.08876088,0.3150972,9.78799617,0.003994,0.000273,0.004746
7.894819000037387,7.894819000037387,0.0,0.0,2.2627939784336135,0.0,0.0,0.08876088,0.3150972,9.78799617,0.003994,0.000273,0.004746
7.894819000037387,7.894819000037387,0.0,0.0,2.2627985098850605,0.0,0.0,0.08876088,0.3150972,9.78799617,0.003994,0.000273,0.004746
7.954780000029132,7.954780000029132,0.0,0.0,2.263048126004948,0.0,0.0,0.09550035,0.30565998,9.79517709,0.001541,0.001199,0.003449
7.97476699994877,7.97476699994877,0.0,0.0,2.263119747384083,0.0,0.0,0.08861373,0.30326634,9.77916717,0.003398,-0.000247,0.003474
7.994753999984823,7.994753999984823,0.0,0.0,2.263200197393532,0.0,0.0,0.09714843,0.30192237,9.780815250000002,0.005148,-0.001841,0.004
8.014741000020877,8.014741000020877,0.0,0.0,2.2632748354225853,0.0,0.0,0.09759969,0.32093415,9.78185511,0.000596,0.000789,0.00367
8.03472800005693,8.03472800005693,0.0,0.0,2.263340351432454,0.0,0.0,0.08277678,0.30835773,9.7841016,0.004649,-0.001482,0.003156
8.054714999976568,8.054714999976568,0.0,0.0,2.2634251681042814,0.0,0.0,0.07484049,0.31000581,9.7724277,0.002362,-0.000575,0.004284
8.074702000012621,8.074702000012621,0.0,0.0,2.263523823999762,0.0,0.0,0.08337519,0.32003163,9.77632227,0.004639,0.001308,0.005073
8.094689000048675,8.094689000048675,0.0,0.0,2.2636026242534895,0.0,0.0,0.09295956,0.2948886,9.79143948,0.004745,-0.001275,0.003911
8.114675999968313,8.114675999968313,0.0,0.0,2.2636890309721505,0.0,0.0,0.09504909,0.31838355,9.77632227,0.002659,-0.000132,0.004353
8.134663000004366,8.134663000004366,0.0,0.0,2.2637697586447967,0.0,0.0,0.09700128,0.3122523,9.77482134,0.004042,-1.6e-05,0.004022
8.15465000004042,8.15465000004042,0.0,0.0,2.2638511546859723,0.0,0.0,0.1070271,0.3125466,9.79053696,0.004087,-0.001468,0.004063
8.174636999960057,8.174636999960057,0.0,0.0,2.263902966754042,0.0,0.0,0.08308089,0.32976315,9.77737194,0.001843,7.4e-05,0.002363
8.19462399999611,8.19462399999611,0.0,0.0,2.263969893585628,0.0,0.0,0.09236115,0.3198844799999999,9.76329459,0.004913,-0.001252,0.003267
8.214611000032164,8.214611000032164,0.0,0.0,2.264031097094688,0.0,0.0,0.09056592,0.31883481,9.78754491,0.001794,9.2e-05,0.00295
8.234597999951802,8.234597999951802,0.0,0.0,2.2640951175894024,0.0,0.0,0.09310671,0.30506157,9.7894971,0.003395,-0.000692,0.003129
8.274572000023909,8.274572000023909,0.0,0.0,2.264222967923457,0.0,0.0,0.0865242,0.32213097,9.77692068,0.000878,0.000382,0.002746
8.274572000023909,8.274572000023909,0.0,0.0,2.264210369739713,0.0,0.0,0.0865242,0.32213097,9.77692068,0.000878,0.000382,0.002746
8.294559000059962,8.294559000059962,0.0,0.0,2.2642806525161774,0.0,0.0,0.10896948,0.320787,9.77362452,0.005348,0.00016,0.003538
8.3145459999796,8.3145459999796,0.0,0.0,2.2643671454809846,0.0,0.0,0.09714843,0.31928607,9.7929306,0.004527,-0.000101,0.00449
8.334533000015654,8.334533000015654,0.0,0.0,2.2644654469968275,0.0,0.0,0.08935929,0.32302368,9.8043102,0.003036,-0.000399,0.005157
8.354520000051707,8.354520000051707,0.0,0.0,2.264533106172596,0.0,0.0,0.0984924,0.32063004,9.79413723,0.005358,0.000112,0.00332
8.394494000007398,8.394494000007398,0.0,0.0,2.264708481737263,0.0,0.0,0.10343664,0.31629402,9.79533405,0.002765,-0.000329,0.005138
8.414481000043452,8.414481000043452,0.0,0.0,2.2647641487794505,0.0,0.0,0.10328949,0.31703958,9.77302611,0.005504,-0.000493,0.002715
8.43446799996309,8.43446799996309,0.0,0.0,2.26486572377841,0.0,0.0,0.1013373,0.31658832,9.78470001,0.002109,-0.000121,0.005179
8.43446799996309,8.43446799996309,0.0,0.0,2.2648859238837247,0.0,0.0,0.1013373,0.31658832,9.78470001,0.002109,-0.000121,0.005179
8.474442000035197,8.474442000035197,0.0,0.0,2.2650416316006385,0.0,0.0,0.08636724,0.32063004,9.76778757,0.003874,-0.000492,0.003658
8.474442000035197,8.474442000035197,0.0,0.0,2.2650355997009166,0.0,0.0,0.08636724,0.32063004,9.76778757,0.003874,-0.000492,0.003658
8.514415999990888,8.514415999990888,0.0,0.0,2.265190998683738,0.0,0.0,0.1077726599999999,0.33095997,9.7724277,0.00644,-0.00143,0.003765
8.514415999990888,8.514415999990888,0.0,0.0,2.265187967949174,0.0,0.0,0.1077726599999999,0.33095997,9.7724277,0.00644,-0.00143,0.003765
8.55438900005538,8.55438900005538,0.0,0.0,2.265349871433047,0.0,0.0,0.08981055,0.31000581,9.78829047,0.002124,-0.000361,0.004196
8.55438900005538,8.55438900005538,0.0,0.0,2.26535340205983,0.0,0.0,0.08981055,0.31000581,9.78829047,0.002124,-0.000361,0.004196
8.594363000011072,8.594363000011072,0.0,0.0,2.26552806174206,0.0,0.0,0.09355797,0.30117681,9.77482134,0.003082,2.1e-05,0.004839
8.614350000047125,8.614350000047125,0.0,0.0,2.2656404449270635,0.0,0.0,0.09968922,0.32437746,9.77452704,0.004671,-0.00057,0.005824
8.634336999966763,8.634336999966763,0.0,0.0,2.2657372344081423,0.0,0.0,0.08592579,0.3107513699999999,9.79173378,0.004186,1.7e-05,0.004909
8.654324000002816,8.654324000002816,0.0,0.0,2.2658013790622364,0.0,0.0,0.0925083,0.31614687,9.77437008,0.002343,-0.000363,0.003043
8.654324000002816,8.654324000002816,0.0,0.0,2.265782836596313,0.0,0.0,0.0925083,0.31614687,9.77437008,0.002343,-0.000363,0.003043
8.67431100003887,8.67431100003887,0.0,0.0,2.265843011218485,0.0,0.0,0.0928026,0.31868766,9.78620094,0.00588,-0.000777,0.002713
8.714284999994561,8.714284999994561,0.0,0.0,2.2660136147264955,0.0,0.0,0.09355797,0.31778514,9.77572386,0.001051,1.5e-05,0.004695
8.734272000030614,8.734272000030614,0.0,0.0,2.266090940860363,0.0,0.0,0.10298538,0.31449879,9.79248915,0.005399,0.000518,0.003847
8.754258999950252,8.754258999950252,0.0,0.0,2.266162055173444,0.0,0.0,0.09116433,0.30775932,9.79038981,0.000396,0.000325,0.003498
8.774245999986306,8.774245999986306,0.0,0.0,2.266246210461598,0.0,0.0,0.09640287,0.33006726,9.77257485,0.004558,0.001869,0.004247
8.79423300002236,8.79423300002236,0.0,0.0,2.266330298738053,0.0,0.0,0.09056592,0.32467176,9.79697232,0.004143,-0.001164,0.004238
8.814220000058413,8.814220000058413,0.0,0.0,2.2663957806375734,0.0,0.0,0.09205704,0.31524435,9.77916717,0.00104,0.001575,0.003174
8.83420699997805,8.83420699997805,0.0,0.0,2.266485084150167,0.0,0.0,0.09954207,0.31898196,9.77572386,0.004495,-0.000208,0.004547
8.854194000014104,8.854194000014104,0.0,0.0,2.2665850601391657,0.0,0.0,0.09340101,0.31434183,9.77182929,0.00249,-0.000168,0.005145
8.874181000050157,8.874181000050157,0.0,0.0,2.2666785378350633,0.0,0.0,0.09430353,0.31374342,9.79233219,0.003505,0.000501,0.004753
8.894167999969795,8.894167999969795,0.0,0.0,2.2667814720865795,0.0,0.0,0.08607294,0.3070137599999999,9.78424875,0.005541,-0.000871,0.005283
8.914155000005849,8.914155000005849,0.0,0.0,2.266853640238976,0.0,0.0,0.09116433,0.31584276,9.768690090000002,0.00265,-0.001652,0.003502
8.934143000049517,8.934143000049517,0.0,0.0,2.266934871516023,0.0,0.0,0.09385227,0.30835773,9.77781339,0.002478,-0.002311,0.004037
8.954129999969155,8.954129999969155,0.0,0.0,2.266980454434181,0.0,0.0,0.08143281,0.31629402,9.7433901,0.005162,-0.001636,0.001997
8.974117000005208,8.974117000005208,0.0,0.0,2.2670599742004933,0.0,0.0,0.09086022,0.30895614,9.76809168,5.9e-05,-0.00112,0.003986
9.0140909999609,9.0140909999609,0.0,0.0,2.2672325308803423,0.0,0.0,0.08607294,0.32138541,9.752817510000002,0.001621,-8.6e-05,0.004722
9.034077999996953,9.034077999996953,0.0,0.0,2.2673090056594702,0.0,0.0,0.0925083,0.32662395,9.75731049,0.002052,0.00063,0.003816
9.034077999996953,9.034077999996953,0.0,0.0,2.267305636322071,0.0,0.0,0.0925083,0.32662395,9.75731049,0.002052,0.00063,0.003816
9.074051999952644,9.074051999952644,0.0,0.0,2.2674638937703904,0.0,0.0,0.10119015,0.30880899,9.7986204,-0.000408,0.000623,0.003921
9.074051999952644,9.074051999952644,0.0,0.0,2.2674628947974806,0.0,0.0,0.10119015,0.30880899,9.7986204,-0.000408,0.000623,0.003921
9.11402600002475,9.11402600002475,0.0,0.0,2.267656886281179,0.0,0.0,0.09160578,0.31808925,9.78485697,0.005865,-0.000834,0.005894
9.11402600002475,9.11402600002475,0.0,0.0,2.267683325207262,0.0,0.0,0.09160578,0.31808925,9.78485697,0.005865,-0.000834,0.005894
9.153999999980442,9.153999999980442,0.0,0.0,2.2678640466370057,0.0,0.0,0.10014048,0.33095997,9.78005988,0.004114,0.001362,0.004609
9.153999999980442,9.153999999980442,0.0,0.0,2.267866224095849,0.0,0.0,0.10014048,0.33095997,9.78005988,0.004114,0.001362,0.004609
9.193974000052549,9.193974000052549,0.0,0.0,2.2680277577117813,0.0,0.0,0.08712261,0.30866184,9.79353882,0.003722,-0.000281,0.003485
9.193974000052549,9.193974000052549,0.0,0.0,2.268014279051479,0.0,0.0,0.08712261,0.30866184,9.79353882,0.003722,-0.000281,0.003485
9.23394800000824,9.23394800000824,0.0,0.0,2.2681570522823638,0.0,0.0,0.09340101,0.3129978599999999,9.77766624,0.001594,0.000228,0.002726
9.253935000044294,9.253935000044294,0.0,0.0,2.26824701848916,0.0,0.0,0.09924777,0.31150674,9.7781175,0.00454,-0.000505,0.004564
9.273921999963932,9.273921999963932,0.0,0.0,2.2683129753738003,0.0,0.0,0.10223982,0.30730806,9.81733788,0.003899,-0.000597,0.003192
9.273921999963932,9.273921999963932,0.0,0.0,2.2683007825347925,0.0,0.0,0.10223982,0.30730806,9.81733788,0.003899,-0.000597,0.003192
9.313896000036038,9.313896000036038,0.0,0.0,2.2684744545093665,0.0,0.0,0.08292393,0.31150674,9.78470001,0.00483,-0.000879,0.004936
9.313896000036038,9.313896000036038,0.0,0.0,2.2684883998529424,0.0,0.0,0.08292393,0.31150674,9.78470001,0.00483,-0.000879,0.004936
9.35386999999173,9.35386999999173,0.0,0.0,2.268650163326014,0.0,0.0,0.09684432,0.30955455,9.77721498,0.003234,8.1e-05,0.003927
9.373857000027783,9.373857000027783,0.0,0.0,2.268738494988993,0.0,0.0,0.09236115,0.32318064,9.79383312,0.004739,-0.001073,0.004465
9.393844999955036,9.393844999955036,0.0,0.0,2.2688230874524375,0.0,0.0,0.10014048,0.30835773,9.780511140000002,0.002964,-0.001333,0.004243
9.393844999955036,9.393844999955036,0.0,0.0,2.2688242094414477,0.0,0.0,0.10014048,0.30835773,9.780511140000002,0.002964,-0.001333,0.004243
9.433819000027142,9.433819000027142,0.0,0.0,2.2689798677726802,0.0,0.0,0.09834525,0.3204828899999999,9.79697232,0.00511,-0.0004,0.003523
9.453806000063196,9.453806000063196,0.0,0.0,2.2690604469037323,0.0,0.0,0.10657584,0.31554846,9.77257485,0.001607,-0.000101,0.004023
9.473792999982834,9.473792999982834,0.0,0.0,2.26915168822386,0.0,0.0,0.09759969,0.30806343,9.77063247,0.004647,4e-05,0.004638
9.493780000018887,9.493780000018887,0.0,0.0,2.269208281457483,0.0,0.0,0.08262963,0.31479309,9.7692885,0.003061,3.5e-05,0.002633
9.51376700005494,9.51376700005494,0.0,0.0,2.26931017651566,0.0,0.0,0.09714843,0.33215679,9.78829047,0.002117,0.001201,0.00527
9.533753999974579,9.533753999974579,0.0,0.0,2.269364311467422,0.0,0.0,0.09236115,0.30895614,9.79967007,0.004233,-0.00228,0.002496
9.553741000010632,9.553741000010632,0.0,0.0,2.2694425122996895,0.0,0.0,0.09011466,0.30431601,9.78261048,0.003761,-0.002438,0.003913
9.573728000046685,9.573728000046685,0.0,0.0,2.269528674624686,0.0,0.0,0.09071307,0.3182364,9.78455286,0.002088,0.00011,0.004371
9.613702000002377,9.613702000002377,0.0,0.0,2.2696946127365347,0.0,0.0,0.08921214,0.31524435,9.79084107,0.001651,0.000736,0.004343
9.63368900003843,9.63368900003843,0.0,0.0,2.269756599369204,0.0,0.0,0.09100737,0.31644117,9.77467419,0.004338,-0.000416,0.003058
9.653675999958068,9.653675999958068,0.0,0.0,2.2698505398452973,0.0,0.0,0.0928026,0.31419468,9.7897914,0.003423,-0.002664,0.004748
9.653675999958068,9.653675999958068,0.0,0.0,2.269862786563536,0.0,0.0,0.0928026,0.31419468,9.7897914,0.003423,-0.002664,0.004748
9.69365100003779,9.69365100003779,0.0,0.0,2.2700196503268257,0.0,0.0,0.10044459,0.31239945,9.76508982,0.004423,-0.001136,0.00372
9.713637999957427,9.713637999957427,0.0,0.0,2.2700885500645427,0.0,0.0,0.08352234,0.31449879,9.77228055,0.003057,-0.000766,0.003393
9.713637999957427,9.713637999957427,0.0,0.0,2.2700794855853097,0.0,0.0,0.08352234,0.31449879,9.77228055,0.003057,-0.000766,0.003393
9.753612000029534,9.753612000029534,0.0,0.0,2.2702278948363563,0.0,0.0,0.09805095,0.30955455,9.78844743,0.003132,-0.002524,0.0035
9.773598999949172,9.773598999949172,0.0,0.0,2.2702985242740965,0.0,0.0,0.07858791,0.32033574,9.76688505,0.003132,-0.002524,0.0035
9.793585999985225,9.793585999985225,0.0,0.0,2.270414353555486,0.0,0.0,0.08816247,0.3210813,9.75461274,0.004136,0.000631,0.00603
9.813573000021279,9.813573000021279,0.0,0.0,2.2704954635706196,0.0,0.0,0.08562168,0.31404753,9.78649524,0.003454,-0.000773,0.004054
9.833560000057332,9.833560000057332,0.0,0.0,2.2705730807304025,0.0,0.0,0.08636724,0.30761217,9.76508982,0.001429,0.000955,0.003858
9.85354699997697,9.85354699997697,0.0,0.0,2.2706611672570842,0.0,0.0,0.08471916,0.32572143,9.76972995,0.005575,0.000836,0.004452
9.873534000013024,9.873534000013024,0.0,0.0,2.2707594870412118,0.0,0.0,0.10478061,0.30221667,9.7812567,0.001574,0.00052,0.005025
9.893521000049077,9.893521000049077,0.0,0.0,2.2708364327813673,0.0,0.0,0.09430353,0.32512302,9.78754491,0.003243,0.000183,0.003799
9.913507999968715,9.913507999968715,0.0,0.0,2.2709242584202904,0.0,0.0,0.0865242,0.31194819,9.7784118,0.005542,-0.001213,0.004424
9.933496000012383,9.933496000012383,0.0,0.0,2.2709672136671397,0.0,0.0,0.09669717,0.32332779,9.76688505,0.001023,0.000687,0.001866
9.933496000012383,9.933496000012383,0.0,0.0,2.270935692593129,0.0,0.0,0.09669717,0.32332779,9.76688505,0.001023,0.000687,0.001866
9.973469999968074,9.973469999968074,0.0,0.0,2.271111541586973,0.0,0.0,0.08906499,0.30730806,9.77737194,0.003859,-0.000849,0.005353
9.993457000004128,9.993457000004128,0.0,0.0,2.27120036863467,0.0,0.0,0.10238697,0.30117681,9.78141366,0.001947,0.000601,0.004525
10.013444000040181,10.013444000040181,0.0,0.0,2.271262044016215,0.0,0.0,0.09011466,0.30730806,9.78036399,0.005386,-0.000616,0.002956
10.033430999959819,10.033430999959819,0.0,0.0,2.2713522325140953,0.0,0.0,0.10014048,0.31239945,9.77781339,0.002466,-0.000511,0.004611
10.053417999995872,10.053417999995872,0.0,0.0,2.2714351156122676,0.0,0.0,0.09236115,0.3210813,9.79921881,0.002324,-0.000749,0.004177
10.073405000031926,10.073405000031926,0.0,0.0,2.271500046975916,0.0,0.0,0.08921214,0.32332779,9.78485697,0.005344,-0.000683,0.003142
10.093391999951564,10.093391999951564,0.0,0.0,2.27159538376303,0.0,0.0,0.10028763,0.32542713,9.78784902,0.00265,0.000708,0.004904
10.13336600002367,10.13336600002367,0.0,0.0,2.2717729936747446,0.0,0.0,0.07844076,0.31239945,9.78515127,0.003626,5.5e-05,0.004914
10.153353999950923,10.153353999950923,0.0,0.0,2.271855491017315,0.0,0.0,0.09744273,0.329616,9.77347737,0.003838,0.000916,0.004127
10.173340999986976,10.173340999986976,0.0,0.0,2.2719264218092228,0.0,0.0,0.09011466,0.3097017,9.78485697,0.00586,-0.001782,0.003515
10.19332800002303,10.19332800002303,0.0,0.0,2.272005719625234,0.0,0.0,0.08277678,0.31629402,9.78261048,0.003744,-0.000978,0.003962
10.213315000059083,10.213315000059083,0.0,0.0,2.272099413357208,0.0,0.0,0.10552617,0.3107513699999999,9.78424875,0.000989,0.002459,0.004739
10.233301999978721,10.233301999978721,0.0,0.0,2.2721983406784556,0.0,0.0,0.08667135,0.31105548,9.77228055,0.00448,-0.000114,0.005021
10.253289000014775,10.253289000014775,0.0,0.0,2.272249959260142,0.0,0.0,0.08622009,0.31838355,9.75865446,0.002965,-3.1e-05,0.002424
10.273276000050828,10.273276000050828,0.0,0.0,2.2723272519970035,0.0,0.0,0.0947547899999999,0.3210813,9.79622676,0.003821,-0.000284,0.003853
10.293262999970466,10.293262999970466,0.0,0.0,2.272429701983741,0.0,0.0,0.09550035,0.30641535,9.76345155,0.004918,-0.000613,0.005249
10.333237000042573,10.333237000042573,0.0,0.0,2.272594218558,0.0,0.0,0.08726976,0.31449879,9.77721498,0.005674,-0.001066,0.004077
10.353224999969825,10.353224999969825,0.0,0.0,2.2726522161056097,0.0,0.0,0.08636724,0.30581694,9.78560253,0.003168,-0.000132,0.002876
10.373212000005879,10.373212000005879,0.0,0.0,2.2727360735977298,0.0,0.0,0.09759969,0.32332779,9.77228055,0.002408,0.001111,0.004204
10.393199000041932,10.393199000041932,0.0,0.0,2.272819902669397,0.0,0.0,0.08382645,0.30926025,9.77601816,0.002408,0.001111,0.004204
10.41318599996157,10.41318599996157,0.0,0.0,2.2728847186538976,0.0,0.0,0.08906499,0.3070137599999999,9.76718916,0.00254,-0.000159,0.003195
10.433172999997623,10.433172999997623,0.0,0.0,2.2729774845461215,0.0,0.0,0.10463346,0.31749084,9.78440571,0.002927,0.001919,0.004694
10.453160000033677,10.453160000033677,0.0,0.0,2.2730537990589488,0.0,0.0,0.08712261,0.31150674,9.78201207,0.00433,-0.000563,0.003802
10.473146999953315,10.473146999953315,0.0,0.0,2.2730984341215397,0.0,0.0,0.08292393,0.3070137599999999,9.77407578,0.00017,-0.000556,0.002075
10.493133999989368,10.493133999989368,0.0,0.0,2.273169565691168,0.0,0.0,0.09624591,0.3122523,9.77003406,0.005079,7.4e-05,0.003542
10.513121000025421,10.513121000025421,0.0,0.0,2.2732725230619746,0.0,0.0,0.09131148,0.3122523,9.78335604,0.004404,-0.00045,0.005302
10.533108000061475,10.533108000061475,0.0,0.0,2.273339995949204,0.0,0.0,0.09310671,0.31718673,9.80131815,0.002311,-0.001307,0.003316
10.553095999988727,10.553095999988727,0.0,0.0,2.2734133067202995,0.0,0.0,0.09460764,0.32182686,9.75596652,0.006163,-0.000342,0.003648
10.57308300002478,10.57308300002478,0.0,0.0,2.2735031162053456,0.0,0.0,0.08576883,0.32153256,9.80176941,0.002095,0.000183,0.004575
10.593070000060834,10.593070000060834,0.0,0.0,2.2735711389308584,0.0,0.0,0.10343664,0.30402171,9.78739776,0.002581,-0.002298,0.00334
10.613056999980472,10.613056999980472,0.0,0.0,2.273676175884913,0.0,0.0,0.09176274,0.31554846,9.78993855,0.005238,0.000173,0.005436
10.633044000016525,10.633044000016525,0.0,0.0,2.2737498205450466,0.0,0.0,0.08996751,0.31763799,9.78110955,0.001938,0.001013,0.003637
10.653031000052579,10.653031000052579,0.0,0.0,2.273827163944076,0.0,0.0,0.09295956,0.30491442,9.78245352,0.003909,0.000779,0.003853
10.673017999972217,10.673017999972217,0.0,0.0,2.27391960276889,0.0,0.0,0.09160578,0.31030011,9.78261048,0.004377,0.000146,0.004713
10.69300500000827,10.69300500000827,0.0,0.0,2.2740163813814025,0.0,0.0,0.08846658,0.31749084,9.75491685,0.003046,0.000273,0.004948
10.712992000044324,10.712992000044324,0.0,0.0,2.2740724645914545,0.0,0.0,0.09684432,0.30641535,9.79443153,0.005568,-0.001708,0.002613
10.75296700000763,10.75296700000763,0.0,0.0,2.2742588144106897,0.0,0.0,0.09430353,0.32318064,9.75566241,0.00377,0.000616,0.005379
10.772954000043683,10.772954000043683,0.0,0.0,2.2743949822147016,0.0,0.0,0.09160578,0.31854051,9.7894971,0.00389,-0.001,0.006921
10.79294099996332,10.79294099996332,0.0,0.0,2.2744657159870396,0.0,0.0,0.10088604,0.30042144,9.75580956,0.001139,0.001183,0.003483
10.812927999999374,10.812927999999374,0.0,0.0,2.274529655451137,0.0,0.0,0.07858791,0.31928607,9.7692885,0.003085,-0.001307,0.003119
10.832915000035428,10.832915000035428,0.0,0.0,2.274610298445568,0.0,0.0,0.08906499,0.3129978599999999,9.75461274,0.005728,0.00017,0.004019
10.852901999955066,10.852901999955066,0.0,0.0,2.274687003646717,0.0,0.0,0.08876088,0.3236319,9.76044969,0.000572,-0.000872,0.003806
10.872888999991119,10.872888999991119,0.0,0.0,2.2747500991715706,0.0,0.0,0.09954207,0.3153915,9.78934014,0.004064,-0.000863,0.003064
10.892876000027172,10.892876000027172,0.0,0.0,2.274852127179189,0.0,0.0,0.09265545,0.33050871,9.75072798,0.004245,2e-06,0.005214
10.892876000027172,10.892876000027172,0.0,0.0,2.274868832942097,0.0,0.0,0.09265545,0.33050871,9.75072798,0.004245,2e-06,0.005214
10.912863000063226,10.912863000063226,0.0,0.0,2.2749301653237826,0.0,0.0,0.10223982,0.3210813,9.78201207,0.002104,0.001532,0.002778
10.952838000026532,10.952838000026532,0.0,0.0,2.2750684897139744,0.0,0.0,0.09236115,0.32018859,9.764795520000002,-0.000471,0.000762,0.002673
10.972825000062585,10.972825000062585,0.0,0.0,2.2751500978946027,0.0,0.0,0.09834525,0.32093415,9.7957755,0.004166,0.000393,0.004102
10.992811999982223,10.992811999982223,0.0,0.0,2.275218981598049,0.0,0.0,0.08891784,0.31464594,9.75805605,0.003228,-7.6e-05,0.00339
11.012799000018276,11.012799000018276,0.0,0.0,2.2752900660909674,0.0,0.0,0.09924777,0.32093415,9.78784902,0.001489,0.000209,0.00352
11.03278600005433,11.03278600005433,0.0,0.0,2.2753748991754748,0.0,0.0,0.0947547899999999,0.32167971,9.79129233,0.004688,-0.000993,0.004297
11.052772999973968,11.052772999973968,0.0,0.0,2.275452770833753,0.0,0.0,0.10253412,0.31808925,9.78904584,0.003341,-0.000991,0.003898
11.072760000010021,11.072760000010021,0.0,0.0,2.2755520940962883,0.0,0.0,0.08427771,0.31854051,9.79248915,0.003645,-0.001096,0.00511
11.092747000046074,11.092747000046074,0.0,0.0,2.2756444198839176,0.0,0.0,0.09774684,0.29578131,9.793087560000002,0.005176,-0.001439,0.004695
11.13272200000938,11.13272200000938,0.0,0.0,2.275805713510165,0.0,0.0,0.09430353,0.32302368,9.77886306,0.003859,-0.001367,0.003933
11.13272200000938,11.13272200000938,0.0,0.0,2.2758028085137294,0.0,0.0,0.09430353,0.32302368,9.77886306,0.003859,-0.001367,0.003933
11.152709000045434,11.152709000045434,0.0,0.0,2.27587692346757,0.0,0.0,0.08322804,0.3125466,9.78620094,0.003149,-0.000963,0.003645
11.172695999965072,11.172695999965072,0.0,0.0,2.27593396524162,0.0,0.0,0.09520605,0.31374342,9.77407578,0.002536,-0.001943,0.002658
11.212670000037178,11.212670000037178,0.0,0.0,2.2760413535205632,0.0,0.0,0.09400923,0.3107513699999999,9.77721498,0.003208,0.000517,0.001414
11.212670000037178,11.212670000037178,0.0,0.0,2.2760067037807126,0.0,0.0,0.09400923,0.3107513699999999,9.77721498,0.003208,0.000517,0.001414
11.212670000037178,11.212670000037178,0.0,0.0,2.2759798490512715,0.0,0.0,0.09400923,0.3107513699999999,9.77721498,0.003208,0.000517,0.001414
11.25264399999287,11.25264399999287,0.0,0.0,2.276111039848111,0.0,0.0,0.08308089,0.32063004,9.78201207,0.005917,0.000388,0.003637
11.292617999948561,11.292617999948561,0.0,0.0,2.276257816914482,0.0,0.0,0.09805095,0.31344912,9.79413723,0.00297,-0.000117,0.004309
11.312605999992229,11.312605999992229,0.0,0.0,2.2763149518457393,0.0,0.0,0.08322804,0.32377905,9.78709365,0.004626,-0.000284,0.002827
11.332593000028282,11.332593000028282,0.0,0.0,2.276360403902757,0.0,0.0,0.09056592,0.31734369,9.75640797,0.001696,0.000182,0.002196
11.35257999994792,11.35257999994792,0.0,0.0,2.2764395863036118,0.0,0.0,0.10088604,0.31134978,9.80101404,0.004727,-0.002194,0.004042
11.372566999983974,11.372566999983974,0.0,0.0,2.2765295254391145,0.0,0.0,0.08891784,0.31959018,9.79892451,0.00442,-0.00102,0.004626
11.392554000020027,11.392554000020027,0.0,0.0,2.2766306330823873,0.0,0.0,0.09071307,0.3070137599999999,9.77826465,0.00189,-7.4e-05,0.005231
11.41254100005608,11.41254100005608,0.0,0.0,2.276701657410122,0.0,0.0,0.10852803,0.3129978599999999,9.7781175,0.005416,-0.002007,0.003543
11.432527999975719,11.432527999975719,0.0,0.0,2.2767619571810185,0.0,0.0,0.09984618,0.31644117,9.780658290000002,0.001977,-0.001372,0.002946
11.452515000011772,11.452515000011772,0.0,0.0,2.2768202174424097,0.0,0.0,0.08502327,0.31150674,9.78919299,0.004666,-0.001075,0.00284
11.472502000047825,11.472502000047825,0.0,0.0,2.2768792065361723,0.0,0.0,0.09190989,0.30027429,9.78021684,0.004427,-0.001937,0.00289
11.492489999975078,11.492489999975078,0.0,0.0,2.276929193862772,0.0,0.0,0.10313253,0.31239945,9.77617512,0.00076,0.000235,0.00239
11.512477000011131,11.512477000011131,0.0,0.0,2.2770204250967385,0.0,0.0,0.08712261,0.32093415,9.79218504,0.003951,0.00084,0.004736
11.532464000047185,11.532464000047185,0.0,0.0,2.277116307369786,0.0,0.0,0.0896634,0.31390038,9.77572386,0.001688,-0.000737,0.004977
11.552450999966823,11.552450999966823,0.0,0.0,2.277236844674621,0.0,0.0,0.09759969,0.31419468,9.77901021,0.002213,0.000965,0.006353
11.572438000002876,11.572438000002876,0.0,0.0,2.277319804443847,0.0,0.0,0.08846658,0.3065625,9.79203789,0.004568,-0.002393,0.004171
11.59242500003893,11.59242500003893,0.0,0.0,2.2773736497164663,0.0,0.0,0.09504909,0.30850488,9.76988691,0.003027,-0.000895,0.002509
11.612411999958567,11.612411999958567,0.0,0.0,2.2774834272228848,0.0,0.0,0.09999333,0.31868766,9.78320889,0.004086,0.000101,0.005727
11.63239899999462,11.63239899999462,0.0,0.0,2.2775466053790394,0.0,0.0,0.07978473,0.32063004,9.77362452,0.003582,-0.000888,0.003031
11.652386000030674,11.652386000030674,0.0,0.0,2.277610612097824,0.0,0.0,0.09176274,0.31165389,9.77108373,0.002076,-0.001254,0.003097
11.672373999957927,11.672373999957927,0.0,0.0,2.2776987730624993,0.0,0.0,0.09040896,0.31584276,9.78275763,0.005564,-0.001026,0.004495
11.712348000030033,11.712348000030033,0.0,0.0,2.277851238494664,0.0,0.0,0.09056592,0.30326634,9.77482134,0.000683,-0.000921,0.003707
11.732334999949671,11.732334999949671,0.0,0.0,2.277932830980456,0.0,0.0,0.08532738,0.31390038,9.78589683,0.004982,-0.001763,0.004091
11.752321999985725,11.752321999985725,0.0,0.0,2.2780119114578916,0.0,0.0,0.09160578,0.31404753,9.76464837,0.001908,-0.000304,0.003959
11.752321999985725,11.752321999985725,0.0,0.0,2.2780125523893453,0.0,0.0,0.09160578,0.31404753,9.76464837,0.001908,-0.000304,0.003959
11.792296000057831,11.792296000057831,0.0,0.0,2.2781972288898444,0.0,0.0,0.1013373,0.31479309,9.77437008,0.003998,-0.000894,0.005427
11.792296000057831,11.792296000057831,0.0,0.0,2.2782181815184224,0.0,0.0,0.1013373,0.31479309,9.77437008,0.003998,-0.000894,0.005427
11.832271000021137,11.832271000021137,0.0,0.0,2.278391796311137,0.0,0.0,0.10059174,0.3198844799999999,9.78545538,0.004352,-0.000633,0.004402
11.832271000021137,11.832271000021137,0.0,0.0,2.2783932772580604,0.0,0.0,0.10059174,0.3198844799999999,9.78545538,0.004352,-0.000633,0.004402
11.85225800005719,11.85225800005719,0.0,0.0,2.278473280835816,0.0,0.0,0.09220419,0.3107513699999999,9.79997418,0.004089,0.00086,0.003926
11.892232000012882,11.892232000012882,0.0,0.0,2.2786434713327797,0.0,0.0,0.09879651,0.31494024,9.77960862,0.004194,-0.000282,0.004241
11.912219000048935,11.912219000048935,0.0,0.0,2.2787372988192898,0.0,0.0,0.08622009,0.31524435,9.79457868,0.000958,0.000246,0.004741
11.912219000048935,11.912219000048935,0.0,0.0,2.278743756457253,0.0,0.0,0.08622009,0.31524435,9.79457868,0.000958,0.000246,0.004741
11.952193000004627,11.952193000004627,0.0,0.0,2.27891471580155,0.0,0.0,0.09100737,0.31344912,9.77931432,0.00518,-0.000606,0.004145
11.97218000004068,11.97218000004068,0.0,0.0,2.279008499741434,0.0,0.0,0.09205704,0.32332779,9.77632227,0.002891,-6e-05,0.004735
11.992167999967933,11.992167999967933,0.0,0.0,2.279094626884641,0.0,0.0,0.08607294,0.31134978,9.78679935,0.002738,-0.000732,0.004297
11.992167999967933,11.992167999967933,0.0,0.0,2.2790932038755383,0.0,0.0,0.08607294,0.31134978,9.78679935,0.002738,-0.000732,0.004297
12.03214200004004,12.03214200004004,0.0,0.0,2.27926523992571,0.0,0.0,0.10328949,0.32691825,9.77601816,0.001565,0.000164,0.00421
12.07211599999573,12.07211599999573,0.0,0.0,2.2794169615977413,0.0,0.0,0.09714843,0.31494024,9.78545538,0.002353,-0.001019,0.003215
12.07211599999573,12.07211599999573,0.0,0.0,2.279400484063186,0.0,0.0,0.09714843,0.31494024,9.78545538,0.002353,-0.001019,0.003215
12.092103000031784,12.092103000031784,0.0,0.0,2.2794902921427864,0.0,0.0,0.09415638,0.32407335,9.77228055,0.003283,0.000952,0.004568
12.132076999987476,12.132076999987476,0.0,0.0,2.279633601946852,0.0,0.0,0.09026181,0.32033574,9.78305193,0.001454,-0.000358,0.002995
12.152065000031143,12.152065000031143,0.0,0.0,2.2797164651435438,0.0,0.0,0.09040896,0.31120263,9.77333022,0.004274,0.000507,0.004157
12.172051999950781,12.172051999950781,0.0,0.0,2.2798094970313736,0.0,0.0,0.08846658,0.3167452799999999,9.77152518,0.004782,0.000116,0.004702
12.192038999986835,12.192038999986835,0.0,0.0,2.279898121018766,0.0,0.0,0.08667135,0.30806343,9.77137803,0.002274,0.000508,0.004462
12.212026000022888,12.212026000022888,0.0,0.0,2.2799982867921873,0.0,0.0,0.07858791,0.30177522,9.78515127,0.004026,0.000721,0.005089
12.232013000058942,12.232013000058942,0.0,0.0,2.2800933273690154,0.0,0.0,0.08951625,0.31374342,9.78156081,0.001227,-7.2e-05,0.004802
12.25199999997858,12.25199999997858,0.0,0.0,2.280170900317543,0.0,0.0,0.09909081,0.30402171,9.77422293,0.002319,7e-06,0.003834
12.271987000014633,12.271987000014633,0.0,0.0,2.280261187729063,0.0,0.0,0.09310671,0.33291216,9.78305193,0.005727,0.000326,0.004544
12.291974000050686,12.291974000050686,0.0,0.0,2.2803437220197473,0.0,0.0,0.10014048,0.31434183,9.78634809,0.002183,0.000844,0.004109
12.311961999977939,12.311961999977939,0.0,0.0,2.2804245575928697,0.0,0.0,0.09160578,0.3150972,9.76554108,0.003829,0.000129,0.004016
12.331949000013992,12.331949000013992,0.0,0.0,2.2805210830356053,0.0,0.0,0.09086022,0.31374342,9.78350319,0.004573,-0.001356,0.004901
12.351936000050046,12.351936000050046,0.0,0.0,2.2806393420048305,0.0,0.0,0.10059174,0.31629402,9.79562835,0.000735,-8.5e-05,0.006117
12.371922999969684,12.371922999969684,0.0,0.0,2.2806983724022736,0.0,0.0,0.09789399,0.3167452799999999,9.7894971,0.004362,-0.001188,0.002744
12.391910000005737,12.391910000005737,0.0,0.0,2.2807603781414016,0.0,0.0,0.08622009,0.3242303099999999,9.76809168,0.003091,0.0,0.00294
12.41189700004179,12.41189700004179,0.0,0.0,2.280835298226794,0.0,0.0,0.09879651,0.32646699,9.79323471,0.002349,0.000138,0.003695
12.451872000005096,12.451872000005096,0.0,0.0,2.2809951846102035,0.0,0.0,0.08622009,0.31000581,9.76599234,0.001439,0.001351,0.00391
12.47185900004115,12.47185900004115,0.0,0.0,2.281073809428854,0.0,0.0,0.08816247,0.3153915,9.77916717,0.002515,-0.002152,0.003929
12.491845999960788,12.491845999960788,0.0,0.0,2.2811650904295693,0.0,0.0,0.09909081,0.31045707,9.78545538,0.004642,-0.000246,0.004594
12.491845999960788,12.491845999960788,0.0,0.0,2.281173021747118,0.0,0.0,0.09909081,0.31045707,9.78545538,0.004642,-0.000246,0.004594
12.511832999996841,12.511832999996841,0.0,0.0,2.28124877281158,0.0,0.0,0.09100737,0.3122523,9.77661657,0.000377,-0.000531,0.003715
12.551806999952532,12.551806999952532,0.0,0.0,2.28135970914461,0.0,0.0,0.09430353,0.31270356,9.77392863,0.002768,-0.000454,0.00124
12.571793999988586,12.571793999988586,0.0,0.0,2.2814376739259927,0.0,0.0,0.08861373,0.32586858,9.78485697,0.001703,0.002031,0.003916
12.591781000024639,12.591781000024639,0.0,0.0,2.281539596660668,0.0,0.0,0.08308089,0.32452461,9.78170796,0.0048,-0.000255,0.00522
12.611768999951892,12.611768999951892,0.0,0.0,2.2816198317463137,0.0,0.0,0.10717425,0.31973733,9.77901021,0.002316,-0.001393,0.004021
12.631755999987945,12.631755999987945,0.0,0.0,2.2816885097642405,0.0,0.0,0.08636724,0.31689243,9.78769206,0.005124,0.000477,0.003383
12.651743000023998,12.651743000023998,0.0,0.0,2.281760788201484,0.0,0.0,0.08547453,0.31390038,9.78335604,0.004635,-0.000399,0.003588
12.671730000060052,12.671730000060052,0.0,0.0,2.281824398637484,0.0,0.0,0.09729558,0.3210813,9.77766624,0.000858,0.000903,0.003108
12.69171699997969,12.69171699997969,0.0,0.0,2.2818989902892,0.0,0.0,0.10343664,0.30625839,9.78814332,0.005783,-0.000445,0.003731
12.711704000015743,12.711704000015743,0.0,0.0,2.2819820548031746,0.0,0.0,0.09655002,0.32138541,9.77362452,0.003891,0.001065,0.004207
12.731691000051796,12.731691000051796,0.0,0.0,2.28207658973389,0.0,0.0,0.1013373,0.30462012,9.78679935,0.000946,0.000179,0.004847
12.751678999979049,12.751678999979049,0.0,0.0,2.282149342884061,0.0,0.0,0.0928026,0.31644117,9.78904584,0.003774,-0.000326,0.003601
12.771666000015102,12.771666000015102,0.0,0.0,2.282218083411836,0.0,0.0,0.10313253,0.32557428,9.77077962,0.00408,0.001164,0.003379
12.791653000051156,12.791653000051156,0.0,0.0,2.2822851671537894,0.0,0.0,0.09999333,0.3153915,9.77362452,0.00383,0.000528,0.003293
12.811639999970794,12.811639999970794,0.0,0.0,2.282379859366232,0.0,0.0,0.09400923,0.30686661,9.79158663,0.005753,0.000143,0.004872
12.831627000006847,12.831627000006847,0.0,0.0,2.282500695642545,0.0,0.0,0.10059174,0.32527017,9.77407578,0.001642,0.001023,0.006343
12.8516140000429,12.8516140000429,0.0,0.0,2.2825910128311806,0.0,0.0,0.0925083,0.31285071,9.78934014,0.005162,-0.000215,0.00456
12.871601999970153,12.871601999970153,0.0,0.0,2.2826583141583185,0.0,0.0,0.09131148,0.31554846,9.77886306,0.004899,-7e-05,0.003239
12.91157600004226,12.91157600004226,0.0,0.0,2.2828422167574765,0.0,0.0,0.10328949,0.3210813,9.79967007,0.002848,-0.002226,0.005094
12.91157600004226,12.91157600004226,0.0,0.0,2.2828561075362206,0.0,0.0,0.10328949,0.3210813,9.79967007,0.002848,-0.002226,0.005094
12.951549999997951,12.951549999997951,0.0,0.0,2.283016330147097,0.0,0.0,0.10059174,0.31390038,9.77751909,0.003064,0.00088,0.003594
12.971537000034004,12.971537000034004,0.0,0.0,2.2830930299754,0.0,0.0,0.09295956,0.31434183,9.78365034,0.004875,-0.001707,0.003808
12.991523999953642,12.991523999953642,0.0,0.0,2.2831586468877365,0.0,0.0,0.10044459,0.32018859,9.77797035,0.001345,0.000958,0.003211
13.01151199999731,13.01151199999731,0.0,0.0,2.2832425273134156,0.0,0.0,0.08023599,0.3210813,9.75446559,0.004319,0.001079,0.004208
13.031499000033364,13.031499000033364,0.0,0.0,2.2833346178481184,0.0,0.0,0.0956475,0.31359627,9.7929306,0.003315,0.000431,0.004657
13.051485999953002,13.051485999953002,0.0,0.0,2.2834252800829624,0.0,0.0,0.09145863,0.32557428,9.78529842,0.002357,-0.00069,0.004574
13.071472999989055,13.071472999989055,0.0,0.0,2.2835014989393194,0.0,0.0,0.09550035,0.31285071,9.77287896,0.004866,-0.000228,0.00377
13.091460000025108,13.091460000025108,0.0,0.0,2.283583993229989,0.0,0.0,0.09325386,0.31763799,9.78335604,0.003633,0.000156,0.004124
13.111447000061162,13.111447000061162,0.0,0.0,2.2836801430850784,0.0,0.0,0.09355797,0.32318064,9.77228055,0.001898,-0.001636,0.004888
13.1314339999808,13.1314339999808,0.0,0.0,2.2837587115383435,0.0,0.0,0.09176274,0.30775932,9.77886306,0.00329,-0.001541,0.003892
13.151422000024468,13.151422000024468,0.0,0.0,2.2838314283546133,0.0,0.0,0.0925083,0.31060422,9.78470001,0.002118,0.000709,0.003567
13.171409000060521,13.171409000060521,0.0,0.0,2.2839234391133285,0.0,0.0,0.09040896,0.31689243,9.78440571,0.004405,-0.000508,0.004666
13.191395999980159,13.191395999980159,0.0,0.0,2.2840031435364843,0.0,0.0,0.09340101,0.31928607,9.78993855,0.004529,0.001067,0.003961
13.211383000016212,13.211383000016212,0.0,0.0,2.2840915070104373,0.0,0.0,0.09310671,0.32871348,9.78829047,0.000664,0.001042,0.004456
13.231370000052266,13.231370000052266,0.0,0.0,2.2841491613354608,0.0,0.0,0.09310671,0.31180104,9.78605379,0.003696,-0.001022,0.002705
13.251356999971904,13.251356999971904,0.0,0.0,2.284222251306974,0.0,0.0,0.0928026,0.31808925,9.77512545,0.003344,-0.000317,0.003609
13.271345000015572,13.271345000015572,0.0,0.0,2.2843031863444736,0.0,0.0,0.09100737,0.32602554,9.78739776,0.002136,-0.001215,0.004063
13.291332000051625,13.291332000051625,0.0,0.0,2.284406787755774,0.0,0.0,0.09759969,0.30565998,9.78440571,0.004497,0.00024,0.005356
13.311318999971263,13.311318999971263,0.0,0.0,2.284487929614113,0.0,0.0,0.08921214,0.31374342,9.78649524,0.001584,-0.000802,0.004047
13.331306000007316,13.331306000007316,0.0,0.0,2.2845927804459176,0.0,0.0,0.08502327,0.32138541,9.78395445,0.003174,-0.002422,0.005406
13.35129300004337,13.35129300004337,0.0,0.0,2.28465729772954,0.0,0.0,0.09160578,0.31210515,9.79338186,0.00452,-0.001021,0.003072
13.371279999963008,13.371279999963008,0.0,0.0,2.284763573731473,0.0,0.0,0.09624591,0.31419468,9.764491410000002,0.000565,-0.001046,0.005489
13.391268000006676,13.391268000006676,0.0,0.0,2.2848622753415064,0.0,0.0,0.10537902,0.31898196,9.77886306,0.003015,0.000798,0.005029
13.431241999962367,13.431241999962367,0.0,0.0,2.2850352495410826,0.0,0.0,0.10432935,0.31000581,9.76778757,0.002245,0.001559,0.004237
13.45122899999842,13.45122899999842,0.0,0.0,2.285105727576239,0.0,0.0,0.09580446,0.32407335,9.75776175,0.00411,-0.000723,0.003487
13.471216000034474,13.471216000034474,0.0,0.0,2.2851707663893484,0.0,0.0,0.08607294,0.31973733,9.75461274,0.003262,0.000537,0.003196
13.491202999954112,13.491202999954112,0.0,0.0,2.2852616264822814,0.0,0.0,0.10238697,0.30402171,9.7724277,0.002346,0.001107,0.004576
13.51119099999778,13.51119099999778,0.0,0.0,2.285335289965081,0.0,0.0,0.0782838,0.30625839,9.75566241,0.005818,-0.001253,0.003647
13.531178000033833,13.531178000033833,0.0,0.0,2.285417313109157,0.0,0.0,0.08906499,0.31524435,9.77646942,0.001991,0.000699,0.004104
13.551164999953471,13.551164999953471,0.0,0.0,2.28552488959963,0.0,0.0,0.0925083,0.3204828899999999,9.76539393,0.003291,0.000945,0.005504
13.571151999989524,13.571151999989524,0.0,0.0,2.2855868193422957,0.0,0.0,0.0779895,0.31883481,9.780658290000002,0.005691,-0.001201,0.002977
13.591139000025578,13.591139000025578,0.0,0.0,2.2856421346158857,0.0,0.0,0.08277678,0.33095997,9.79473564,0.002382,0.00068,0.002622
13.611126000061631,13.611126000061631,0.0,0.0,2.285718034179318,0.0,0.0,0.10328949,0.31464594,9.78245352,0.004569,-0.002107,0.003784
13.631113999988884,13.631113999988884,0.0,0.0,2.2857761080142724,0.0,0.0,0.10178856,0.32258223,9.78110955,0.00477,0.000645,0.002788
13.651101000024937,13.651101000024937,0.0,0.0,2.2858497442070878,0.0,0.0,0.09265545,0.32242527,9.79173378,0.00276,-6.3e-05,0.003676
13.67108800006099,13.67108800006099,0.0,0.0,2.2859478203013204,0.0,0.0,0.08636724,0.31883481,9.80026848,0.00469,6e-06,0.005054
13.691074999980628,13.691074999980628,0.0,0.0,2.2860383689168966,0.0,0.0,0.0836793,0.32482872,9.79712928,0.001502,-0.00023,0.00461
13.711062000016682,13.711062000016682,0.0,0.0,2.286115101922528,0.0,0.0,0.10343664,0.31090833,9.79607961,0.003667,-0.000968,0.003817
13.731049000052735,13.731049000052735,0.0,0.0,2.286181302381854,0.0,0.0,0.09385227,0.30761217,9.78859458,0.004815,-0.002795,0.003222
13.751036999979988,13.751036999979988,0.0,0.0,2.2862566264557103,0.0,0.0,0.0868185,0.31734369,9.76209777,0.002137,-0.000129,0.003753
13.771024000016041,13.771024000016041,0.0,0.0,2.286329574900199,0.0,0.0,0.10523187,0.32242527,9.7755669,0.003196,-0.000922,0.00362
13.791011000052094,13.791011000052094,0.0,0.0,2.286397402988504,0.0,0.0,0.09909081,0.3097017,9.78799617,0.003076,-0.002865,0.003332
13.810997999971732,13.810997999971732,0.0,0.0,2.2864686140634003,0.0,0.0,0.09100737,0.3270654,9.77601816,0.001958,-0.000954,0.003534
13.850973000051454,13.850973000051454,0.0,0.0,2.2866277484172173,0.0,0.0,0.09190989,0.32198382,9.77168214,0.001734,-0.002102,0.00424
13.870959999971092,13.870959999971092,0.0,0.0,2.286672881366661,0.0,0.0,0.09984618,0.30476727,9.77632227,0.002347,-0.001739,0.002192
13.890947000007145,13.890947000007145,0.0,0.0,2.2867641319097487,0.0,0.0,0.07724394,0.32332779,9.76209777,0.004759,0.000201,0.00462
13.910934000043198,13.910934000043198,0.0,0.0,2.286857417229683,0.0,0.0,0.10088604,0.31763799,9.76060665,0.001991,-0.001466,0.00473
13.930920999962837,13.930920999962837,0.0,0.0,2.2869780523751064,0.0,0.0,0.09714843,0.32138541,9.77048532,0.002881,-0.000126,0.006202
13.95090799999889,13.95090799999889,0.0,0.0,2.287080068939783,0.0,0.0,0.10059174,0.34248672,9.749227050000002,0.004718,0.004852,0.005183
13.970896000042558,13.970896000042558,0.0,0.0,2.2871475860220762,0.0,0.0,0.07933347,0.30806343,9.81628821,0.004332,0.001168,0.00329
13.990882999962196,13.990882999962196,0.0,0.0,2.28725671889638,0.0,0.0,0.11496339,0.30491442,9.85386051,0.001557,-0.002614,0.005589
14.01086999999825,14.01086999999825,0.0,0.0,2.2873412228500687,0.0,0.0,0.07559586,0.33994593,9.76180347,0.004293,-0.000514,0.004213
14.030857000034302,14.030857000034302,0.0,0.0,2.2874249085272176,0.0,0.0,0.09100737,0.31763799,9.7954812,0.002969,0.002263,0.004169
14.05084399995394,14.05084399995394,0.0,0.0,2.287505052366508,0.0,0.0,0.10747836,0.30806343,9.80969589,0.00333,-0.002064,0.003973
14.070831999997608,14.070831999997608,0.0,0.0,2.287592038058645,0.0,0.0,0.09669717,0.32227812,9.76659075,0.002899,5.2e-05,0.004361
14.090819000033662,14.090819000033662,0.0,0.0,2.2876885762173256,0.0,0.0,0.09370512,0.30761217,9.77976558,0.003173,0.000924,0.004898
14.1108059999533,14.1108059999533,0.0,0.0,2.287737314650813,0.0,0.0,0.09909081,0.31689243,9.79981722,0.004361,-0.000933,0.00219
14.130792999989353,14.130792999989353,0.0,0.0,2.28780733093915,0.0,0.0,0.08981055,0.30821058,9.77077962,0.001073,0.0005,0.003427
14.150780000025406,14.150780000025406,0.0,0.0,2.2878827199439096,0.0,0.0,0.08667135,0.32631984,9.77108373,0.004941,-0.000208,0.003742
14.190754999988712,14.190754999988712,0.0,0.0,2.2880353431860936,0.0,0.0,0.08996751,0.31374342,9.77467419,0.001336,0.000366,0.003668
14.210742000024766,14.210742000024766,0.0,0.0,2.288113902834562,0.0,0.0,0.0811287,0.31554846,9.78170796,0.006399,-0.001014,0.003931
14.210742000024766,14.210742000024766,0.0,0.0,2.28811408633217,0.0,0.0,0.0811287,0.31554846,9.78170796,0.006399,-0.001014,0.003931
14.250715999980457,14.250715999980457,0.0,0.0,2.2882928895782717,0.0,0.0,0.09445068,0.32407335,9.77108373,0.002454,-0.000689,0.005097
14.27070300001651,14.27070300001651,0.0,0.0,2.2884095862269893,0.0,0.0,0.09265545,0.3198844799999999,9.77916717,0.005642,-0.000174,0.005971
14.290691000060178,14.290691000060178,0.0,0.0,2.2885113887314024,0.0,0.0,0.09714843,0.30491442,9.77781339,0.00343,0.000774,0.005156
14.310677999979816,14.310677999979816,0.0,0.0,2.2885847600122133,0.0,0.0,0.10822392,0.329616,9.77797035,0.002654,0.000237,0.003598
14.33066500001587,14.33066500001587,0.0,0.0,2.288669382725538,0.0,0.0,0.09145863,0.3239262,9.7692885,0.004196,-0.000568,0.004223
14.350652000051923,14.350652000051923,0.0,0.0,2.2887333627408033,0.0,0.0,0.09430353,0.30670965,9.76044969,0.002752,0.000586,0.003082
14.370638999971561,14.370638999971561,0.0,0.0,2.288824224384694,0.0,0.0,0.09071307,0.30237363,9.78485697,0.005375,-0.000585,0.004589
14.390627000015229,14.390627000015229,0.0,0.0,2.2888873691611913,0.0,0.0,0.09640287,0.32242527,9.77092677,0.002229,0.001439,0.003036
14.410614000051282,14.410614000051282,0.0,0.0,2.288989098090033,0.0,0.0,0.10432935,0.32167971,9.80445735,0.002235,-6.9e-05,0.005214
14.43060099997092,14.43060099997092,0.0,0.0,2.289057521460858,0.0,0.0,0.08846658,0.31943322,9.780658290000002,0.005426,-0.000198,0.003325
14.450588000006974,14.450588000006974,0.0,0.0,2.2891596586229,0.0,0.0,0.09445068,0.31898196,9.77347737,0.002694,0.000114,0.00524
14.49056299997028,14.49056299997028,0.0,0.0,2.2893283543711522,0.0,0.0,0.0956475,0.31314501,9.77886306,0.004201,-0.001303,0.004192
14.510550000006333,14.510550000006333,0.0,0.0,2.2893967014838292,0.0,0.0,0.09864936,0.32272938,9.77032836,9.5e-05,0.000656,0.003392
14.510550000006333,14.510550000006333,0.0,0.0,2.2893844236598415,0.0,0.0,0.09864936,0.32272938,9.77032836,9.5e-05,0.000656,0.003392
14.530537000042386,14.530537000042386,0.0,0.0,2.289467251203405,0.0,0.0,0.1041822,0.3182364,9.78424875,0.003562,-0.000467,0.004165
14.570512000005692,14.570512000005692,0.0,0.0,2.2896635764745703,0.0,0.0,0.09774684,0.32467176,9.78560253,0.001608,-0.001144,0.00588
14.59050000004936,14.59050000004936,0.0,0.0,2.289749683162679,0.0,0.0,0.09385227,0.3242303099999999,9.76508982,0.004541,-0.0004,0.004308
14.610486999968998,14.610486999968998,0.0,0.0,2.2898061485346792,0.0,0.0,0.09655002,0.3122523,9.77901021,0.002814,-0.000438,0.002708
14.630474000005051,14.630474000005051,0.0,0.0,2.289925325148472,0.0,0.0,0.08876088,0.3242303099999999,9.78829047,0.003681,-3.5e-05,0.006127
14.650461000041105,14.650461000041105,0.0,0.0,2.2899909050741494,0.0,0.0,0.0928026,0.31464594,9.7812567,0.004862,-0.001164,0.003178
14.670448999968357,14.670448999968357,0.0,0.0,2.2900499049014975,0.0,0.0,0.09325386,0.31105548,9.79069392,3e-06,-0.002913,0.002824
14.69043600000441,14.69043600000441,0.0,0.0,2.290130628992082,0.0,0.0,0.109872,0.32407335,9.76778757,0.004821,-0.002256,0.004041
14.710423000040464,14.710423000040464,0.0,0.0,2.290199436918158,0.0,0.0,0.08741691,0.31165389,9.77302611,0.004094,-0.000791,0.003377
14.730409999960102,14.730409999960102,0.0,0.0,2.290284433529335,0.0,0.0,0.09774684,0.30895614,9.780658290000002,0.002185,-0.001607,0.00429
14.750396999996156,14.750396999996156,0.0,0.0,2.2903471936673903,0.0,0.0,0.09729558,0.31374342,9.79038981,0.00533,-0.000443,0.003037
14.770385000039823,14.770385000039823,0.0,0.0,2.2904330397997317,0.0,0.0,0.09520605,0.31015296,9.77362452,0.002735,-0.001507,0.00435
14.790371999959461,14.790371999959461,0.0,0.0,2.290498119785254,0.0,0.0,0.08547453,0.3129978599999999,9.75521115,0.00388,-0.0009,0.00317
14.810358999995515,14.810358999995515,0.0,0.0,2.290612083837532,0.0,0.0,0.10523187,0.3125466,9.77003406,0.006161,-0.002624,0.00595
14.830346000031568,14.830346000031568,0.0,0.0,2.2907032889741448,0.0,0.0,0.07469334,0.30402171,9.79413723,0.002291,0.001124,0.004625
14.850332999951206,14.850332999951206,0.0,0.0,2.2907830548082933,0.0,0.0,0.09295956,0.31973733,9.780962400000002,0.004634,-0.001293,0.003966
14.890308000030927,14.890308000030927,0.0,0.0,2.2909510253314043,0.0,0.0,0.09640287,0.31210515,9.77287896,0.005801,0.000195,0.004261
14.910294999950565,14.910294999950565,0.0,0.0,2.291049769080483,0.0,0.0,0.10597743,0.32976315,9.7752726,0.005161,-0.002573,0.004971
14.930281999986619,14.930281999986619,0.0,0.0,2.2911420919358667,0.0,0.0,0.08562168,0.31959018,9.76269618,0.002388,0.000492,0.004637
14.950269000022672,14.950269000022672,0.0,0.0,2.2912477386330394,0.0,0.0,0.08981055,0.31554846,9.77123088,0.002685,-0.002041,0.005347
14.970256999949925,14.970256999949925,0.0,0.0,2.29131712057341,0.0,0.0,0.09894366,0.3167452799999999,9.78500412,0.007459,0.000293,0.003397
14.990243999985978,14.990243999985978,0.0,0.0,2.29138384176181,0.0,0.0,0.09580446,0.3167452799999999,9.77422293,0.00116,0.00094,0.003256
15.010231000022031,15.010231000022031,0.0,0.0,2.2914770143862926,0.0,0.0,0.10687995,0.32617269,9.7784118,0.004108,-0.000351,0.004706
15.030218000058085,15.030218000058085,0.0,0.0,2.2915539378421688,0.0,0.0,0.07813665,0.31180104,9.7983261,0.003763,-0.001654,0.003809
15.050204999977723,15.050204999977723,0.0,0.0,2.291629114407897,0.0,0.0,0.10269108,0.32827203,9.78754491,0.000505,0.00101,0.003716
15.050204999977723,15.050204999977723,0.0,0.0,2.2916225540653556,0.0,0.0,0.10269108,0.32827203,9.78754491,0.000505,0.00101,0.003716
15.07019300002139,15.07019300002139,0.0,0.0,2.291691002849591,0.0,0.0,0.09805095,0.31330197,9.77587101,0.0042,-0.001738,0.003266
15.110166999977082,15.110166999977082,0.0,0.0,2.2918496071777827,0.0,0.0,0.09624591,0.29713509,9.78919299,0.001502,-0.001446,0.003952
15.110166999977082,15.110166999977082,0.0,0.0,2.291849217601941,0.0,0.0,0.09624591,0.29713509,9.78919299,0.001502,-0.001446,0.003952
15.110166999977082,15.110166999977082,0.0,0.0,2.2918489125756505,0.0,0.0,0.09624591,0.29713509,9.78919299,0.001502,-0.001446,0.003952
15.130154000013135,15.130154000013135,0.0,0.0,2.2919320768580675,0.0,0.0,0.09071307,0.32482872,9.79024266,0.005756,-0.001879,0.004234
15.130154000013135,15.130154000013135,0.0,0.0,2.2919350923931088,0.0,0.0,0.09071307,0.32482872,9.79024266,0.005756,-0.001879,0.004234
15.130154000013135,15.130154000013135,0.0,0.0,2.291937548562804,0.0,0.0,0.09071307,0.32482872,9.79024266,0.005756,-0.001879,0.004234
15.150142000056803,15.150142000056803,0.0,0.0,2.292022772292345,0.0,0.0,0.09744273,0.31150674,9.76823883,0.001248,-0.000157,0.004403
15.150142000056803,15.150142000056803,0.0,0.0,2.292026350374207,0.0,0.0,0.09744273,0.31150674,9.76823883,0.001248,-0.000157,0.004403
15.150142000056803,15.150142000056803,0.0,0.0,2.2920293255950606,0.0,0.0,0.09744273,0.31150674,9.76823883,0.001248,-0.000157,0.004403
15.170128999976441,15.170128999976441,0.0,0.0,2.2921101582342205,0.0,0.0,0.09580446,0.32407335,9.77871591,0.003781,-0.003375,0.003966
15.190116000012495,15.190116000012495,0.0,0.0,2.2921910471047804,0.0,0.0,0.08382645,0.30955455,9.77152518,0.003855,-0.001844,0.003992
15.210103000048548,15.210103000048548,0.0,0.0,2.2922644763364683,0.0,0.0,0.07499745,0.31210515,9.7664436,0.001689,-0.000148,0.003381
15.230089999968186,15.230089999968186,0.0,0.0,2.2923288958995283,0.0,0.0,0.09086022,0.32213097,9.765246780000002,0.004145,0.000381,0.00274
15.250078000011854,15.250078000011854,0.0,0.0,2.292415300506894,0.0,0.0,0.08412075,0.30611124,9.77467419,0.002109,-0.000464,0.00456
15.290051999967545,15.290051999967545,0.0,0.0,2.292579135854682,0.0,0.0,0.08772102,0.31194819,9.76090095,0.006977,0.002024,0.004321
15.330027000047266,15.330027000047266,0.0,0.0,2.292746494583472,0.0,0.0,0.10178856,0.32182686,9.79457868,0.003531,-4.2e-05,0.00441
15.389988000039011,15.389988000039011,0.0,0.0,2.292981816285044,0.0,0.0,0.10762551,0.32063004,9.76898439,0.005522,0.000379,0.003675
15.429963000002317,15.429963000002317,0.0,0.0,2.2931726188245056,0.0,0.0,0.07648857,0.30730806,9.77901021,0.001026,-0.001519,0.005293
15.489923999994062,15.489923999994062,0.0,0.0,2.2933956679199436,0.0,0.0,0.08067744,0.31210515,9.7841016,0.002113,-0.000159,0.003134
15.529898999957368,15.529898999957368,0.0,0.0,2.293534272414707,0.0,0.0,0.09415638,0.32242527,9.79727643,0.002037,-0.00017,0.003254
15.549884999985807,15.549884999985807,0.0,0.0,2.2935671846842407,0.0,0.0,0.08981055,0.31898196,9.78620094,0.00468,0.000749,0.002225
15.56987200002186,15.56987200002186,0.0,0.0,2.2936422952261175,0.0,0.0,0.10313253,0.31689243,9.7721334,0.003693,-0.000549,0.003722
15.589859000057913,15.589859000057913,0.0,0.0,2.2937452215465797,0.0,0.0,0.0836793,0.31194819,9.76209777,0.00271,0.000404,0.004875
15.609846999985166,15.609846999985166,0.0,0.0,2.2938347232017833,0.0,0.0,0.0836793,0.31959018,9.77077962,0.005324,-0.001396,0.004381
15.62983400002122,15.62983400002122,0.0,0.0,2.293927676371487,0.0,0.0,0.0925083,0.31090833,9.78844743,0.001397,0.001321,0.004565
15.649821000057273,15.649821000057273,0.0,0.0,2.29404752667255,0.0,0.0,0.09370512,0.329616,9.75910572,0.002488,0.000706,0.005827
15.66980799997691,15.66980799997691,0.0,0.0,2.294157823555425,0.0,0.0,0.09385227,0.31434183,9.77766624,0.005954,-0.000329,0.005444
15.689796000020579,15.689796000020579,0.0,0.0,2.2942311787330176,0.0,0.0,0.09340101,0.30491442,9.78395445,2.3e-05,-0.000348,0.003696
15.709783000056632,15.709783000056632,0.0,0.0,2.294333254326885,0.0,0.0,0.08502327,0.31614687,9.765246780000002,0.003753,-0.00016,0.005096
15.72976999997627,15.72976999997627,0.0,0.0,2.2944032015267464,0.0,0.0,0.09400923,0.31883481,9.78215922,0.004997,-0.001092,0.003495
15.749757000012323,15.749757000012323,0.0,0.0,2.2944630779439663,0.0,0.0,0.08262963,0.31749084,9.77991273,0.000661,-7.4e-05,0.002967
15.769745000055991,15.769745000055991,0.0,0.0,2.29452747122256,0.0,0.0,0.10178856,0.31854051,9.78470001,0.005581,-0.000252,0.003188
15.78973199997563,15.78973199997563,0.0,0.0,2.294574288634883,0.0,0.0,0.09220419,0.31404753,9.78141366,0.00192,-5.6e-05,0.002258
15.809719000011683,15.809719000011683,0.0,0.0,2.2946251568998965,0.0,0.0,0.10028763,0.31838355,9.78889869,0.001736,0.000167,0.002468
15.829706000047736,15.829706000047736,0.0,0.0,2.294694883800413,0.0,0.0,0.0953532,0.30790647,9.76300029,0.006442,-0.000582,0.003481
15.849692999967374,15.849692999967374,0.0,0.0,2.2947758388237265,0.0,0.0,0.08981055,0.32242527,9.77422293,0.00098,0.001453,0.00409
15.869681000011042,15.869681000011042,0.0,0.0,2.294871168650449,0.0,0.0,0.101043,0.31913892,9.796530870000002,0.003559,-0.001323,0.004873
15.889668000047095,15.889668000047095,0.0,0.0,2.2949629641672846,0.0,0.0,0.09714843,0.30880899,9.7866522,0.005206,-0.001681,0.004671
15.909654999966733,15.909654999966733,0.0,0.0,2.295026335708199,0.0,0.0,0.0868185,0.31404753,9.78874173,0.001149,0.001264,0.003091
15.929642000002787,15.929642000002787,0.0,0.0,2.2951196736812562,0.0,0.0,0.08023599,0.31150674,9.78934014,0.004998,0.000362,0.004766
15.969616999966092,15.969616999966092,0.0,0.0,2.295287279785855,0.0,0.0,0.09086022,0.3094074,9.78141366,0.002539,-0.000372,0.004452
15.989604000002146,15.989604000002146,0.0,0.0,2.295374084368773,0.0,0.0,0.1041822,0.32437746,9.7812567,0.004781,-0.001034,0.004351
16.0095910000382,16.0095910000382,0.0,0.0,2.295474837463595,0.0,0.0,0.08128566,0.31165389,9.78934014,0.001329,0.000527,0.005079
16.0095910000382,16.0095910000382,0.0,0.0,2.295489609342921,0.0,0.0,0.08128566,0.31165389,9.78934014,0.001329,0.000527,0.005079
16.049566000001505,16.049566000001505,0.0,0.0,2.2956540581189255,0.0,0.0,0.08981055,0.31629402,9.78589683,0.004139,-8e-06,0.00389
16.06955300003756,16.06955300003756,0.0,0.0,2.2957362028486354,0.0,0.0,0.0928026,0.31703958,9.7866522,0.001095,0.000714,0.004099
16.089539999957196,16.089539999957196,0.0,0.0,2.2958056322880864,0.0,0.0,0.10178856,0.3179421,9.78141366,0.005074,-0.000223,0.003409
16.109528000000864,16.109528000000864,0.0,0.0,2.295875129761688,0.0,0.0,0.09864936,0.32093415,9.77976558,0.004318,-0.000955,0.003417
16.129515000036918,16.129515000036918,0.0,0.0,2.2959917950601607,0.0,0.0,0.0865242,0.3150972,9.77496849,0.002588,0.000399,0.006019
16.149501999956556,16.149501999956556,0.0,0.0,2.2960835398410318,0.0,0.0,0.09220419,0.31030011,9.77377167,0.006305,-0.00108,0.004622
16.16948899999261,16.16948899999261,0.0,0.0,2.2961624759070496,0.0,0.0,0.09744273,0.31598991,9.79024266,0.002704,-0.000817,0.003906
16.189477000036277,16.189477000036277,0.0,0.0,2.2962473601681896,0.0,0.0,0.0868185,0.30955455,9.78739776,0.002819,-0.001,0.004243
16.209463999955915,16.209463999955915,0.0,0.0,2.2963318045263055,0.0,0.0,0.0960987599999999,0.31734369,9.764942670000002,0.005687,-0.00064,0.004219
16.22945099999197,16.22945099999197,0.0,0.0,2.2964027885335803,0.0,0.0,0.0984924,0.3242303099999999,9.78275763,0.000661,-0.001156,0.003462
16.24943800002802,16.24943800002802,0.0,0.0,2.2964919569522593,0.0,0.0,0.08248248,0.3125466,9.79084107,0.005458,-0.002396,0.0045
16.269425999955274,16.269425999955274,0.0,0.0,2.296561168069326,0.0,0.0,0.09774684,0.31524435,9.77572386,0.002753,4.7e-05,0.003365
16.289412999991328,16.289412999991328,0.0,0.0,2.296654293010974,0.0,0.0,0.10028763,0.31973733,9.77677353,0.003331,0.000801,0.004735
16.30940000002738,16.30940000002738,0.0,0.0,2.2967270355794778,0.0,0.0,0.08576883,0.30506157,9.79009551,0.004271,-0.002223,0.003566
16.349373999983072,16.349373999983072,0.0,0.0,2.296916464621896,0.0,0.0,0.08667135,0.32122845,9.7667379,0.003655,0.000264,0.005411
16.36936200002674,16.36936200002674,0.0,0.0,2.297012043103768,0.0,0.0,0.09370512,0.29697813,9.80670384,0.003642,-0.001428,0.004801
16.389349000062793,16.389349000062793,0.0,0.0,2.297082206073858,0.0,0.0,0.08023599,0.30730806,9.79173378,0.00167,-0.001175,0.003466
16.40933599998243,16.40933599998243,0.0,0.0,2.297168376332748,0.0,0.0,0.08772102,0.32318064,9.7490799,0.003635,0.000904,0.004316
16.429323000018485,16.429323000018485,0.0,0.0,2.297241931037,0.0,0.0,0.0925083,0.31689243,9.77541975,0.003923,-0.001491,0.003638
16.449311000062153,16.449311000062153,0.0,0.0,2.297313152682218,0.0,0.0,0.09595161,0.30985866,9.79682517,-0.000543,-0.000332,0.003513
16.46929799998179,16.46929799998179,0.0,0.0,2.297384166517128,0.0,0.0,0.0896634,0.32213097,9.764942670000002,0.005171,0.000737,0.003505
16.509272000053898,16.509272000053898,0.0,0.0,2.2975443087731353,0.0,0.0,0.07903917,0.32018859,9.77377167,0.001989,-0.001199,0.004012
16.52925999998115,16.52925999998115,0.0,0.0,2.2976336849943726,0.0,0.0,0.0981981,0.32182686,9.77003406,0.004907,0.000682,0.004476
16.549248000024818,16.549248000024818,0.0,0.0,2.297725147261632,0.0,0.0,0.09445068,0.32153256,9.77077962,0.001629,-3e-05,0.004589
16.56923500006087,16.56923500006087,0.0,0.0,2.297812390703897,0.0,0.0,0.10088604,0.3150972,9.78110955,0.005775,-0.002403,0.004374
16.58922199998051,16.58922199998051,0.0,0.0,2.297892232635462,0.0,0.0,0.0836793,0.30775932,9.7667379,0.0048,-0.000332,0.003985
16.609210000024177,16.609210000024177,0.0,0.0,2.2979685026293506,0.0,0.0,0.0956475,0.31045707,9.78889869,0.002742,0.000699,0.003794
16.62919700006023,16.62919700006023,0.0,0.0,2.2980452295113576,0.0,0.0,0.09729558,0.31494024,9.79173378,0.003406,-0.000728,0.003819
16.64918399997987,16.64918399997987,0.0,0.0,2.2981199333058466,0.0,0.0,0.09160578,0.31479309,9.78515127,0.002593,0.000584,0.00371
16.669171000015922,16.669171000015922,0.0,0.0,2.298204863814009,0.0,0.0,0.09176274,0.3210813,9.77362452,0.001965,-5.9e-05,0.004271
16.68915900005959,16.68915900005959,0.0,0.0,2.2982873227887737,0.0,0.0,0.10014048,0.31569561,9.7841016,0.005028,0.000223,0.004133
16.709145999979228,16.709145999979228,0.0,0.0,2.29835848396708,0.0,0.0,0.09909081,0.30895614,9.78784902,0.000885,0.001229,0.003507
16.72913300001528,16.72913300001528,0.0,0.0,2.2984342376684035,0.0,0.0,0.09056592,0.31928607,9.7607538,0.003071,-0.000657,0.003768
16.749120000051335,16.749120000051335,0.0,0.0,2.2985455666767685,0.0,0.0,0.08846658,0.31644117,9.77931432,0.005062,0.000381,0.005759
16.769107999978587,16.769107999978587,0.0,0.0,2.298617373102597,0.0,0.0,0.09879651,0.30761217,9.80371179,0.001217,0.00018,0.003519
16.78909500001464,16.78909500001464,0.0,0.0,2.2986832273528934,0.0,0.0,0.09894366,0.31703958,9.76659075,0.003525,-0.00091,0.003193
16.809082000050694,16.809082000050694,0.0,0.0,2.298758310205418,0.0,0.0,0.08772102,0.32213097,9.77826465,0.002967,0.000419,0.003727
16.829068999970332,16.829068999970332,0.0,0.0,2.2988276915716916,0.0,0.0,0.08891784,0.29952873,9.78634809,0.001074,-0.002542,0.003408
16.849057000014,16.849057000014,0.0,0.0,2.2989232543631637,0.0,0.0,0.08442486,0.32198382,9.77077962,0.00521,-0.001263,0.004902
16.869044000050053,16.869044000050053,0.0,0.0,2.2989923703644237,0.0,0.0,0.09744273,0.30297204,9.77452704,0.002816,0.000643,0.003382
16.88903099996969,16.88903099996969,0.0,0.0,2.2990738022933552,0.0,0.0,0.0836793,0.3167452799999999,9.7695828,0.004062,-0.002077,0.004094
16.909018000005744,16.909018000005744,0.0,0.0,2.2991280596139214,0.0,0.0,0.10762551,0.31718673,9.780815250000002,0.005147,0.000689,0.002541
16.929006000049412,16.929006000049412,0.0,0.0,2.299226305079955,0.0,0.0,0.10358379,0.30252078,9.78784902,0.001062,-6e-06,0.005078
16.94899299996905,16.94899299996905,0.0,0.0,2.2993070115583603,0.0,0.0,0.09504909,0.31359627,9.78470001,0.004637,-0.0011,0.004052
16.968980000005104,16.968980000005104,0.0,0.0,2.299386408233522,0.0,0.0,0.09071307,0.31689243,9.7692885,0.002865,0.000913,0.003975
16.988967000041157,16.988967000041157,0.0,0.0,2.299460610170459,0.0,0.0,0.09879651,0.31464594,9.77751909,-5.4e-05,-0.001225,0.003677
17.028942000004463,17.028942000004463,0.0,0.0,2.299623736176443,0.0,0.0,0.07978473,0.32617269,9.75865446,0.002878,-1.8e-05,0.004251
17.048929000040516,17.048929000040516,0.0,0.0,2.299696884244481,0.0,0.0,0.09116433,0.31928607,9.76164651,0.002318,0.000492,0.003646
17.068915999960154,17.068915999960154,0.0,0.0,2.2998015391300894,0.0,0.0,0.09595161,0.29818476,9.78275763,0.00404,0.000754,0.005311
17.088904000003822,17.088904000003822,0.0,0.0,2.2998862250794296,0.0,0.0,0.09295956,0.31239945,9.76628664,0.001806,0.001459,0.004245
17.108891000039876,17.108891000039876,0.0,0.0,2.2999601559223866,0.0,0.0,0.09894366,0.31015296,9.7695828,0.005117,-0.000961,0.003665
17.128877999959514,17.128877999959514,0.0,0.0,2.3000340551430902,0.0,0.0,0.09100737,0.3179421,9.76240188,0.005117,-0.000961,0.003665
17.148864999995567,17.148864999995567,0.0,0.0,2.3001034939746674,0.0,0.0,0.08292393,0.30730806,9.79383312,0.001887,0.000431,0.003423
17.168853000039235,17.168853000039235,0.0,0.0,2.300179372581592,0.0,0.0,0.08846658,0.31390038,9.79353882,0.005025,-0.000367,0.003782
17.188839999958873,17.188839999958873,0.0,0.0,2.3002551506043964,0.0,0.0,0.08562168,0.31614687,9.79937577,0.002524,4.9e-05,0.003778
17.208826999994926,17.208826999994926,0.0,0.0,2.300345268512187,0.0,0.0,0.08562168,0.31584276,9.79069392,0.003297,0.000591,0.004578
17.22881400003098,17.22881400003098,0.0,0.0,2.3004177886112434,0.0,0.0,0.09700128,0.31419468,9.77766624,0.005465,-0.001819,0.003586
17.248801999958232,17.248801999958232,0.0,0.0,2.3005026918933904,0.0,0.0,0.08248248,0.30596409,9.78605379,0.001363,0.001652,0.004286
17.268788999994285,17.268788999994285,0.0,0.0,2.300595023977973,0.0,0.0,0.0953532,0.31734369,9.78859458,0.004215,-0.000484,0.0047
17.28877600003034,17.28877600003034,0.0,0.0,2.300661055855045,0.0,0.0,0.09190989,0.31734369,9.77452704,0.002668,-0.000332,0.003204
17.308762999949977,17.308762999949977,0.0,0.0,2.300754454596605,0.0,0.0,0.10463346,0.3122523,9.78201207,0.001843,0.000781,0.004767
17.328750999993645,17.328750999993645,0.0,0.0,2.300841507051837,0.0,0.0,0.10552617,0.30641535,9.78185511,0.004873,-0.001421,0.004394
17.348738000029698,17.348738000029698,0.0,0.0,2.300927944624261,0.0,0.0,0.0896634,0.32542713,9.77018121,0.001269,0.000473,0.004354
17.368724999949336,17.368724999949336,0.0,0.0,2.301013224463267,0.0,0.0,0.10088604,0.3324609,9.77871591,0.002396,-0.001506,0.004284
17.38871199998539,17.38871199998539,0.0,0.0,2.30107299235444,0.0,0.0,0.07693983,0.29982303,9.78919299,0.004784,-4e-05,0.002826
17.428686999948695,17.428686999948695,0.0,0.0,2.3012132888519012,0.0,0.0,0.08128566,0.31689243,9.7582032,0.004478,-0.000509,0.003008
17.44867399998475,17.44867399998475,0.0,0.0,2.3012828833434806,0.0,0.0,0.09789399,0.31943322,9.76584519,0.005686,-0.001156,0.003467
17.468661000020802,17.468661000020802,0.0,0.0,2.3013895500011756,0.0,0.0,0.0868185,0.3097017,9.77512545,0.00197,-5e-05,0.005421
17.488648999948055,17.488648999948055,0.0,0.0,2.3014597519808566,0.0,0.0,0.0808344,0.31180104,9.77317326,0.004583,-0.002023,0.003479
17.508635999984108,17.508635999984108,0.0,0.0,2.301515598848596,0.0,0.0,0.08248248,0.31614687,9.76749327,0.00156,-0.000633,0.002707
17.52862300002016,17.52862300002016,0.0,0.0,2.3016196401317313,0.0,0.0,0.09100737,0.31584276,9.78141366,0.002028,0.00041,0.005327
17.5486090000486,17.5486090000486,0.0,0.0,2.301683282061026,0.0,0.0,0.09116433,0.31210515,9.76329459,0.004988,-0.0006,0.00311
17.568596999975853,17.568596999975853,0.0,0.0,2.3017758545195566,0.0,0.0,0.09504909,0.31913892,9.78589683,-0.000277,0.001381,0.004708
17.588584000011906,17.588584000011906,0.0,0.0,2.3018550399762647,0.0,0.0,0.09265545,0.32782077,9.75716334,0.004723,-0.000461,0.00396
17.60857100004796,17.60857100004796,0.0,0.0,2.3019438915975172,0.0,0.0,0.08861373,0.30806343,9.79787484,0.004293,0.00032,0.004498
17.628557999967597,17.628557999967597,0.0,0.0,2.302042992438171,0.0,0.0,0.10059174,0.32153256,9.79533405,8e-06,0.000854,0.005065
17.648546000011265,17.648546000011265,0.0,0.0,2.3021150834978634,0.0,0.0,0.09759969,0.32586858,9.768533130000002,0.005377,-0.000451,0.003537
17.66853300004732,17.66853300004732,0.0,0.0,2.302195084569748,0.0,0.0,0.08337519,0.30491442,9.77721498,0.003557,0.000714,0.003991
17.688519999966957,17.688519999966957,0.0,0.0,2.3022631581940223,0.0,0.0,0.09520605,0.31703958,9.77916717,0.004114,0.001161,0.003319
17.70850700000301,17.70850700000301,0.0,0.0,2.302353042706816,0.0,0.0,0.0953532,0.32452461,9.78215922,0.004252,-0.001826,0.004565
17.728495000046678,17.728495000046678,0.0,0.0,2.3024430899159753,0.0,0.0,0.09100737,0.31270356,9.78754491,0.004252,-0.001826,0.004565
17.748481999966316,17.748481999966316,0.0,0.0,2.302519257237109,0.0,0.0,0.09640287,0.30985866,9.77496849,0.003383,-0.000933,0.003768
17.76846900000237,17.76846900000237,0.0,0.0,2.3026131779016286,0.0,0.0,0.09310671,0.32856633,9.79533405,0.004237,-0.000444,0.004785
17.788456000038423,17.788456000038423,0.0,0.0,2.302684359694938,0.0,0.0,0.08726976,0.31763799,9.78934014,0.000264,-0.001311,0.003476
17.808443999965675,17.808443999965675,0.0,0.0,2.3027694813864166,0.0,0.0,0.09669717,0.30895614,9.78725061,0.003662,-0.001058,0.004284
17.82843100000173,17.82843100000173,0.0,0.0,2.3028529308517705,0.0,0.0,0.08876088,0.31210515,9.79323471,0.003649,0.000121,0.004185
17.86840499995742,17.86840499995742,0.0,0.0,2.3030189767138847,0.0,0.0,0.08217837,0.31854051,9.796678020000002,0.005512,-0.00098,0.004193
17.888393000001088,17.888393000001088,0.0,0.0,2.303091677695524,0.0,0.0,0.09805095,0.31390038,9.77317326,0.001374,0.001647,0.003616
17.90838000003714,17.90838000003714,0.0,0.0,2.303163259132602,0.0,0.0,0.0805302899999999,0.31180104,9.7929306,0.002451,-0.00227,0.003555
17.92836699995678,17.92836699995678,0.0,0.0,2.3031999157449974,0.0,0.0,0.09056592,0.30177522,9.76838598,0.004607,-0.000549,0.00169
17.948353999992833,17.948353999992833,0.0,0.0,2.303275492834773,0.0,0.0,0.09011466,0.31913892,9.77871591,0.003166,-0.000546,0.00379
17.9683420000365,17.9683420000365,0.0,0.0,2.3033603949810004,0.0,0.0,0.09190989,0.30716091,9.79742358,0.005108,-0.000657,0.004296
17.98832899995614,17.98832899995614,0.0,0.0,2.303410342409828,0.0,0.0,0.0811287,0.31194819,9.780815250000002,0.003882,-0.000755,0.00238
18.008315999992192,18.008315999992192,0.0,0.0,2.3035033767260042,0.0,0.0,0.10223982,0.32242527,9.78215922,0.002258,-0.000522,0.004763
18.028303000028245,18.028303000028245,0.0,0.0,2.3035859979974918,0.0,0.0,0.08921214,0.31239945,9.77646942,0.00351,0.000472,0.004176
18.048290999955498,18.048290999955498,0.0,0.0,2.3036535218780045,0.0,0.0,0.10119015,0.30206952,9.780511140000002,0.002328,0.00126,0.003331
18.06827799999155,18.06827799999155,0.0,0.0,2.303761281044382,0.0,0.0,0.08352234,0.31479309,9.77092677,0.003796,-0.000582,0.005586
18.088265000027604,18.088265000027604,0.0,0.0,2.3038481539344735,0.0,0.0,0.09131148,0.3150972,9.79443153,0.004535,2.6e-05,0.004391
18.108251999947242,18.108251999947242,0.0,0.0,2.3039378402553403,0.0,0.0,0.1064286899999999,0.32182686,9.78141366,0.001484,0.001144,0.004544
18.12823999999091,18.12823999999091,0.0,0.0,2.304043468660284,0.0,0.0,0.08547453,0.31479309,9.77751909,0.005399,-0.000414,0.005437
18.148227000026964,18.148227000026964,0.0,0.0,2.3041141579116307,0.0,0.0,0.08532738,0.31150674,9.79084107,0.003346,0.000393,0.003439
18.168214000063017,18.168214000063017,0.0,0.0,2.304205198547465,0.0,0.0,0.0896634,0.31180104,9.78739776,0.001626,-4.8e-05,0.004607
18.188200999982655,18.188200999982655,0.0,0.0,2.304278038999838,0.0,0.0,0.09430353,0.31105548,9.77781339,0.004596,-0.001803,0.003565
18.208189000026323,18.208189000026323,0.0,0.0,2.3043474789120797,0.0,0.0,0.09295956,0.31778514,9.78320889,0.002665,0.001371,0.003382
18.228176000062376,18.228176000062376,0.0,0.0,2.304449609166518,0.0,0.0,0.07559586,0.31434183,9.7692885,0.002516,0.000916,0.00526
18.248162999982014,18.248162999982014,0.0,0.0,2.30454349771391,0.0,0.0,0.09968922,0.3198844799999999,9.780962400000002,0.005358,-0.000233,0.004768
18.268150000018068,18.268150000018068,0.0,0.0,2.304619953428867,0.0,0.0,0.09460764,0.32736951,9.76240188,0.0017,0.000397,0.003761
18.288138000061736,18.288138000061736,0.0,0.0,2.304699623288009,0.0,0.0,0.0836793,0.32811507,9.78529842,0.005328,-0.001622,0.003954
18.308124999981374,18.308124999981374,0.0,0.0,2.304769538753728,0.0,0.0,0.10014048,0.32213097,9.79009551,0.003551,-0.000373,0.0034
18.328112000017427,18.328112000017427,0.0,0.0,2.3048617908475952,0.0,0.0,0.09100737,0.31703958,9.7841016,0.001097,0.000645,0.004695
18.368086999980733,18.368086999980733,0.0,0.0,2.3050045300481816,0.0,0.0,0.10343664,0.30850488,9.78245352,0.003434,-0.001376,0.002951
18.388074000016786,18.388074000016786,0.0,0.0,2.3050922995394636,0.0,0.0,0.1050847199999999,0.3153915,9.77302611,0.001211,-0.000792,0.00441
18.40806100005284,18.40806100005284,0.0,0.0,2.3051355839385295,0.0,0.0,0.0836793,0.32167971,9.77677353,0.005535,-0.000277,0.002058
18.428047999972478,18.428047999972478,0.0,0.0,2.305204115435946,0.0,0.0,0.09176274,0.31703958,9.77182929,0.00212,3.8e-05,0.003406
18.448036000016145,18.448036000016145,0.0,0.0,2.3053043556626136,0.0,0.0,0.09729558,0.30221667,9.78245352,0.002004,0.000641,0.005117
18.4680230000522,18.4680230000522,0.0,0.0,2.3054049830573593,0.0,0.0,0.09445068,0.32227812,9.76060665,0.006382,0.001314,0.005133
18.488009999971837,18.488009999971837,0.0,0.0,2.305478608619204,0.0,0.0,0.0960987599999999,0.31598991,9.780815250000002,0.00318,-0.000322,0.003647
18.50799700000789,18.50799700000789,0.0,0.0,2.305557293633383,0.0,0.0,0.08532738,0.30955455,9.79727643,0.003847,0.000878,0.003929
18.527985000051558,18.527985000051558,0.0,0.0,2.3056318737893147,0.0,0.0,0.08636724,0.32258223,9.78424875,0.002808,0.000552,0.003702
18.547971999971196,18.547971999971196,0.0,0.0,2.3057154075169386,0.0,0.0,0.09236115,0.30790647,9.77168214,0.002927,-7.8e-05,0.004204
18.56795900000725,18.56795900000725,0.0,0.0,2.3058041030716154,0.0,0.0,0.08442486,0.31614687,9.78529842,0.0048,-0.000756,0.00449
18.587946000043303,18.587946000043303,0.0,0.0,2.305892908408085,0.0,0.0,0.09460764,0.31524435,9.78245352,0.0048,-0.000756,0.00449
18.607933999970555,18.607933999970555,0.0,0.0,2.306014658345492,0.0,0.0,0.08667135,0.30326634,9.77797035,0.0016,0.001366,0.00634
18.62792100000661,18.62792100000661,0.0,0.0,2.3061040774208745,0.0,0.0,0.08876088,0.30746502,9.79907166,0.003963,-0.001712,0.004482
18.647908000042662,18.647908000042662,0.0,0.0,2.306160236550367,0.0,0.0,0.09655002,0.31344912,9.78170796,0.001224,-0.001005,0.002597
18.6678949999623,18.6678949999623,0.0,0.0,2.3062413503498718,0.0,0.0,0.08935929,0.33050871,9.77496849,0.004652,0.000121,0.004042
18.687883000005968,18.687883000005968,0.0,0.0,2.3063233259628646,0.0,0.0,0.0839736,0.31943322,9.79338186,0.004999,0.001137,0.004093
18.70787000004202,18.70787000004202,0.0,0.0,2.306427568356355,0.0,0.0,0.0896634,0.3129978599999999,9.79189074,0.001407,-0.001295,0.005363
