timestamp,accel_x,accel_y,accel_z,gyro_x,gyro_y,gyro_z,mag_x,mag_y,mag_z,gps_lat,gps_lon,gps_alt,gps_accuracy,gps_speed,gps_course,pressure,altitude,roll,pitch,yaw
879987.24729,-0.08308089000000002,-0.16375833,-9.799218810000001,0.001213,0.000208,0.004339,-76.819168,97.008667,-208.790619,60.187685,24.830143,13.210769,7.174423,-1.0,-1.0,100.068024,0.694931,-0.008773,0.015958,0.314923
879987.267276,-0.09295956000000001,-0.14400099,-9.80865603,0.001622,-0.000832,0.002943,-76.579834,96.975601,-209.156616,60.187685,24.830143,13.210769,7.174423,-1.0,-1.0,100.068024,0.694931,-0.008776,0.015952,0.314923
879987.287262,-0.08622009,-0.15851979,-9.82975734,0.002902,-0.00267,0.005269,-76.579834,96.975601,-209.156616,60.187685,24.830143,13.210769,7.174423,-1.0,-1.0,100.068024,0.694931,-0.008767,0.015937,0.314919
879987.307248,-0.07724394000000001,-0.15418377,-9.80820477,0.003826,-1.5e-05,0.003886,-76.579758,97.147308,-209.069946,60.187685,24.830143,13.210769,7.174423,-1.0,-1.0,100.068024,0.694931,-0.008766,0.015933,0.314924
879987.327234,-0.08741691000000001,-0.15014205,-9.833946209999999,0.002736,5.6e-05,0.003944,-76.606064,97.062286,-208.921524,60.187685,24.830143,13.210769,7.174423,-1.0,-1.0,100.068024,0.694931,-0.008774,0.015938,0.314915
879987.34722,-0.08816247,-0.15342840000000002,-9.815689800000001,0.003906,-0.000773,0.004238,-76.722702,97.062195,-209.053925,60.187685,24.830143,13.210769,7.174423,-1.0,-1.0,100.068024,0.694931,-0.008782,0.015932,0.31492
879987.367206,-0.09145863,-0.16241436,-9.82497006,0.002602,-0.000778,0.004809,-76.643906,96.87558,-209.040649,60.187685,24.830143,13.210769,7.174423,-1.0,-1.0,100.068024,0.694931,-0.008791,0.015931,0.31493
879987.387192,-0.0896634,-0.15777423000000002,-9.8333478,0.003722,-0.001127,0.004873,-76.544342,97.134537,-209.097183,60.187685,24.830143,13.210769,7.174423,-1.0,-1.0,100.068619,0.647369,-0.0088,0.015937,0.31494
879987.427165,-0.09040896000000001,-0.15237873000000002,-9.84532581,0.003874,0.000185,0.003937,-76.493134,97.042618,-208.985794,60.187685,24.830143,13.210769,7.174423,-1.0,-1.0,100.068619,0.647369,-0.008796,0.015935,0.314959
879987.427165,-0.09040896000000001,-0.15237873000000002,-9.84532581,0.003874,0.000185,0.003937,-76.493134,97.042618,-208.985794,60.187685,24.830143,13.210769,7.174423,-1.0,-1.0,100.068619,0.647369,-0.008796,0.015935,0.314959
879987.467137,-0.09475478999999999,-0.14759145,-9.80535987,0.004751,0.001248,0.005672,-76.657852,97.081635,-208.871643,60.187685,24.830143,13.210769,7.174423,-1.0,-1.0,100.068619,0.647369,-0.00879,0.015939,0.314943
879987.467137,-0.09475478999999999,-0.14759145,-9.80535987,0.004751,0.001248,0.005672,-76.657852,97.081635,-208.871643,60.187685,24.830143,13.210769,7.174423,-1.0,-1.0,100.068619,0.647369,-0.00879,0.015939,0.314943
879987.507109,-0.09295956000000001,-0.15402681000000001,-9.80206371,0.003762,-0.00014,0.003166,-76.345901,97.169525,-208.910324,60.187685,24.830143,13.210769,7.174423,-1.0,-1.0,100.068619,0.647369,-0.00877,0.01594,0.314942
879987.507109,-0.09295956000000001,-0.15402681000000001,-9.80206371,0.003762,-0.00014,0.003166,-76.345901,97.169525,-208.910324,60.187685,24.830143,13.210769,7.174423,-1.0,-1.0,100.068619,0.647369,-0.00877,0.01594,0.314942
879987.547081,-0.07454619,-0.15478218000000002,-9.791135370000001,0.003608,0.001233,0.004929,-76.544083,97.075806,-209.153137,60.187685,24.830143,13.210769,7.174423,-1.0,-1.0,100.068619,0.647369,-0.008771,0.015942,0.314935
879987.547081,-0.07454619,-0.15478218000000002,-9.791135370000001,0.003608,0.001233,0.004929,-76.544083,97.075806,-209.153137,60.187685,24.830143,13.210769,7.174423,-1.0,-1.0,100.068619,0.647369,-0.008771,0.015942,0.314935
879987.587053,-0.08502327,-0.14954364,-9.81119682,0.003738,0.000614,0.003589,-76.346252,97.142426,-209.005325,60.187685,24.830143,13.210769,7.174423,-1.0,-1.0,100.068619,0.647369,-0.008768,0.015932,0.314976
879987.587053,-0.08502327,-0.14954364,-9.81119682,0.003738,0.000614,0.003589,-76.346252,97.142426,-209.005325,60.187685,24.830143,13.210769,7.174423,-1.0,-1.0,100.068619,0.647369,-0.008768,0.015932,0.314976
879987.627025,-0.08352234000000001,-0.16061913,-9.824371650000002,0.003594,-0.000434,0.003431,-76.572403,97.018799,-208.755234,60.187685,24.830143,13.210769,7.174423,-1.0,-1.0,100.068619,0.647369,-0.008753,0.015925,0.314973
879987.627025,-0.08352234000000001,-0.16061913,-9.824371650000002,0.003594,-0.000434,0.003431,-76.572403,97.018799,-208.755234,60.187685,24.830143,13.210769,7.174423,-1.0,-1.0,100.068619,0.647369,-0.008753,0.015925,0.314973
879987.666997,-0.09475478999999999,-0.15956946,-9.828707670000002,0.002261,-0.001953,0.004442,-76.460327,97.146667,-208.602112,60.187685,24.830143,13.210769,7.174423,-1.0,-1.0,100.068619,0.647369,-0.008762,0.015937,0.314976
879987.666997,-0.09475478999999999,-0.15956946,-9.828707670000002,0.002261,-0.001953,0.004442,-76.460327,97.146667,-208.602112,60.187685,24.830143,13.210769,7.174423,-1.0,-1.0,100.068619,0.647369,-0.008762,0.015937,0.314976
879987.706969,-0.09370512,-0.14804271000000002,-9.820025820000001,0.00327,-0.001514,0.002886,-76.751068,96.879852,-209.384384,60.187685,24.830143,13.210769,7.174423,-1.0,-1.0,100.068619,0.647369,-0.008773,0.015928,0.315013
879987.706969,-0.09370512,-0.14804271000000002,-9.820025820000001,0.00327,-0.001514,0.002886,-76.751068,96.879852,-209.384384,60.187685,24.830143,13.210769,7.174423,-1.0,-1.0,100.068619,0.647369,-0.008773,0.015928,0.315013
879987.746941,-0.09520605,-0.13936086,-9.79233219,0.00394,0.000637,0.00473,-76.605469,97.09314,-209.133179,60.187685,24.830143,13.210769,7.174423,-1.0,-1.0,100.068619,0.647369,-0.008777,0.015953,0.315016
879987.746941,-0.09520605,-0.13936086,-9.79233219,0.00394,0.000637,0.00473,-76.605469,97.09314,-209.133179,60.187685,24.830143,13.210769,7.174423,-1.0,-1.0,100.068619,0.647369,-0.008777,0.015953,0.315016
879987.786913,-0.09834525,-0.15313410000000002,-9.7894971,0.005652,0.001847,0.00528,-76.671738,96.998779,-209.100998,60.187685,24.830143,13.210769,7.174423,-1.0,-1.0,100.068619,0.647369,-0.008771,0.015979,0.31503
879987.786913,-0.09834525,-0.15313410000000002,-9.7894971,0.005652,0.001847,0.00528,-76.671738,96.998779,-209.100998,60.187685,24.830143,13.210769,7.174423,-1.0,-1.0,100.068619,0.647369,-0.008771,0.015979,0.31503
879987.826885,-0.09011466,-0.15687171,-9.827363700000001,0.00214,-0.00087,0.004653,-76.63942,97.008301,-208.924667,60.187685,24.830143,13.210769,7.174423,-1.0,-1.0,100.068619,0.647369,-0.008765,0.015989,0.315058
879987.826885,-0.09011466,-0.15687171,-9.827363700000001,0.00214,-0.00087,0.004653,-76.63942,97.008301,-208.924667,60.187685,24.830143,13.210769,7.174423,-1.0,-1.0,100.068619,0.647369,-0.008765,0.015989,0.315058
879987.866857,-0.10687995,-0.14983794,-9.83934171,0.002363,4.2e-05,0.003372,-76.619919,97.028,-208.823166,60.187685,24.830143,13.210769,7.174423,-1.0,-1.0,100.068619,0.647369,-0.008764,0.015971,0.315063
879987.886844,-0.08846658,-0.16091343000000002,-9.80670384,0.003759,0.000395,0.006637,-76.558914,97.106918,-208.66716,60.187685,24.830143,13.210769,7.174423,-1.0,-1.0,100.068619,0.647369,-0.008772,0.015946,0.315057
879987.90683,-0.08622009,-0.15418377,-9.83769363,0.003104,0.000458,0.005222,-76.647812,97.190735,-208.64769,60.187685,24.830143,13.210769,7.174423,-1.0,-1.0,100.068619,0.647369,-0.008761,0.01595,0.315079
879987.926816,-0.08622009,-0.15777423000000002,-9.80760636,0.002931,0.000373,0.004703,-76.814072,96.960281,-209.087982,60.187685,24.830143,13.210769,7.174423,-1.0,-1.0,100.068619,0.647369,-0.008765,0.015935,0.315078
879987.946802,-0.09145863,-0.14490351,-9.81209934,0.002833,-0.000328,0.004897,-76.605164,97.1064,-209.000031,60.187685,24.830143,13.210769,7.174423,-1.0,-1.0,100.068619,0.647369,-0.008763,0.015925,0.315069
879987.966788,-0.08502327,-0.1562733,-9.81718092,0.002621,-0.001497,0.004931,-76.647827,97.155014,-208.894104,60.187685,24.830143,13.210769,7.174423,-1.0,-1.0,100.068619,0.647369,-0.008759,0.015913,0.315074
879987.986774,-0.09026181000000001,-0.14505066000000003,-9.8014653,0.004475,-1.1e-05,0.005657,-76.686447,97.073196,-209.137527,60.187685,24.830143,13.210769,7.174423,-1.0,-1.0,100.068619,0.647369,-0.008778,0.015891,0.315085
879988.00676,-0.0865242,-0.15433092,-9.83918475,0.003397,0.001256,0.005118,-76.686447,97.073196,-209.137527,60.187685,24.830143,13.210769,7.174423,-1.0,-1.0,100.068619,0.647369,-0.008785,0.0159,0.315077
879988.026746,-0.09490194,-0.15701886,-9.7926363,0.004077,8.4e-05,0.004446,-76.694763,96.955841,-208.828506,60.187685,24.830143,13.210769,7.174423,-1.0,-1.0,100.068619,0.647369,-0.008786,0.015905,0.315074
879988.046732,-0.06975891000000001,-0.14969079000000002,-9.811795230000001,0.00216,-0.000628,0.003293,-76.546082,97.084702,-209.150101,60.187685,24.830143,13.210769,7.174423,-1.0,-1.0,100.068619,0.647369,-0.008788,0.015914,0.315075
879988.066718,-0.10059174,-0.15538058999999999,-9.81509139,0.001901,0.000359,0.004588,-76.692413,97.085892,-208.826706,60.187685,24.830143,13.210769,7.174423,-1.0,-1.0,100.068619,0.647369,-0.008793,0.015914,0.31507
879988.086704,-0.09236115,-0.15433092,-9.80071974,0.004154,0.000889,0.00365,-76.823257,96.913422,-208.76149,60.187685,24.830143,13.210769,7.174423,-1.0,-1.0,100.068619,0.647369,-0.008787,0.015896,0.315078
879988.10669,-0.09595161,-0.15582204,-9.82332198,0.002576,0.000394,0.003669,-76.773148,97.093842,-208.860275,60.187685,24.830143,13.210769,7.174423,-1.0,-1.0,100.068619,0.647369,-0.008778,0.015901,0.315087
879988.146662,-0.08891784,-0.15208443,-9.820928340000002,0.002982,-0.001436,0.005224,-76.674423,97.055801,-208.60556,60.187685,24.830143,13.210769,7.174423,-1.0,-1.0,100.068619,0.647369,-0.008768,0.015896,0.31511
879988.146662,-0.08891784,-0.15208443,-9.820928340000002,0.002982,-0.001436,0.005224,-76.674423,97.055801,-208.60556,60.187685,24.830143,13.210769,7.174423,-1.0,-1.0,100.068619,0.647369,-0.008768,0.015896,0.31511
879988.186634,-0.09490194,-0.14699304000000002,-9.827814960000001,0.003138,0.000628,0.005169,-76.687515,97.336075,-209.071259,60.187685,24.830143,13.210769,7.174423,-1.0,-1.0,100.068619,0.647369,-0.008781,0.01589,0.315126
879988.186634,-0.09490194,-0.14699304000000002,-9.827814960000001,0.003138,0.000628,0.005169,-76.687515,97.336075,-209.071259,60.187685,24.830143,13.210769,7.174423,-1.0,-1.0,100.068619,0.647369,-0.008781,0.01589,0.315126
879988.20662,-0.09190989000000001,-0.14773860000000003,-9.81823059,0.002158,-0.000202,0.003852,-76.643158,97.40976,-208.945709,60.187685,24.830143,13.210769,7.174423,-1.0,-1.0,100.068619,0.647369,-0.008771,0.015888,0.315124
879988.226606,-0.08772102000000001,-0.16825131000000002,-9.80895033,0.003487,-0.000788,0.003788,-76.543503,97.193573,-209.105759,60.187685,24.830143,13.210769,7.174423,-1.0,-1.0,100.068619,0.647369,-0.008772,0.015881,0.315121
879988.266578,-0.08726976,-0.14804271000000002,-9.81628821,0.005024,-0.000288,0.002787,-76.684647,97.209747,-208.956451,60.187685,24.830143,13.210769,7.174423,-1.0,-1.0,100.068619,0.647369,-0.008784,0.015878,0.315124
879988.266578,-0.08726976,-0.14804271000000002,-9.81628821,0.005024,-0.000288,0.002787,-76.684647,97.209747,-208.956451,60.187685,24.830143,13.210769,7.174423,-1.0,-1.0,100.068619,0.647369,-0.008784,0.015878,0.315124
879988.30655,-0.09026181000000001,-0.15552774,-9.83065986,0.002439,-0.000312,0.00457,-76.679901,97.253159,-208.93306,60.187685,24.830143,13.210769,7.174423,-1.0,-1.0,100.068619,0.647369,-0.008796,0.015879,0.315112
879988.30655,-0.09026181000000001,-0.15552774,-9.83065986,0.002439,-0.000312,0.00457,-76.679901,97.253159,-208.93306,60.187685,24.830143,13.210769,7.174423,-1.0,-1.0,100.068619,0.647369,-0.008796,0.015879,0.315112
879988.346522,-0.08622009,-0.15088761,-9.82377324,0.002514,0.000753,0.004302,-76.815903,97.109192,-208.869263,60.187685,24.830143,13.210769,7.174423,-1.0,-1.0,100.068619,0.647369,-0.008806,0.015867,0.315132
879988.346522,-0.08622009,-0.15088761,-9.82377324,0.002514,0.000753,0.004302,-76.815903,97.109192,-208.869263,60.187685,24.830143,13.210769,7.174423,-1.0,-1.0,100.068619,0.647369,-0.008806,0.015867,0.315132
879988.386494,-0.09849240000000001,-0.15268284000000001,-9.802966230000001,0.002038,-0.000549,0.003182,-76.874786,96.934875,-208.642746,60.187685,24.830143,13.210769,7.174423,-1.0,-1.0,100.068619,0.647369,-0.008798,0.015847,0.315132
879988.386494,-0.09849240000000001,-0.15268284000000001,-9.802966230000001,0.002038,-0.000549,0.003182,-76.874786,96.934875,-208.642746,60.187685,24.830143,13.210769,7.174423,-1.0,-1.0,100.068619,0.647369,-0.008798,0.015847,0.315132
879988.426466,-0.09355797,-0.14010642,-9.79892451,0.002473,0.000221,0.004853,-76.704926,97.077042,-208.857864,60.187685,24.830143,13.210769,7.174423,-1.0,-1.0,100.068619,0.647369,-0.008819,0.015839,0.31512
879988.426466,-0.09355797,-0.14010642,-9.79892451,0.002473,0.000221,0.004853,-76.704926,97.077042,-208.857864,60.187685,24.830143,13.210769,7.174423,-1.0,-1.0,100.068619,0.647369,-0.008819,0.015839,0.31512
879988.466438,-0.08726976,-0.16315992,-9.79742358,0.003811,0.000618,0.003612,-76.542007,97.087143,-208.924271,60.187685,24.830143,13.210769,7.174423,-1.0,-1.0,100.068939,0.618309,-0.008811,0.015834,0.31513
879988.466438,-0.08726976,-0.16315992,-9.79742358,0.003811,0.000618,0.003612,-76.542007,97.087143,-208.924271,60.187685,24.830143,13.210769,7.174423,-1.0,-1.0,100.068939,0.618309,-0.008811,0.015834,0.31513
879988.50641,-0.09160578000000001,-0.15014205,-9.81808344,0.002685,0.000353,0.004597,-76.387039,97.075119,-208.959427,60.187685,24.830143,13.210769,7.174423,-1.0,-1.0,100.068939,0.618309,-0.008815,0.015831,0.315118
879988.50641,-0.09160578000000001,-0.15014205,-9.81808344,0.002685,0.000353,0.004597,-76.387039,97.075119,-208.959427,60.187685,24.830143,13.210769,7.174423,-1.0,-1.0,100.068939,0.618309,-0.008815,0.015831,0.315118
879988.546382,-0.08816247,-0.14220576000000001,-9.828266220000001,0.004082,-0.000999,0.005102,-76.670883,96.972519,-208.751694,60.187685,24.830143,13.210769,7.174423,-1.0,-1.0,100.068939,0.618309,-0.008854,0.015836,0.31512
879988.546382,-0.08816247,-0.14220576000000001,-9.828266220000001,0.004082,-0.000999,0.005102,-76.670883,96.972519,-208.751694,60.187685,24.830143,13.210769,7.174423,-1.0,-1.0,100.068939,0.618309,-0.008854,0.015836,0.31512
879988.586354,-0.09325386000000001,-0.15074046,-9.81688662,0.002576,0.000153,0.00397,-76.34256,97.076401,-208.849182,60.187685,24.830143,13.210769,7.174423,-1.0,-1.0,100.068939,0.618309,-0.008835,0.015849,0.315116
879988.586354,-0.09325386000000001,-0.15074046,-9.81688662,0.002576,0.000153,0.00397,-76.34256,97.076401,-208.849182,60.187685,24.830143,13.210769,7.174423,-1.0,-1.0,100.068939,0.618309,-0.008835,0.015849,0.315116
879988.626326,-0.09310671,-0.15612615,-9.807459210000001,0.003555,0.000258,0.003218,-76.434326,97.199738,-209.103058,60.187685,24.830143,13.210769,7.174423,-1.0,-1.0,100.068939,0.618309,-0.008815,0.015874,0.315112
879988.626326,-0.09310671,-0.15612615,-9.807459210000001,0.003555,0.000258,0.003218,-76.434326,97.199738,-209.103058,60.187685,24.830143,13.210769,7.174423,-1.0,-1.0,100.068939,0.618309,-0.008815,0.015874,0.315112
879988.666298,-0.09236115,-0.14579622,-9.81329616,0.004103,0.000847,0.003905,-76.731583,97.074036,-208.672699,60.187685,24.830143,13.210769,7.174423,-1.0,-1.0,100.068939,0.618309,-0.008805,0.015874,0.315107
879988.686284,-0.08876088000000001,-0.14474655,-9.82377324,0.002792,-0.000583,0.003574,-76.720322,97.08847,-209.007767,60.187685,24.830143,13.210769,7.174423,-1.0,-1.0,100.068939,0.618309,-0.008793,0.015885,0.315122
879988.70627,-0.08067744,-0.14699304000000002,-9.80640954,0.003787,-0.00036,0.003995,-76.560638,97.166031,-208.669449,60.187685,24.830143,13.210769,7.174423,-1.0,-1.0,100.068939,0.618309,-0.008795,0.015877,0.315128
879988.726256,-0.09714843000000001,-0.14429529,-9.82257642,0.001855,-4.5e-05,0.003275,-76.560638,97.166031,-208.669449,60.187685,24.830143,13.210769,7.174423,-1.0,-1.0,100.068939,0.618309,-0.008797,0.015879,0.315122
879988.746242,-0.09160578000000001,-0.15822549000000002,-9.80655669,0.003355,-0.000855,0.004212,-76.694199,97.236618,-209.006149,60.187685,24.830143,13.210769,7.174423,-1.0,-1.0,100.068939,0.618309,-0.008795,0.015877,0.315116
879988.766228,-0.09056592000000001,-0.15118191,-9.796678020000002,0.003674,-0.00021,0.00534,-76.531143,97.155151,-208.994919,60.187685,24.830143,13.210769,7.174423,-1.0,-1.0,100.068939,0.618309,-0.008799,0.015875,0.315123
879988.786214,-0.0896634,-0.15552774,-9.81299205,0.003661,0.000424,0.003937,-76.673615,97.390854,-209.256561,60.187685,24.830143,13.210769,7.174423,-1.0,-1.0,100.068939,0.618309,-0.008799,0.01587,0.315122
879988.8062,-0.08756406,-0.15762708,-9.81733788,0.002597,0.000202,0.004144,-76.592926,97.184082,-208.958252,60.187685,24.830143,13.210769,7.174423,-1.0,-1.0,100.068939,0.618309,-0.008799,0.015864,0.315131
879988.826187,-0.08098155,-0.14519781,-9.81509139,0.003764,-0.000271,0.004771,-76.608444,97.274963,-208.953705,60.187685,24.830143,13.210769,7.174423,-1.0,-1.0,100.068939,0.618309,-0.008801,0.015859,0.315142
879988.846173,-0.09355797,-0.14385384,-9.813139200000002,0.002862,-0.001437,0.003982,-76.616623,97.000824,-208.778152,60.187685,24.830143,13.210769,7.174423,-1.0,-1.0,100.068939,0.618309,-0.008804,0.015863,0.315147
879988.866159,-0.08772102000000001,-0.14773860000000003,-9.82107549,0.001685,-0.000571,0.004153,-76.641495,97.05629,-209.209915,60.187685,24.830143,13.210769,7.174423,-1.0,-1.0,100.068939,0.618309,-0.008806,0.015863,0.315135
879988.886145,-0.0896634,-0.14714019,-9.81373761,0.003352,-0.000311,0.003257,-76.597916,97.176361,-208.901184,60.187685,24.830143,13.210769,7.174423,-1.0,-1.0,100.068939,0.618309,-0.008809,0.015848,0.315141
879988.906131,-0.09205704,-0.15268284000000001,-9.824371650000002,0.004,-0.000812,0.004873,-76.327377,97.156754,-208.930115,60.187685,24.830143,13.210769,7.174423,-1.0,-1.0,100.068939,0.618309,-0.008808,0.015848,0.315131
879988.946103,-0.09026181000000001,-0.1502892,-9.808499070000002,0.001238,-0.000157,0.003945,-76.575073,97.307739,-208.882202,60.187685,24.830143,13.210769,7.174423,-1.0,-1.0,100.068939,0.618309,-0.008817,0.015873,0.31513
879988.946103,-0.09026181000000001,-0.1502892,-9.808499070000002,0.001238,-0.000157,0.003945,-76.575073,97.307739,-208.882202,60.187685,24.830143,13.210769,7.174423,-1.0,-1.0,100.068939,0.618309,-0.008817,0.015873,0.31513
879988.986075,-0.09071307,-0.15478218000000002,-9.82841337,0.004326,-0.001223,0.004259,-76.498627,97.161636,-208.680634,60.187685,24.830143,13.210769,7.174423,-1.0,-1.0,100.068939,0.618309,-0.008821,0.015876,0.315129
879988.986075,-0.09071307,-0.15478218000000002,-9.82841337,0.004326,-0.001223,0.004259,-76.498627,97.161636,-208.680634,60.187685,24.830143,13.210769,7.174423,-1.0,-1.0,100.068939,0.618309,-0.008821,0.015876,0.315129
879989.026047,-0.07648857,-0.15792138000000003,-9.80985285,0.003082,-0.001122,0.004078,-76.721649,97.186493,-208.728561,60.187685,24.830143,13.210769,7.174423,-1.0,-1.0,100.068939,0.618309,-0.008828,0.015878,0.315128
879989.026047,-0.07648857,-0.15792138000000003,-9.80985285,0.003082,-0.001122,0.004078,-76.721649,97.186493,-208.728561,60.187685,24.830143,13.210769,7.174423,-1.0,-1.0,100.068939,0.618309,-0.008828,0.015878,0.315128
879989.066019,-0.0928026,-0.14833701000000002,-9.828707670000002,0.004287,0.000189,0.003889,-76.502686,97.270233,-208.586136,60.187685,24.830143,13.210769,7.174423,-1.0,-1.0,100.068939,0.618309,-0.008816,0.015889,0.315118
879989.066019,-0.0928026,-0.14833701000000002,-9.828707670000002,0.004287,0.000189,0.003889,-76.502686,97.270233,-208.586136,60.187685,24.830143,13.210769,7.174423,-1.0,-1.0,100.068939,0.618309,-0.008816,0.015889,0.315118
879989.105991,-0.09116433,-0.15387966,-9.826912440000001,0.0022,-0.001222,0.003481,-76.471405,97.082947,-208.994461,60.187685,24.830143,13.210769,7.174423,-1.0,-1.0,100.068939,0.618309,-0.00882,0.015905,0.315126
879989.105991,-0.09116433,-0.15387966,-9.826912440000001,0.0022,-0.001222,0.003481,-76.471405,97.082947,-208.994461,60.187685,24.830143,13.210769,7.174423,-1.0,-1.0,100.068939,0.618309,-0.00882,0.015905,0.315126
879989.145963,-0.08951625,-0.14265702,-9.82721655,0.003413,-0.000307,0.00434,-76.575912,97.072281,-208.901566,60.187685,24.830143,13.210769,7.174423,-1.0,-1.0,100.068939,0.618309,-0.008812,0.0159,0.315114
879989.145963,-0.08951625,-0.14265702,-9.82721655,0.003413,-0.000307,0.00434,-76.575912,97.072281,-208.901566,60.187685,24.830143,13.210769,7.174423,-1.0,-1.0,100.068939,0.618309,-0.008812,0.0159,0.315114
879989.185936,-0.09310671,-0.15447807000000002,-9.80281908,0.002765,-5.9e-05,0.005873,-76.793365,96.967758,-208.924911,60.187685,24.830143,13.210769,7.174423,-1.0,-1.0,100.068939,0.618309,-0.008801,0.015899,0.315118
879989.185936,-0.09310671,-0.15447807000000002,-9.80281908,0.002765,-5.9e-05,0.005873,-76.793365,96.967758,-208.924911,60.187685,24.830143,13.210769,7.174423,-1.0,-1.0,100.068939,0.618309,-0.008801,0.015899,0.315118
879989.225908,-0.08636724,-0.14400099,-9.808803180000002,0.00319,0.000497,0.00401,-76.582977,97.106873,-209.028885,60.187685,24.830143,13.210769,7.174423,-1.0,-1.0,100.068939,0.618309,-0.008803,0.015925,0.315131
879989.225908,-0.08636724,-0.14400099,-9.808803180000002,0.00319,0.000497,0.00401,-76.582977,97.106873,-209.028885,60.187685,24.830143,13.210769,7.174423,-1.0,-1.0,100.068939,0.618309,-0.008803,0.015925,0.315131
879989.26588,-0.09445068,-0.15492933000000003,-9.8128449,0.004054,-0.000956,0.004179,-76.475143,97.410477,-208.883286,60.187685,24.830143,13.210769,7.174423,-1.0,-1.0,100.068939,0.618309,-0.0088,0.0159,0.315154
879989.26588,-0.09445068,-0.15492933000000003,-9.8128449,0.004054,-0.000956,0.004179,-76.475143,97.410477,-208.883286,60.187685,24.830143,13.210769,7.174423,-1.0,-1.0,100.068939,0.618309,-0.0088,0.0159,0.315154
879989.305852,-0.09176274,-0.15612615,-9.8358984,0.002841,-0.00068,0.00473,-76.482513,97.074753,-208.885757,60.187685,24.830143,13.210769,7.174423,-1.0,-1.0,100.068939,0.618309,-0.008794,0.015904,0.315142
879989.305852,-0.09176274,-0.15612615,-9.8358984,0.002841,-0.00068,0.00473,-76.482513,97.074753,-208.885757,60.187685,24.830143,13.210769,7.174423,-1.0,-1.0,100.068939,0.618309,-0.008794,0.015904,0.315142
879989.345824,-0.08891784,-0.1591182,-9.836948070000002,0.00168,-0.000308,0.005853,-76.4142,97.233643,-208.745468,60.187685,24.830143,13.210769,7.174423,-1.0,-1.0,100.068939,0.618309,-0.00878,0.015895,0.315147
879989.345824,-0.08891784,-0.1591182,-9.836948070000002,0.00168,-0.000308,0.005853,-76.4142,97.233643,-208.745468,60.187685,24.830143,13.210769,7.174423,-1.0,-1.0,100.068939,0.618309,-0.00878,0.015895,0.315147
879989.385796,-0.08831943,-0.15103476000000002,-9.81074556,0.001846,0.00047,0.004609,-76.59314,97.346191,-208.822357,60.187685,24.830143,13.210769,7.174423,-1.0,-1.0,100.068939,0.618309,-0.00879,0.01588,0.315138
879989.385796,-0.08831943,-0.15103476000000002,-9.81074556,0.001846,0.00047,0.004609,-76.59314,97.346191,-208.822357,60.187685,24.830143,13.210769,7.174423,-1.0,-1.0,100.068939,0.618309,-0.00879,0.01588,0.315138
879989.425768,-0.08801532000000001,-0.14804271000000002,-9.81254079,0.004424,-0.000614,0.004901,-76.585831,97.236557,-208.905685,60.187685,24.830143,13.210769,7.174423,-1.0,-1.0,100.068939,0.618309,-0.008786,0.015885,0.315135
879989.425768,-0.08801532000000001,-0.14804271000000002,-9.81254079,0.004424,-0.000614,0.004901,-76.585831,97.236557,-208.905685,60.187685,24.830143,13.210769,7.174423,-1.0,-1.0,100.068939,0.618309,-0.008786,0.015885,0.315135
879989.465741,-0.09190989000000001,-0.15732297,-9.796678020000002,0.002562,0.000517,0.003138,-76.662659,97.456345,-208.98291,60.187685,24.830143,13.210769,7.174423,-1.0,-1.0,100.068939,0.618309,-0.008789,0.015874,0.315143
879989.485727,-0.10088604,-0.16002072,-9.81269775,0.001545,-0.001309,0.0042,-76.424149,97.521988,-209.038651,60.187685,24.830143,13.210769,7.174423,-1.0,-1.0,100.068939,0.618309,-0.008788,0.015857,0.315129
879989.505713,-0.08891784,-0.16061913,-9.831709530000001,0.00165,-0.000365,0.005364,-76.66832,97.265701,-209.057785,60.187685,24.830143,13.210769,7.174423,-1.0,-1.0,100.068939,0.618309,-0.008785,0.015844,0.315125
879989.525699,-0.08143281,-0.14205861,-9.81449298,0.003387,-0.001066,0.003155,-76.538849,97.091873,-208.997849,60.187685,24.830143,13.210769,7.174423,-1.0,-1.0,100.068939,0.618309,-0.008793,0.015831,0.315143
879989.545685,-0.10358379000000001,-0.15193728,-9.83379906,0.004038,-0.001784,0.007954,-76.605438,97.242126,-208.892273,60.187685,24.830143,13.210769,7.174423,-1.0,-1.0,100.069054,0.610382,-0.008807,0.015836,0.31515
879989.565671,-0.0836793,-0.15747012000000002,-9.80505576,0.004593,-0.001092,0.00469,-76.540009,97.11882,-209.166794,60.187685,24.830143,13.210769,7.174423,-1.0,-1.0,100.069054,0.610382,-0.008818,0.015837,0.315161
879989.585657,-0.08592579,-0.1505835,-9.82556847,0.002719,-0.00108,0.003452,-76.592117,97.280472,-208.963898,60.187685,24.830143,13.210769,7.174423,-1.0,-1.0,100.069054,0.610382,-0.008819,0.015847,0.315158
879989.585657,-0.08592579,-0.1505835,-9.82556847,0.002719,-0.00108,0.003452,-76.592117,97.280472,-208.963898,60.187685,24.830143,13.210769,7.174423,-1.0,-1.0,100.069054,0.610382,-0.008819,0.015847,0.315158
879989.625629,-0.08607294000000001,-0.15582204,-9.81464013,0.005145,0.000108,0.004817,-76.697647,97.105606,-209.130219,60.187685,24.830143,13.210769,7.174423,-1.0,-1.0,100.069054,0.610382,-0.008844,0.015847,0.315148
879989.645615,-0.0981981,-0.15118191,-9.827069400000001,0.002812,0.001108,0.003943,-76.534012,97.190689,-209.130203,60.187685,24.830143,13.210769,7.174423,-1.0,-1.0,100.069054,0.610382,-0.008847,0.015861,0.315136
879989.665601,-0.08861373,-0.14340258,-9.80640954,0.001898,-0.00041,0.005074,-76.553543,97.113663,-209.281372,60.187685,24.830143,13.210769,7.174423,-1.0,-1.0,100.069054,0.610382,-0.008854,0.015852,0.315135
879989.685587,-0.09609875999999999,-0.13816404,-9.82766781,0.002411,-0.001125,0.003641,-76.476547,97.260117,-208.834091,60.187685,24.830143,13.210769,7.174423,-1.0,-1.0,100.069054,0.610382,-0.008848,0.015838,0.315143
879989.705573,-0.0896634,-0.15418377,-9.810304109999999,0.002143,-0.000816,0.004123,-76.606201,97.121735,-208.928223,60.187685,24.830143,13.210769,7.174423,-1.0,-1.0,100.069054,0.610382,-0.008855,0.015831,0.315149
879989.745546,-0.09131148000000001,-0.16002072,-9.83350476,0.003036,0.000599,0.004474,-76.592163,97.189514,-209.25209,60.187685,24.830143,13.210769,7.174423,-1.0,-1.0,100.069054,0.610382,-0.008861,0.015835,0.315153
879989.745546,-0.09131148000000001,-0.16002072,-9.83350476,0.003036,0.000599,0.004474,-76.592163,97.189514,-209.25209,60.187685,24.830143,13.210769,7.174423,-1.0,-1.0,100.069054,0.610382,-0.008861,0.015835,0.315153
879989.765532,-0.0868185,-0.15478218000000002,-9.80461431,0.004434,0.000691,0.005589,-76.778427,97.069885,-209.238556,60.187685,24.830143,13.210769,7.174423,-1.0,-1.0,100.069054,0.610382,-0.008852,0.015834,0.315165
879989.785518,-0.08726976,-0.15447807000000002,-9.83095416,0.002888,0.001149,0.003335,-76.485947,97.126373,-209.007156,60.187685,24.830143,13.210769,7.174423,-1.0,-1.0,100.069054,0.610382,-0.008854,0.015841,0.315162
879989.785518,-0.08726976,-0.15447807000000002,-9.83095416,0.002888,0.001149,0.003335,-76.485947,97.126373,-209.007156,60.187685,24.830143,13.210769,7.174423,-1.0,-1.0,100.069054,0.610382,-0.008854,0.015841,0.315162
879989.845476,-0.10119015,-0.15313410000000002,-9.81808344,0.003986,-7.5e-05,0.003613,-76.61026,97.291183,-209.241302,60.187685,24.830143,13.210769,7.174423,-1.0,-1.0,100.069054,0.610382,-0.008865,0.015834,0.315162
879989.865462,-0.09714843000000001,-0.16390548000000002,-9.79847325,0.004571,0.000722,0.002719,-76.451843,97.138458,-208.981354,60.187685,24.830143,13.210769,7.174423,-1.0,-1.0,100.069054,0.610382,-0.008871,0.01583,0.315154
879989.865462,-0.09714843000000001,-0.16390548000000002,-9.79847325,0.004571,0.000722,0.002719,-76.451843,97.138458,-208.981354,60.187685,24.830143,13.210769,7.174423,-1.0,-1.0,100.069054,0.610382,-0.008871,0.01583,0.315154
879989.905434,-0.08861373,-0.15014205,-9.80626239,0.00409,-0.000572,0.003107,-76.464951,97.118912,-209.174515,60.187685,24.830143,13.210769,7.174423,-1.0,-1.0,100.069054,0.610382,-0.00886,0.015817,0.315153
879989.92542,-0.08442486000000002,-0.14414814,-9.82556847,0.002805,-0.00039,0.003885,-76.396698,97.378708,-208.791183,60.187685,24.830143,13.210769,7.174423,-1.0,-1.0,100.069054,0.610382,-0.008864,0.015809,0.315152
879989.945406,-0.08172711,-0.16136469,-9.81389457,0.003792,-0.000134,0.004176,-76.617172,97.108765,-208.904968,60.187685,24.830143,13.210769,7.174423,-1.0,-1.0,100.069054,0.610382,-0.008855,0.015807,0.315152
879989.945406,-0.08172711,-0.16136469,-9.81389457,0.003792,-0.000134,0.004176,-76.617172,97.108765,-208.904968,60.187685,24.830143,13.210769,7.174423,-1.0,-1.0,100.069054,0.610382,-0.008855,0.015807,0.315152
879989.985379,-0.08831943,-0.14923953,-9.8358984,0.003082,3.3e-05,0.005304,-76.436203,97.154556,-209.106995,60.187685,24.830143,13.210769,7.174423,-1.0,-1.0,100.069054,0.610382,-0.008835,0.015826,0.31517
879990.005365,-0.08786817,-0.14100894,-9.8014653,0.003543,0.000241,0.004038,-76.376328,97.182877,-208.85733,60.187685,24.830143,13.210769,7.174423,-1.0,-1.0,100.069054,0.610382,-0.008836,0.015823,0.315165
879990.025351,-0.08607294000000001,-0.16899687,-9.828707670000002,0.002888,-0.000279,0.004097,-76.411224,97.127274,-209.019608,60.187685,24.830143,13.210769,7.174423,-1.0,-1.0,100.069054,0.610382,-0.008833,0.015809,0.315171
879990.045337,-0.09265545000000001,-0.15358536,-9.81733788,0.002025,0.000281,0.0029,-76.544205,97.262222,-208.745453,60.187685,24.830143,13.210769,7.174423,-1.0,-1.0,100.069054,0.610382,-0.008836,0.015791,0.315168
879990.065323,-0.09669717,-0.15237873000000002,-9.811500930000001,0.003487,0.000409,0.004818,-76.583115,97.315155,-209.009323,60.187685,24.830143,13.210769,7.174423,-1.0,-1.0,100.069054,0.610382,-0.008837,0.01577,0.315156
879990.085309,-0.09116433,-0.15043635,-9.83065986,0.002235,-0.000205,0.004328,-76.467773,97.15892,-208.720551,60.187685,24.830143,13.210769,7.174423,-1.0,-1.0,100.069054,0.610382,-0.008845,0.015772,0.315156
879990.105295,-0.0953532,-0.14205861,-9.796079610000001,0.005002,5.6e-05,0.003858,-76.701309,96.919128,-208.699905,60.187685,24.830143,13.210769,7.174423,-1.0,-1.0,100.069054,0.610382,-0.008843,0.015759,0.315143
879990.125281,-0.10253412,-0.1505835,-9.84831786,0.001957,-0.001619,0.00383,-76.710083,97.154938,-208.693222,60.187685,24.830143,13.210769,7.174423,-1.0,-1.0,100.069054,0.610382,-0.008838,0.015781,0.315131
879990.145267,-0.08876088000000001,-0.16450389,-9.803260530000001,0.003349,-0.000737,0.003153,-76.517929,97.083939,-208.971436,60.187685,24.830143,13.210769,7.174423,-1.0,-1.0,100.069054,0.610382,-0.008843,0.015775,0.315129
879990.165253,-0.08741691000000001,-0.14505066000000003,-9.823469130000001,0.002308,0.000177,0.004904,-76.527557,97.056091,-208.837936,60.187685,24.830143,13.210769,7.174423,-1.0,-1.0,100.069054,0.610382,-0.008862,0.01577,0.315123
879990.185239,-0.08502327,-0.15701886,-9.8387433,0.002155,0.000181,0.004176,-76.527557,97.056091,-208.837936,60.187685,24.830143,13.210769,7.174423,-1.0,-1.0,100.069054,0.610382,-0.008862,0.015775,0.315129
879990.205226,-0.09684432000000001,-0.15148602000000003,-9.796373910000002,0.003372,0.001094,0.003646,-76.735443,96.930771,-209.010681,60.187685,24.830143,13.210769,7.174423,-1.0,-1.0,100.069054,0.610382,-0.008862,0.015755,0.315119
879990.225212,-0.08726976,-0.15074046,-9.82616688,0.002719,0.000287,0.003714,-76.616287,97.169586,-208.896317,60.187685,24.830143,13.210769,7.174423,-1.0,-1.0,100.069054,0.610382,-0.008857,0.015751,0.315101
879990.245198,-0.08712261,-0.14773860000000003,-9.78529842,0.002758,-0.001276,0.004814,-76.772385,97.182938,-208.778168,60.187685,24.830143,13.210769,7.174423,-1.0,-1.0,100.069054,0.610382,-0.008843,0.015756,0.315104
879990.265184,-0.08442486000000002,-0.16226721000000002,-9.813590460000002,0.002885,-0.001009,0.005738,-76.351074,96.984283,-208.939484,60.187685,24.830143,13.210769,7.174423,-1.0,-1.0,100.069054,0.610382,-0.008853,0.015755,0.315105
879990.28517,-0.09430353000000001,-0.15478218000000002,-9.816141060000001,0.003935,0.000552,0.005038,-76.471039,96.98085,-208.687302,60.187685,24.830143,13.210769,7.174423,-1.0,-1.0,100.069054,0.610382,-0.008862,0.015755,0.315114
879990.305156,-0.08547453,-0.1591182,-9.81583695,0.003443,-6.6e-05,0.003389,-76.594437,97.064392,-208.905014,60.187685,24.830143,13.210769,7.174423,-1.0,-1.0,100.069054,0.610382,-0.008855,0.015757,0.315128
879990.325142,-0.09190989000000001,-0.15193728,-9.82631403,0.002531,-0.001021,0.005121,-76.686234,96.878799,-208.874863,60.187685,24.830143,13.210769,7.174423,-1.0,-1.0,100.069054,0.610382,-0.008846,0.015765,0.31512
879990.345128,-0.0953532,-0.14864112000000002,-9.78335604,0.003611,0.00098,0.003517,-76.47438,96.992493,-209.026108,60.187685,24.830143,13.210769,7.174423,-1.0,-1.0,100.069054,0.610382,-0.008849,0.015757,0.315116
879990.365114,-0.09116433,-0.16091343000000002,-9.83185668,0.003233,-0.000187,0.004489,-76.465622,96.69873,-208.993164,60.187685,24.830143,13.210769,7.174423,-1.0,-1.0,100.069054,0.610382,-0.00884,0.01575,0.315113
879990.3851,-0.08517042000000001,-0.16675038,-9.80790066,0.003059,0.000296,0.004089,-76.475739,96.915466,-209.259674,60.187685,24.830143,13.210769,7.174423,-1.0,-1.0,100.069054,0.610382,-0.008846,0.015761,0.315118
879990.405086,-0.0836793,-0.15074046,-9.803113380000001,0.004062,-0.001159,0.004077,-76.793503,96.745895,-209.331192,60.187685,24.830143,13.210769,7.174423,-1.0,-1.0,100.069054,0.610382,-0.008835,0.015753,0.315129
879990.425073,-0.09968922,-0.15732297,-9.831552570000001,0.001979,-0.000246,0.00305,-76.660309,96.962784,-209.395554,60.187685,24.830143,13.210769,7.174423,-1.0,-1.0,100.069054,0.610382,-0.008844,0.015752,0.315139
879990.445059,-0.09744273000000002,-0.14624748,-9.7986204,0.003682,-0.000525,0.00303,-76.419022,96.923706,-209.509491,60.187685,24.830143,13.210769,7.174423,-1.0,-1.0,100.069054,0.610382,-0.008839,0.015736,0.315126
879990.465045,-0.09071307,-0.16165899,-9.841284090000002,0.002057,-0.000776,0.003481,-76.417435,97.169601,-209.310638,60.187685,24.830143,13.210769,7.174423,-1.0,-1.0,100.069054,0.610382,-0.008839,0.015741,0.315123
879990.505017,-0.09789399,-0.14025357000000002,-9.808499070000002,0.00365,-0.001065,0.004602,-76.410126,96.907303,-209.317169,60.187685,24.830143,13.210769,7.174423,-1.0,-1.0,100.069054,0.610382,-0.008836,0.01572,0.315114
879990.525003,-0.08831943,-0.16091343000000002,-9.82975734,0.003179,-0.00238,0.004092,-76.553558,96.726608,-209.185577,60.187685,24.830143,13.210769,7.174423,-1.0,-1.0,100.069054,0.610382,-0.00885,0.015724,0.315113
879990.544989,-0.09086022,-0.14610033,-9.78829047,0.00319,0.001017,0.002825,-76.603149,96.781982,-209.078796,60.187685,24.830143,13.210769,7.174423,-1.0,-1.0,100.069054,0.610382,-0.008866,0.015708,0.315111
879990.564975,-0.08277678,-0.14505066000000003,-9.833946209999999,0.002322,0.000223,0.003488,-76.667694,96.969208,-209.476395,60.187685,24.830143,13.210769,7.174423,-1.0,-1.0,100.069054,0.610382,-0.008862,0.015708,0.315096
879990.584961,-0.08786817,-0.14804271000000002,-9.80565417,0.003356,0.000696,0.004332,-76.589203,96.892883,-209.075745,60.187685,24.830143,13.210769,7.174423,-1.0,-1.0,100.069054,0.610382,-0.008868,0.01572,0.315094
879990.604947,-0.09160578000000001,-0.15806852999999998,-9.82721655,0.001607,0.000102,0.004111,-76.546356,97.037979,-208.923813,60.187685,24.830143,13.210769,7.174423,-1.0,-1.0,100.069054,0.610382,-0.008873,0.015713,0.315098
879990.624934,-0.09894366,-0.14354973000000001,-9.82406754,0.003153,-9.5e-05,0.003316,-76.477737,97.095535,-208.859756,60.187685,24.830143,13.210769,7.174423,-1.0,-1.0,100.06942,0.578674,-0.008875,0.015718,0.315095
879990.624934,-0.09894366,-0.14354973000000001,-9.82406754,0.003153,-9.5e-05,0.003316,-76.477737,97.095535,-208.859756,60.187685,24.830143,13.210769,7.174423,-1.0,-1.0,100.06942,0.578674,-0.008875,0.015718,0.315095
879990.664906,-0.07888221,-0.14998509000000002,-9.8242245,0.002134,-0.000842,0.002962,-76.283188,96.908554,-208.902359,60.187685,24.830143,13.210769,7.174423,-1.0,-1.0,100.06942,0.578674,-0.008861,0.015724,0.315069
879990.684892,-0.09580446000000001,-0.15178032,-9.799974180000001,0.004791,0.000804,0.004173,-76.494675,97.009293,-209.197769,60.187685,24.830143,13.210769,7.174423,-1.0,-1.0,100.06942,0.578674,-0.008865,0.01573,0.315058
879990.704878,-0.09460764,-0.1588239,-9.827814960000001,0.002706,-0.000663,0.004624,-76.764404,96.935074,-209.163864,60.187685,24.830143,13.210769,7.174423,-1.0,-1.0,100.06942,0.578674,-0.008857,0.015733,0.315057
879990.704878,-0.09460764,-0.1588239,-9.827814960000001,0.002706,-0.000663,0.004624,-76.764404,96.935074,-209.163864,60.187685,24.830143,13.210769,7.174423,-1.0,-1.0,100.06942,0.578674,-0.008857,0.015733,0.315057
879990.74485,-0.08157996,-0.15148602000000003,-9.80416305,0.003674,0.00088,0.006283,-76.503738,97.200531,-209.139404,60.187685,24.830143,13.210769,7.174423,-1.0,-1.0,100.06942,0.578674,-0.008846,0.015719,0.315084
879990.764836,-0.08277678,-0.15806852999999998,-9.832307940000002,0.002006,-0.000382,0.004195,-76.459381,97.200699,-209.061356,60.187685,24.830143,13.210769,7.174423,-1.0,-1.0,100.06942,0.578674,-0.008846,0.015729,0.315106
879990.784822,-0.0896634,-0.155979,-9.796530870000002,0.004069,0.000107,0.003509,-76.413101,96.993317,-209.076447,60.187685,24.830143,13.210769,7.174423,-1.0,-1.0,100.06942,0.578674,-0.008856,0.015715,0.315104
879990.804809,-0.09116433,-0.15268284000000001,-9.83035575,0.002537,-0.0024,0.004557,-76.54805,96.863113,-208.779846,60.187685,24.830143,13.210769,7.174423,-1.0,-1.0,100.06942,0.578674,-0.008848,0.015717,0.315101
879990.824795,-0.09789399,-0.14864112000000002,-9.81418887,0.00308,-0.001167,0.005205,-76.671066,97.042465,-208.614914,60.187685,24.830143,13.210769,7.174423,-1.0,-1.0,100.06942,0.578674,-0.008864,0.01572,0.315101
879990.844781,-0.08592579,-0.16061913,-9.819427410000001,0.003426,-0.000851,0.003332,-76.822266,97.102997,-208.839951,60.187685,24.830143,13.210769,7.174423,-1.0,-1.0,100.06942,0.578674,-0.008864,0.015726,0.315104
879990.844781,-0.08592579,-0.16061913,-9.819427410000001,0.003426,-0.000851,0.003332,-76.822266,97.102997,-208.839951,60.187685,24.830143,13.210769,7.174423,-1.0,-1.0,100.06942,0.578674,-0.008864,0.015726,0.315104
879990.884753,-0.09415638000000001,-0.15208443,-9.80655669,0.003527,-0.000357,0.00514,-76.643143,96.996872,-208.755157,60.187685,24.830143,13.210769,7.174423,-1.0,-1.0,100.06942,0.578674,-0.008857,0.015729,0.315101
879990.904739,-0.09340101,-0.14579622,-9.831101310000001,0.002483,0.000759,0.004226,-76.643143,96.996872,-208.755157,60.187685,24.830143,13.210769,7.174423,-1.0,-1.0,100.06942,0.578674,-0.008856,0.015742,0.315096
879990.924725,-0.10717425000000001,-0.15118191,-9.80581113,0.003302,-0.000991,0.004866,-76.519608,97.141235,-208.999161,60.187685,24.830143,13.210769,7.174423,-1.0,-1.0,100.06942,0.578674,-0.008868,0.015728,0.3151
879990.944711,-0.09086022,-0.14400099,-9.816739470000002,0.003116,-0.00074,0.003794,-76.479782,97.150787,-208.660233,60.187685,24.830143,13.210769,7.174423,-1.0,-1.0,100.06942,0.578674,-0.008864,0.015726,0.315099
879990.964697,-0.09624591,-0.16630893,-9.82856052,0.003815,-0.00025,0.004526,-76.348907,97.126572,-208.794617,60.187685,24.830143,13.210769,7.174423,-1.0,-1.0,100.06942,0.578674,-0.008875,0.015734,0.315096
879990.984684,-0.07349652000000001,-0.14505066000000003,-9.80461431,0.003551,0.001313,0.004355,-76.501648,97.085236,-208.521881,60.187685,24.830143,13.210769,7.174423,-1.0,-1.0,100.06942,0.578674,-0.00888,0.015731,0.315095
879991.00467,-0.0811287,-0.15492933000000003,-9.83829204,0.003393,0.000648,0.003814,-76.590714,96.949951,-208.823212,60.187685,24.830143,13.210769,7.174423,-1.0,-1.0,100.06942,0.578674,-0.008872,0.015747,0.315098
879991.024656,-0.09176274,-0.15672456,-9.80236782,0.003846,0.000499,0.005035,-76.61554,96.975113,-208.636536,60.187685,24.830143,13.210769,7.174423,-1.0,-1.0,100.06942,0.578674,-0.008872,0.015747,0.3151
879991.044642,-0.09490194,-0.15342840000000002,-9.81928026,0.002123,-0.000552,0.005669,-76.474564,97.093704,-208.635971,60.187685,24.830143,13.210769,7.174423,-1.0,-1.0,100.06942,0.578674,-0.00888,0.015751,0.315101
879991.044642,-0.09490194,-0.15342840000000002,-9.81928026,0.002123,-0.000552,0.005669,-76.474564,97.093704,-208.635971,60.187685,24.830143,13.210769,7.174423,-1.0,-1.0,100.06942,0.578674,-0.00888,0.015751,0.315101
879991.044642,-0.09490194,-0.15342840000000002,-9.81928026,0.002123,-0.000552,0.005669,-76.474564,97.093704,-208.635971,60.187685,24.830143,13.210769,7.174423,-1.0,-1.0,100.06942,0.578674,-0.00888,0.015751,0.315101
879991.044642,-0.09490194,-0.15342840000000002,-9.81928026,0.002123,-0.000552,0.005669,-76.474564,97.093704,-208.635971,60.187685,24.830143,13.210769,7.174423,-1.0,-1.0,100.06942,0.578674,-0.00888,0.015751,0.315101
879991.044642,-0.09490194,-0.15342840000000002,-9.81928026,0.002123,-0.000552,0.005669,-76.474564,97.093704,-208.635971,60.187685,24.830143,13.210769,7.174423,-1.0,-1.0,100.06942,0.578674,-0.00888,0.015751,0.315101
879991.044642,-0.09490194,-0.15342840000000002,-9.81928026,0.002123,-0.000552,0.005669,-76.474564,97.093704,-208.635971,60.187685,24.830143,13.210769,7.174423,-1.0,-1.0,100.06942,0.578674,-0.00888,0.015751,0.315101
879991.044642,-0.09490194,-0.15342840000000002,-9.81928026,0.002123,-0.000552,0.005669,-76.474564,97.093704,-208.635971,60.187685,24.830143,13.210769,7.174423,-1.0,-1.0,100.06942,0.578674,-0.00888,0.015751,0.315101
879991.064628,-0.10328949000000001,-0.16076628,-9.824822910000002,0.003794,0.001567,0.004801,-76.374237,97.255814,-208.937302,60.187685,24.830143,13.210769,7.174423,-1.0,-1.0,100.06942,0.578674,-0.008874,0.015746,0.315109
879991.124586,-0.09056592000000001,-0.14954364,-9.792783450000002,0.004735,0.000745,0.00501,-76.725708,97.152603,-208.972809,60.187685,24.830143,13.210769,7.174423,-1.0,-1.0,100.06942,0.578674,-0.008886,0.015753,0.315106
879991.204531,-0.10104300000000001,-0.14550192,-9.8302086,0.003243,0.000262,0.006006,-76.376373,96.84935,-209.068741,60.187685,24.830143,13.210769,7.174423,-1.0,-1.0,100.06942,0.578674,-0.008879,0.015797,0.315096
879991.264489,-0.08861373,-0.16525926000000002,-9.819427410000001,0.002167,-0.000241,0.003712,-76.391678,96.947098,-208.93985,60.187679,24.83013,12.31467,11.793548,-1.0,-1.0,100.06942,0.578674,-0.008879,0.015793,0.315109
879991.284475,-0.07320222,-0.1417545,-9.80969589,0.005337,3.4e-05,0.002976,-76.397156,97.032562,-208.936661,60.187679,24.83013,12.31467,11.793548,-1.0,-1.0,100.06942,0.578674,-0.008886,0.015796,0.315115
879991.304462,-0.08786817,-0.16106057999999998,-9.83365191,0.003876,-0.000251,0.003519,-76.412735,96.925705,-209.10437,60.187679,24.83013,12.31467,11.793548,-1.0,-1.0,100.06942,0.578674,-0.008878,0.015806,0.315107
879991.324448,-0.07679268,-0.15163317,-9.8043102,0.004876,0.000392,0.00464,-76.409088,96.938889,-208.934372,60.187679,24.83013,12.31467,11.793548,-1.0,-1.0,100.06942,0.578674,-0.008873,0.015814,0.315119
879991.344434,-0.08772102000000001,-0.15237873000000002,-9.82751085,0.002285,0.000321,0.004829,-76.413589,97.11351,-209.008698,60.187679,24.83013,12.31467,11.793548,-1.0,-1.0,100.06942,0.578674,-0.008863,0.01583,0.31511
879991.36442,-0.09864936,-0.15208443,-9.79338186,0.004359,-0.000573,0.004268,-76.290283,97.136322,-208.976181,60.187679,24.83013,12.31467,11.793548,-1.0,-1.0,100.06942,0.578674,-0.00886,0.015832,0.315115
879991.384406,-0.0782838,-0.14490351,-9.80760636,0.004353,-0.000494,0.003292,-76.587189,97.052429,-209.280457,60.187679,24.83013,12.31467,11.793548,-1.0,-1.0,100.06942,0.578674,-0.008856,0.01584,0.315114
879991.404392,-0.0925083,-0.14833701000000002,-9.823920390000001,0.00416,-0.001028,0.004776,-76.588745,97.212616,-209.093735,60.187679,24.83013,12.31467,11.793548,-1.0,-1.0,100.06942,0.578674,-0.008853,0.015847,0.315114
879991.424378,-0.09340101,-0.16540641000000003,-9.80101404,0.005252,-0.001494,0.005424,-76.598297,97.060242,-209.113922,60.187679,24.83013,12.31467,11.793548,-1.0,-1.0,100.06942,0.578674,-0.008871,0.015856,0.315121
879991.444364,-0.08696565,-0.15762708,-9.823626090000001,0.003123,-0.000542,0.003609,-76.555908,96.93277,-209.547455,60.187679,24.83013,12.31467,11.793548,-1.0,-1.0,100.06942,0.578674,-0.00887,0.015873,0.315127
879991.464351,-0.09086022,-0.15373251000000002,-9.80026848,0.002486,-0.000629,0.004275,-76.45488,96.94873,-209.161636,60.187679,24.83013,12.31467,11.793548,-1.0,-1.0,100.06942,0.578674,-0.008882,0.015869,0.315126
879991.484337,-0.08667135000000001,-0.14505066000000003,-9.814787280000001,0.00267,8.1e-05,0.003921,-76.669266,96.862564,-208.866287,60.187679,24.83013,12.31467,11.793548,-1.0,-1.0,100.06942,0.578674,-0.008891,0.015863,0.315126
879991.504323,-0.08636724,-0.15418377,-9.80909748,0.003333,-0.001066,0.004554,-76.61058,97.202728,-209.213806,60.187679,24.83013,12.31467,11.793548,-1.0,-1.0,100.06942,0.578674,-0.008893,0.01586,0.31512
879991.524309,-0.08831943,-0.15088761,-9.79847325,0.003564,-0.000534,0.005751,-76.532562,97.028229,-208.980316,60.187679,24.83013,12.31467,11.793548,-1.0,-1.0,100.06942,0.578674,-0.008902,0.015864,0.315127
879991.544295,-0.09879651,-0.15223158,-9.83350476,0.003023,-0.001506,0.002807,-76.562485,97.096161,-208.763718,60.187679,24.83013,12.31467,11.793548,-1.0,-1.0,100.06942,0.578674,-0.008902,0.015868,0.315129
879991.564281,-0.08157996,-0.15897105,-9.78934014,0.002456,-0.000716,0.005085,-76.516159,97.026093,-208.947479,60.187679,24.83013,12.31467,11.793548,-1.0,-1.0,100.06942,0.578674,-0.008913,0.015856,0.315122
879991.584267,-0.09624591,-0.16136469,-9.8333478,0.002789,0.001198,0.002292,-76.718277,96.94075,-208.976578,60.187679,24.83013,12.31467,11.793548,-1.0,-1.0,100.06942,0.578674,-0.008918,0.015862,0.315141
879991.62424,-0.07903917,-0.14610033,-9.80461431,0.003654,-0.000273,0.004063,-76.688568,96.789627,-208.926743,60.187679,24.83013,12.31467,11.793548,-1.0,-1.0,100.06942,0.578674,-0.008915,0.015858,0.315133
879991.644226,-0.09205704,-0.13905675,-9.82901178,0.002207,-0.000217,0.002632,-76.630539,96.879227,-209.189957,60.187679,24.83013,12.31467,11.793548,-1.0,-1.0,100.06942,0.578674,-0.008919,0.015864,0.315133
879991.664212,-0.08846658,-0.15118191,-9.79398027,0.00329,-0.001702,0.002964,-76.403259,96.945358,-209.146637,60.187679,24.83013,12.31467,11.793548,-1.0,-1.0,100.06942,0.578674,-0.008928,0.015856,0.315122
879991.684198,-0.07993188000000001,-0.15447807000000002,-9.840234420000002,0.003456,-0.000502,0.003728,-76.462234,97.020538,-208.918274,60.187679,24.83013,12.31467,11.793548,-1.0,-1.0,100.06942,0.578674,-0.008929,0.015854,0.315118
879991.684198,-0.07993188000000001,-0.15447807000000002,-9.840234420000002,0.003456,-0.000502,0.003728,-76.462234,97.020538,-208.918274,60.187679,24.83013,12.31467,11.793548,-1.0,-1.0,100.06942,0.578674,-0.008929,0.015854,0.315118
879991.72417,-0.08007903000000001,-0.1417545,-9.81014715,0.003385,-1.3e-05,0.00368,-76.751144,96.946854,-209.036102,60.187679,24.83013,12.31467,11.793548,-1.0,-1.0,100.069626,0.56282,-0.008937,0.015839,0.315149
879991.744157,-0.10612458,-0.14909238,-9.82526436,0.003095,0.000115,0.004188,-76.711517,97.080887,-208.97406,60.187679,24.83013,12.31467,11.793548,-1.0,-1.0,100.069626,0.56282,-0.008937,0.015831,0.315141
879991.764143,-0.08592579,-0.15582204,-9.795334050000001,0.004443,0.000581,0.003874,-76.50975,97.129028,-209.382751,60.187679,24.83013,12.31467,11.793548,-1.0,-1.0,100.069626,0.56282,-0.008935,0.01581,0.315143
879991.784129,-0.09564750000000001,-0.15447807000000002,-9.8415882,0.003833,0.000675,0.00435,-76.578384,96.940964,-209.244965,60.187679,24.83013,12.31467,11.793548,-1.0,-1.0,100.069626,0.56282,-0.008939,0.015812,0.315132
879991.804115,-0.08248248000000001,-0.16121754000000002,-9.79517709,0.003687,-0.000102,0.004682,-76.440292,96.81778,-209.629517,60.187679,24.83013,12.31467,11.793548,-1.0,-1.0,100.069626,0.56282,-0.008927,0.015817,0.315144
879991.824101,-0.08023599000000001,-0.14773860000000003,-9.82062423,0.003687,-0.000102,0.004682,-76.607346,96.947311,-209.236511,60.187679,24.83013,12.31467,11.793548,-1.0,-1.0,100.069626,0.56282,-0.00892,0.01582,0.315157
879991.844087,-0.08517042000000001,-0.1707921,-9.82332198,0.00344,0.001655,0.004562,-76.721573,96.856781,-209.081116,60.187679,24.83013,12.31467,11.793548,-1.0,-1.0,100.069626,0.56282,-0.008936,0.015836,0.315166
879991.864073,-0.09160578000000001,-0.14818986,-9.79473564,0.002813,0.001435,0.003999,-76.511887,97.018555,-209.385773,60.187679,24.83013,12.31467,11.793548,-1.0,-1.0,100.069626,0.56282,-0.008924,0.015828,0.315173
879991.88406,-0.09145863,-0.14923953,-9.82257642,0.002209,0.000498,0.003918,-76.520325,96.815735,-209.246857,60.187679,24.83013,12.31467,11.793548,-1.0,-1.0,100.069626,0.56282,-0.008921,0.015831,0.315183
879991.904046,-0.08457201,-0.16286562,-9.799218810000001,0.002559,-0.001113,0.003787,-76.590698,96.944183,-209.318466,60.187679,24.83013,12.31467,11.793548,-1.0,-1.0,100.069626,0.56282,-0.00892,0.015823,0.315176
879991.924032,-0.09609875999999999,-0.14878827,-9.82886463,0.003034,-0.000508,0.004564,-76.436401,96.983948,-209.331573,60.187679,24.83013,12.31467,11.793548,-1.0,-1.0,100.069626,0.56282,-0.008917,0.015813,0.31518
879991.944018,-0.09909081000000002,-0.15806852999999998,-9.8159841,0.002248,-0.001524,0.004087,-76.456131,96.898315,-209.322968,60.187679,24.83013,12.31467,11.793548,-1.0,-1.0,100.069626,0.56282,-0.00892,0.015828,0.315179
879991.964004,-0.09805095000000001,-0.15866694,-9.79353882,0.003665,-0.000274,0.003731,-76.487717,97.105774,-209.173355,60.187679,24.83013,12.31467,11.793548,-1.0,-1.0,100.069626,0.56282,-0.00893,0.015828,0.315175
879991.98399,-0.08308089000000002,-0.14205861,-9.81688662,0.003375,0.000222,0.004765,-76.578354,96.936981,-209.10289,60.187679,24.83013,12.31467,11.793548,-1.0,-1.0,100.069626,0.56282,-0.008929,0.015835,0.315179
879992.003977,-0.08921214,-0.16420959000000002,-9.80222067,0.00229,7e-06,0.003465,-76.389908,96.931778,-209.266525,60.187679,24.83013,12.31467,11.793548,-1.0,-1.0,100.069626,0.56282,-0.008922,0.015839,0.315184
879992.023963,-0.09011466,-0.15253569,-9.81777933,0.002918,0.000142,0.003744,-76.3983,97.134186,-209.058334,60.187679,24.83013,12.31467,11.793548,-1.0,-1.0,100.069626,0.56282,-0.008921,0.015821,0.315184
879992.043949,-0.09310671,-0.15717582000000002,-9.80790066,0.004471,0.000385,0.003917,-76.401077,97.19548,-208.901123,60.187679,24.83013,12.31467,11.793548,-1.0,-1.0,100.069626,0.56282,-0.008921,0.015826,0.315173
879992.063935,-0.09190989000000001,-0.15402681000000001,-9.802966230000001,0.003517,-5.8e-05,0.004576,-76.42482,97.033722,-208.919083,60.187679,24.83013,12.31467,11.793548,-1.0,-1.0,100.069626,0.56282,-0.008922,0.015823,0.315176
879992.083921,-0.09729558,-0.15148602000000003,-9.82646118,0.003096,-0.000511,0.003809,-76.594727,96.977097,-209.312286,60.187679,24.83013,12.31467,11.793548,-1.0,-1.0,100.069626,0.56282,-0.008909,0.015823,0.315183
879992.103907,-0.09669717,-0.15342840000000002,-9.81239364,0.002667,-2e-05,0.004407,-76.266159,96.926407,-209.006958,60.187679,24.83013,12.31467,11.793548,-1.0,-1.0,100.069626,0.56282,-0.008909,0.015829,0.315185
879992.123893,-0.08562168,-0.14684589,-9.831552570000001,0.002931,-0.001383,0.002936,-76.391327,96.949997,-208.939331,60.187679,24.83013,12.31467,11.793548,-1.0,-1.0,100.069626,0.56282,-0.00891,0.015824,0.315176
879992.14388,-0.10223982000000001,-0.16076628,-9.81928026,0.004199,-1.8e-05,0.003834,-76.423111,96.965851,-209.275757,60.187679,24.83013,12.31467,11.793548,-1.0,-1.0,100.069626,0.56282,-0.008916,0.01582,0.315155
879992.163866,-0.08098155,-0.15014205,-9.830502899999999,0.00246,0.001076,0.004125,-76.729721,96.988815,-209.375702,60.187679,24.83013,12.31467,11.793548,-1.0,-1.0,100.069626,0.56282,-0.008913,0.015811,0.315158
879992.183852,-0.09490194,-0.15612615,-9.81733788,0.002573,0.00023,0.004641,-76.475052,96.739456,-209.204025,60.187679,24.83013,12.31467,11.793548,-1.0,-1.0,100.069626,0.56282,-0.008899,0.015804,0.31515
879992.203838,-0.08128566000000001,-0.15701886,-9.807459210000001,0.005145,0.000171,0.002651,-76.536911,96.995514,-209.277908,60.187679,24.83013,12.31467,11.793548,-1.0,-1.0,100.069626,0.56282,-0.008905,0.015812,0.315154
879992.223824,-0.08337519,-0.15208443,-9.83350476,0.002913,0.000869,0.00422,-76.56633,96.860931,-209.112976,60.187679,24.83013,12.31467,11.793548,-1.0,-1.0,100.069626,0.56282,-0.008909,0.015828,0.315148
879992.24381,-0.10193571,-0.16375833,-9.81793629,0.003252,-0.001216,0.005188,-76.52002,96.924133,-209.023376,60.187679,24.83013,12.31467,11.793548,-1.0,-1.0,100.069626,0.56282,-0.008906,0.015817,0.315142
879992.263797,-0.08098155,-0.15717582000000002,-9.82556847,0.003847,6.5e-05,0.003717,-76.629974,96.839752,-208.963898,60.187679,24.83013,12.31467,11.793548,-1.0,-1.0,100.069626,0.56282,-0.008909,0.015814,0.315146
879992.303769,-0.08517042000000001,-0.15163317,-9.810304109999999,0.001905,-0.001861,0.003204,-76.789352,96.797287,-209.268875,60.187679,24.83013,12.31467,11.793548,-1.0,-1.0,100.069626,0.56282,-0.008911,0.015811,0.315156
879992.323755,-0.09445068,-0.14385384,-9.818534699999999,0.002854,-0.001858,0.00522,-76.642487,96.785858,-209.404617,60.187679,24.83013,12.31467,11.793548,-1.0,-1.0,100.069626,0.56282,-0.008913,0.015801,0.315147
879992.323755,-0.09445068,-0.14385384,-9.818534699999999,0.002854,-0.001858,0.00522,-76.642487,96.785858,-209.404617,60.187679,24.83013,12.31467,11.793548,-1.0,-1.0,100.069626,0.56282,-0.008913,0.015801,0.315147
879992.363727,-0.0868185,-0.14909238,-9.82586277,0.003668,-0.000383,0.005016,-76.73735,96.725266,-208.989243,60.187679,24.83013,12.31467,11.793548,-1.0,-1.0,100.069626,0.56282,-0.008926,0.015787,0.31515
879992.383713,-0.09729558,-0.15687171,-9.82197801,0.00149,0.001241,0.003335,-76.662582,96.868835,-209.287796,60.187679,24.83013,12.31467,11.793548,-1.0,-1.0,100.069626,0.56282,-0.008934,0.015803,0.315145
879992.4037,-0.0836793,-0.15418377,-9.81718092,0.003098,-0.000957,0.004106,-76.903458,96.809631,-209.396576,60.187679,24.83013,12.31467,11.793548,-1.0,-1.0,100.069626,0.56282,-0.008932,0.015798,0.315143
879992.423686,-0.09684432000000001,-0.15103476000000002,-9.82332198,0.002599,-0.000709,0.004704,-76.561081,96.891525,-209.399689,60.187679,24.83013,12.31467,11.793548,-1.0,-1.0,100.069626,0.56282,-0.008949,0.015803,0.315152
879992.443672,-0.08726976,-0.14909238,-9.79428438,0.003312,-0.002336,0.00396,-76.879974,96.843307,-209.433899,60.187679,24.83013,12.31467,11.793548,-1.0,-1.0,100.069626,0.56282,-0.008952,0.015793,0.315155
879992.463658,-0.09894366,-0.15118191,-9.822870720000001,0.001461,0.000136,0.004305,-76.567566,97.070633,-209.338608,60.187679,24.83013,12.31467,11.793548,-1.0,-1.0,100.069626,0.56282,-0.008961,0.015796,0.315152
879992.483644,-0.09236115,-0.15777423000000002,-9.816582510000002,0.003885,0.000368,0.00365,-76.827469,96.818573,-209.116516,60.187679,24.83013,12.31467,11.793548,-1.0,-1.0,100.069626,0.56282,-0.008969,0.015786,0.315144
879992.50363,-0.09205704,-0.14983794,-9.80565417,0.003105,-6.6e-05,0.002798,-76.579666,97.044617,-209.119125,60.187679,24.83013,12.31467,11.793548,-1.0,-1.0,100.069626,0.56282,-0.008978,0.015786,0.31514
879992.523617,-0.0925083,-0.1502892,-9.82406754,0.00214,-0.000452,0.004384,-76.655167,96.915497,-209.181091,60.187679,24.83013,12.31467,11.793548,-1.0,-1.0,100.069626,0.56282,-0.008996,0.015788,0.315147
879992.543603,-0.0953532,-0.14490351,-9.80610543,0.003493,-0.001111,0.005486,-76.569778,97.140167,-209.035751,60.187679,24.83013,12.31467,11.793548,-1.0,-1.0,100.069626,0.56282,-0.009004,0.015769,0.315137
879992.563589,-0.08427771,-0.16136469,-9.819427410000001,0.003246,-0.001366,0.004293,-76.686737,96.845886,-209.021164,60.187679,24.83013,12.31467,11.793548,-1.0,-1.0,100.069626,0.56282,-0.009013,0.015774,0.315147
879992.583575,-0.09040896000000001,-0.14983794,-9.80521272,0.004021,-0.000853,0.003991,-76.75621,96.902557,-209.146591,60.187679,24.83013,12.31467,11.793548,-1.0,-1.0,100.069626,0.56282,-0.009027,0.01578,0.31515
879992.603561,-0.09520605,-0.14818986,-9.79742358,0.002768,-0.000519,0.005023,-76.672989,96.832245,-208.88588,60.187679,24.83013,12.31467,11.793548,-1.0,-1.0,100.069626,0.56282,-0.009029,0.015772,0.315156
879992.623547,-0.10313253,-0.15433092,-9.81793629,0.003855,0.000142,0.003652,-76.583282,96.866196,-208.999374,60.187679,24.83013,12.31467,11.793548,-1.0,-1.0,100.069626,0.56282,-0.009037,0.01577,0.315156
879992.643534,-0.07888221,-0.1502892,-9.80954874,0.003103,-0.001531,0.005678,-76.714508,96.900162,-209.158539,60.187679,24.83013,12.31467,11.793548,-1.0,-1.0,100.069626,0.56282,-0.009037,0.01577,0.315157
879992.66352,-0.09325386000000001,-0.15492933000000003,-9.83484873,0.004225,0.000103,0.002819,-76.622681,96.826996,-209.115616,60.187679,24.83013,12.31467,11.793548,-1.0,-1.0,100.069626,0.56282,-0.009042,0.01578,0.315174
879992.683506,-0.08562168,-0.16151184,-9.804015900000001,0.004033,-0.001661,0.004302,-76.910507,96.836777,-209.080444,60.187679,24.83013,12.31467,11.793548,-1.0,-1.0,100.069626,0.56282,-0.009044,0.015799,0.315173
879992.703492,-0.09504909,-0.14969079000000002,-9.83035575,0.003299,-0.00015,0.005423,-76.616028,96.933167,-208.980438,60.187679,24.83013,12.31467,11.793548,-1.0,-1.0,100.069626,0.56282,-0.00906,0.015795,0.31517
879992.723478,-0.09026181000000001,-0.15282999000000003,-9.816141060000001,0.003196,-0.000338,0.00405,-76.693085,96.958344,-209.242233,60.187679,24.83013,12.31467,11.793548,-1.0,-1.0,100.069626,0.56282,-0.009074,0.015801,0.315182
879992.743464,-0.1013373,-0.14818986,-9.81718092,0.002136,-0.000778,0.00461,-76.566025,96.972305,-209.000504,60.187679,24.83013,12.31467,11.793548,-1.0,-1.0,100.069626,0.56282,-0.009078,0.015797,0.31517
879992.763451,-0.08696565,-0.14998509000000002,-9.818377739999999,0.002427,-0.000987,0.005213,-76.582779,96.921295,-209.20929,60.187679,24.83013,12.31467,11.793548,-1.0,-1.0,100.069626,0.56282,-0.009081,0.015788,0.315167
879992.783437,-0.09236115,-0.14849397,-9.80521272,0.003897,-0.001407,0.004253,-76.901413,96.846909,-209.342194,60.187679,24.83013,12.31467,11.793548,-1.0,-1.0,100.069786,0.546967,-0.00909,0.015785,0.31516
879992.803423,-0.09580446000000001,-0.15866694,-9.80581113,0.003995,-0.001733,0.005062,-76.632095,96.873505,-209.184631,60.187679,24.83013,12.31467,11.793548,-1.0,-1.0,100.069786,0.546967,-0.009093,0.015788,0.315153
879992.823409,-0.09894366,-0.1505835,-9.82526436,0.003377,0.00156,0.004284,-76.559952,96.856003,-209.273865,60.187679,24.83013,12.31467,11.793548,-1.0,-1.0,100.069786,0.546967,-0.009106,0.015795,0.315158
879992.843395,-0.07409493,-0.15701886,-9.817033770000002,0.003894,0.001506,0.003883,-76.680161,96.838654,-209.193512,60.187679,24.83013,12.31467,11.793548,-1.0,-1.0,100.069786,0.546967,-0.009105,0.015791,0.31516
879992.863381,-0.08532738,-0.16256151,-9.81434583,0.002232,0.000544,0.006219,-76.493256,97.011703,-209.192261,60.187679,24.83013,12.31467,11.793548,-1.0,-1.0,100.069786,0.546967,-0.009096,0.015795,0.315156
879992.883368,-0.09475478999999999,-0.15193728,-9.81554265,0.003775,0.000153,0.005923,-76.555481,97.070709,-209.176834,60.187679,24.83013,12.31467,11.793548,-1.0,-1.0,100.069786,0.546967,-0.009085,0.015791,0.315168
879992.903354,-0.08203122,-0.15297714,-9.81373761,0.00399,-0.000906,0.004613,-76.492691,96.926559,-209.046799,60.187679,24.83013,12.31467,11.793548,-1.0,-1.0,100.069786,0.546967,-0.009089,0.015799,0.315183
879992.92334,-0.09564750000000001,-0.15268284000000001,-9.820182780000001,0.002659,0.000339,0.00403,-76.480652,96.82782,-209.476288,60.187679,24.83013,12.31467,11.793548,-1.0,-1.0,100.069786,0.546967,-0.009093,0.015802,0.315174
879992.943326,-0.10044459,-0.14998509000000002,-9.81074556,0.004507,-0.001183,0.004379,-76.600555,96.799652,-209.096146,60.187679,24.83013,12.31467,11.793548,-1.0,-1.0,100.069786,0.546967,-0.009088,0.015787,0.315187
879992.963312,-0.08876088000000001,-0.14654178,-9.81823059,0.004202,-0.000626,0.004258,-76.62178,96.800156,-209.34108,60.187679,24.83013,12.31467,11.793548,-1.0,-1.0,100.069786,0.546967,-0.009083,0.015787,0.315183
879992.983298,-0.08726976,-0.14938668000000002,-9.80521272,0.002782,-0.000254,0.004759,-76.642288,96.981079,-208.95401,60.187679,24.83013,12.31467,11.793548,-1.0,-1.0,100.069786,0.546967,-0.009096,0.015787,0.315191
879993.023271,-0.0779895,-0.14250006,-9.824371650000002,0.003328,-0.000202,0.003938,-76.781601,96.718781,-208.884872,60.187679,24.83013,12.31467,11.793548,-1.0,-1.0,100.069786,0.546967,-0.009104,0.015762,0.315201
879993.043257,-0.09490194,-0.15253569,-9.81119682,0.002807,0.001159,0.004547,-76.77803,96.812363,-209.278976,60.187679,24.83013,12.31467,11.793548,-1.0,-1.0,100.069786,0.546967,-0.009109,0.015771,0.315207
879993.063243,-0.08981055,-0.15986376000000002,-9.820182780000001,0.002661,-0.000336,0.004266,-76.752258,96.635117,-209.112167,60.187679,24.83013,12.31467,11.793548,-1.0,-1.0,100.069786,0.546967,-0.009113,0.015771,0.315202
879993.083229,-0.09400923,-0.13621185,-9.80895033,0.002535,0.000824,0.003781,-76.752258,96.635117,-209.112167,60.187679,24.83013,12.31467,11.793548,-1.0,-1.0,100.069786,0.546967,-0.009117,0.015766,0.315199
879993.103215,-0.09834525,-0.15418377,-9.820182780000001,0.001977,0.000283,0.004696,-76.778671,96.879257,-209.048752,60.187679,24.83013,12.31467,11.793548,-1.0,-1.0,100.069786,0.546967,-0.009116,0.015769,0.315199
879993.123202,-0.08487612,-0.1505835,-9.8128449,0.001977,0.000283,0.004696,-76.834305,96.944962,-209.103134,60.187679,24.83013,12.31467,11.793548,-1.0,-1.0,100.069786,0.546967,-0.009109,0.015754,0.315208
879993.143188,-0.09131148000000001,-0.15672456,-9.807459210000001,0.0052,0.000203,0.004628,-76.751236,96.973312,-208.713638,60.187679,24.83013,12.31467,11.793548,-1.0,-1.0,100.069786,0.546967,-0.009106,0.015754,0.315217
879993.163174,-0.08592579,-0.16016787000000002,-9.80505576,0.000842,0.000158,0.003746,-76.684692,96.954468,-208.780716,60.187679,24.83013,12.31467,11.793548,-1.0,-1.0,100.069786,0.546967,-0.009102,0.015769,0.315221
879993.18316,-0.09040896000000001,-0.155979,-9.811795230000001,0.002662,0.000683,0.004815,-76.694656,96.923203,-209.12291,60.187679,24.83013,12.31467,11.793548,-1.0,-1.0,100.069786,0.546967,-0.009102,0.015743,0.315206
879993.203146,-0.09595161,-0.14250006,-9.810304109999999,0.003786,-0.000589,0.00391,-76.635986,96.916229,-209.191132,60.187679,24.83013,12.31467,11.793548,-1.0,-1.0,100.069786,0.546967,-0.009092,0.015732,0.315222
879993.223132,-0.10178856,-0.14340258,-9.818829,0.002736,0.000326,0.003064,-76.724289,96.979965,-209.157196,60.187679,24.83013,12.31467,11.793548,-1.0,-1.0,100.069786,0.546967,-0.009099,0.015733,0.31522
879993.223132,-0.10178856,-0.14340258,-9.818829,0.002736,0.000326,0.003064,-76.724289,96.979965,-209.157196,60.187679,24.83013,12.31467,11.793548,-1.0,-1.0,100.069786,0.546967,-0.009099,0.015733,0.31522
879993.263105,-0.08157996,-0.13876245,-9.821821049999999,0.00237,-0.001272,0.003404,-76.561432,96.964752,-209.232071,60.187679,24.83013,12.31467,11.793548,-1.0,-1.0,100.069786,0.546967,-0.009082,0.01575,0.315211
879993.283091,-0.09040896000000001,-0.14505066000000003,-9.81014715,0.003519,-0.001443,0.004464,-76.762833,97.031036,-208.956863,60.187679,24.83013,12.31467,11.793548,-1.0,-1.0,100.069786,0.546967,-0.009089,0.015728,0.315216
879993.303077,-0.09550035000000001,-0.15851979,-9.81254079,0.002643,-6.1e-05,0.002913,-76.554062,96.875259,-208.88031,60.187679,24.83013,12.31467,11.793548,-1.0,-1.0,100.069786,0.546967,-0.009105,0.015728,0.315226
879993.323063,-0.09310671,-0.14639463000000003,-9.821821049999999,0.003065,-0.001099,0.005338,-76.658417,96.899429,-208.850204,60.187679,24.83013,12.31467,11.793548,-1.0,-1.0,100.069786,0.546967,-0.009104,0.015729,0.315216
879993.343049,-0.08607294000000001,-0.16241436,-9.81733788,0.003287,-0.001031,0.005141,-76.682159,97.060471,-209.040314,60.187679,24.83013,12.31467,11.793548,-1.0,-1.0,100.069786,0.546967,-0.009112,0.015722,0.315214
879993.363036,-0.09789399,-0.14998509000000002,-9.82466595,0.002088,8.1e-05,0.00322,-76.680176,96.92627,-209.066986,60.187679,24.83013,12.31467,11.793548,-1.0,-1.0,100.069786,0.546967,-0.009115,0.01572,0.315215
879993.383022,-0.08232552,-0.14893542,-9.832150980000002,0.002937,0.000369,0.005113,-76.737671,96.904739,-208.958771,60.187679,24.83013,12.31467,11.793548,-1.0,-1.0,100.069786,0.546967,-0.009117,0.015706,0.315215
879993.403008,-0.09236115,-0.14923953,-9.81418887,0.003918,0.000191,0.003833,-76.752991,96.945099,-208.7202,60.187679,24.83013,12.31467,11.793548,-1.0,-1.0,100.069786,0.546967,-0.009108,0.015716,0.315204
879993.422994,-0.08471916,-0.15178032,-9.81,0.003719,3e-05,0.00595,-76.569107,97.036316,-209.093109,60.187679,24.83013,12.31467,11.793548,-1.0,-1.0,100.069786,0.546967,-0.00911,0.015717,0.31518
879993.44298,-0.0754389,-0.14594337000000002,-9.815238540000001,0.002863,-0.000375,0.003409,-76.67717,96.737946,-209.250595,60.187679,24.83013,12.31467,11.793548,-1.0,-1.0,100.069786,0.546967,-0.00911,0.015719,0.315187
879993.462967,-0.09176274,-0.15103476000000002,-9.81777933,0.004187,-7.3e-05,0.005108,-76.43808,96.834152,-208.807404,60.187679,24.83013,12.31467,11.793548,-1.0,-1.0,100.069786,0.546967,-0.009116,0.015708,0.315184
879993.482953,-0.08502327,-0.1505835,-9.82661814,0.002864,-0.000824,0.004369,-76.357376,96.979568,-208.985672,60.187679,24.83013,12.31467,11.793548,-1.0,-1.0,100.069786,0.546967,-0.009123,0.0157,0.31519
879993.502939,-0.08576883000000002,-0.14699304000000002,-9.816141060000001,0.002635,-0.000595,0.003764,-76.443695,97.053177,-208.794006,60.187679,24.83013,12.31467,11.793548,-1.0,-1.0,100.069786,0.546967,-0.009119,0.015696,0.315187
879993.522925,-0.09430353000000001,-0.14639463000000003,-9.83006145,0.003535,0.000367,0.003176,-76.656067,96.921997,-208.963974,60.187679,24.83013,12.31467,11.793548,-1.0,-1.0,100.069786,0.546967,-0.009117,0.015708,0.315179
879993.542911,-0.09624591,-0.15433092,-9.807155100000001,0.003543,1.6e-05,0.003423,-76.536316,96.914383,-208.685501,60.187679,24.83013,12.31467,11.793548,-1.0,-1.0,100.069786,0.546967,-0.009114,0.015701,0.315167
879993.562897,-0.10088604,-0.15866694,-9.8302086,0.00238,0.000323,0.00366,-76.56488,96.820724,-208.801804,60.187679,24.83013,12.31467,11.793548,-1.0,-1.0,100.069786,0.546967,-0.009108,0.015698,0.315159
879993.582884,-0.08427771,-0.15701886,-9.817485030000002,0.003269,-0.000412,0.004161,-76.373947,97.057648,-208.759476,60.187679,24.83013,12.31467,11.793548,-1.0,-1.0,100.069786,0.546967,-0.009098,0.015693,0.315149
879993.60287,-0.07993188000000001,-0.1360647,-9.80820477,0.003211,-0.001371,0.002621,-76.441849,97.049133,-208.736435,60.187679,24.83013,12.31467,11.793548,-1.0,-1.0,100.069786,0.546967,-0.009103,0.015692,0.315129
879993.622856,-0.09744273000000002,-0.15148602000000003,-9.82946304,0.0029,-7e-05,0.00492,-76.471344,96.91478,-208.530548,60.187679,24.83013,12.31467,11.793548,-1.0,-1.0,100.069786,0.546967,-0.00909,0.015689,0.315121
879993.642842,-0.09550035000000001,-0.15806852999999998,-9.79353882,0.003652,0.000537,0.006132,-76.431793,96.979767,-208.750504,60.187679,24.83013,12.31467,11.793548,-1.0,-1.0,100.069786,0.546967,-0.009098,0.015684,0.315122
879993.662828,-0.08667135000000001,-0.15387966,-9.8216739,0.002099,-0.000915,0.004358,-76.50206,96.899994,-208.974991,60.187679,24.83013,12.31467,11.793548,-1.0,-1.0,100.069786,0.546967,-0.00911,0.015699,0.315133
879993.702801,-0.08935929000000001,-0.15732297,-9.818829,0.002812,-0.000622,0.005141,-76.462402,97.06105,-208.750076,60.187679,24.83013,12.31467,11.793548,-1.0,-1.0,100.069786,0.546967,-0.009123,0.015672,0.31512
879993.722787,-0.09236115,-0.14534496,-9.816141060000001,0.00345,0.000125,0.006734,-76.703079,96.901886,-209.014465,60.187679,24.83013,12.31467,11.793548,-1.0,-1.0,100.069786,0.546967,-0.009138,0.015668,0.315117
879993.742773,-0.08532738,-0.15088761,-9.79817895,0.002598,-0.000179,0.004872,-76.554398,97.031357,-208.628433,60.187679,24.83013,12.31467,11.793548,-1.0,-1.0,100.069786,0.546967,-0.009132,0.015655,0.315129
879993.762759,-0.08248248000000001,-0.16061913,-9.82616688,0.002228,0.000927,0.005149,-76.770386,97.013412,-209.092667,60.187679,24.83013,12.31467,11.793548,-1.0,-1.0,100.069786,0.546967,-0.00913,0.015657,0.315128
879993.782745,-0.0896634,-0.14505066000000003,-9.78934014,0.00388,-1.4e-05,0.004322,-76.576477,97.100739,-209.085083,60.187679,24.83013,12.31467,11.793548,-1.0,-1.0,100.069786,0.546967,-0.009119,0.015641,0.315133
879993.802732,-0.08772102000000001,-0.15118191,-9.82107549,0.002793,-0.000974,0.004424,-76.576477,97.100739,-209.085083,60.187679,24.83013,12.31467,11.793548,-1.0,-1.0,100.069786,0.546967,-0.009109,0.015643,0.31513
879993.822718,-0.09370512,-0.14564907000000002,-9.81014715,0.003163,0.00029,0.004792,-76.760559,96.982452,-208.687851,60.187679,24.83013,12.31467,11.793548,-1.0,-1.0,100.069786,0.546967,-0.009104,0.015632,0.315123
879993.842704,-0.08128566000000001,-0.15806852999999998,-9.80775351,0.003004,-0.000584,0.003712,-76.781082,97.132858,-209.159836,60.187679,24.83013,12.31467,11.793548,-1.0,-1.0,100.069786,0.546967,-0.0091,0.015621,0.315119
879993.86269,-0.08906499000000001,-0.16435674000000003,-9.83095416,0.002882,0.000448,0.004187,-76.753265,97.089264,-208.90126,60.187679,24.83013,12.31467,11.793548,-1.0,-1.0,100.069794,0.546967,-0.009102,0.015625,0.315116
879993.882676,-0.1070271,-0.15971661,-9.799817220000001,0.001415,-0.001124,0.003788,-76.594147,96.809525,-208.764557,60.187679,24.83013,12.31467,11.793548,-1.0,-1.0,100.069794,0.546967,-0.009105,0.015619,0.315107
879993.902662,-0.10343664,-0.14624748,-9.8361927,0.003764,-0.0015,0.002992,-76.813843,96.951752,-208.932907,60.187679,24.83013,12.31467,11.793548,-1.0,-1.0,100.069794,0.546967,-0.009108,0.015616,0.315108
879993.922649,-0.09445068,-0.15701886,-9.80610543,0.003864,-0.000104,0.004158,-76.563828,96.929688,-208.827469,60.187679,24.83013,12.31467,11.793548,-1.0,-1.0,100.069794,0.546967,-0.009125,0.015625,0.315104
879993.942635,-0.08861373,-0.15074046,-9.79802199,0.00201,-0.000854,0.00582,-76.522018,97.064468,-209.347672,60.187679,24.83013,12.31467,11.793548,-1.0,-1.0,100.069794,0.546967,-0.009119,0.015618,0.315094
879993.962621,-0.09805095000000001,-0.15193728,-9.831101310000001,0.003482,-0.001186,0.004802,-76.343155,97.137375,-209.043518,60.187679,24.83013,12.31467,11.793548,-1.0,-1.0,100.069794,0.546967,-0.009122,0.015623,0.315115
879993.982607,-0.0751446,-0.15478218000000002,-9.80026848,0.003606,-0.0007,0.003489,-76.598648,96.982147,-208.592667,60.187679,24.83013,12.31467,11.793548,-1.0,-1.0,100.069794,0.546967,-0.009137,0.015627,0.315112
879994.002593,-0.09774684000000002,-0.15567489,-9.84697389,0.002642,-0.001386,0.004374,-76.560837,96.917191,-208.947617,60.187679,24.83013,12.31467,11.793548,-1.0,-1.0,100.069794,0.546967,-0.009145,0.01563,0.315103
879994.02258,-0.08996751000000001,-0.13696722,-9.81014715,0.003594,0.000863,0.003446,-76.457703,96.977249,-208.602615,60.187679,24.83013,12.31467,11.793548,-1.0,-1.0,100.069794,0.546967,-0.009151,0.015622,0.315101
879994.042566,-0.08801532000000001,-0.15088761,-9.81254079,0.002717,-0.001666,0.003227,-76.678589,96.911469,-208.726547,60.187679,24.83013,12.31467,11.793548,-1.0,-1.0,100.069794,0.546967,-0.009144,0.015619,0.315104
879994.062552,-0.09984618,-0.14969079000000002,-9.825715620000002,0.002514,0.000624,0.003611,-76.527802,97.056885,-208.912766,60.187679,24.83013,12.31467,11.793548,-1.0,-1.0,100.069794,0.546967,-0.009155,0.015619,0.315099
879994.082538,-0.07739109000000001,-0.14773860000000003,-9.79697232,0.003399,-0.000746,0.00445,-76.478989,96.994064,-208.886429,60.187679,24.83013,12.31467,11.793548,-1.0,-1.0,100.069794,0.546967,-0.009158,0.015613,0.315081
879994.082538,-0.07739109000000001,-0.14773860000000003,-9.79697232,0.003399,-0.000746,0.00445,-76.478989,96.994064,-208.886429,60.187679,24.83013,12.31467,11.793548,-1.0,-1.0,100.069794,0.546967,-0.009158,0.015613,0.315081
879994.12251,-0.08756406,-0.15806852999999998,-9.80909748,0.004305,-2.5e-05,0.006097,-76.471436,97.098801,-208.982788,60.187679,24.83013,12.31467,11.793548,-1.0,-1.0,100.069794,0.546967,-0.009148,0.015615,0.315061
879994.142497,-0.08876088000000001,-0.16959528000000001,-9.80985285,0.002797,-0.00093,0.004593,-76.450363,97.041946,-209.005371,60.187679,24.83013,12.31467,11.793548,-1.0,-1.0,100.069794,0.546967,-0.009156,0.015611,0.315065
879994.162483,-0.08067744,-0.1474443,-9.811795230000001,0.004217,-1.1e-05,0.004664,-76.377869,97.064789,-208.929489,60.187679,24.83013,12.31467,11.793548,-1.0,-1.0,100.069794,0.546967,-0.009181,0.015618,0.315056
879994.182469,-0.08217837000000001,-0.14669874000000002,-9.79248915,0.004764,0.000671,0.005656,-76.37085,96.90213,-208.746155,60.187679,24.83013,12.31467,11.793548,-1.0,-1.0,100.069794,0.546967,-0.009178,0.015614,0.315053
879994.202455,-0.08712261,-0.14833701000000002,-9.829158930000002,0.002373,-0.000627,0.003871,-76.339645,97.206329,-209.080704,60.187679,24.83013,12.31467,11.793548,-1.0,-1.0,100.069794,0.546967,-0.00917,0.01563,0.315072
879994.222441,-0.09131148000000001,-0.15462522000000004,-9.79443153,0.004745,0.000354,0.003992,-76.292282,97.033569,-208.979645,60.187679,24.83013,12.31467,11.793548,-1.0,-1.0,100.069794,0.546967,-0.009169,0.015615,0.315063
879994.242428,-0.09640287000000002,-0.15612615,-9.82856052,0.002932,-0.0004,0.00503,-76.491989,97.079391,-208.907272,60.187679,24.83013,12.31467,11.793548,-1.0,-1.0,100.069794,0.546967,-0.009167,0.015624,0.315059
879994.262414,-0.09100737,-0.16226721000000002,-9.8216739,0.003723,0.000509,0.004437,-76.306732,97.05307,-208.500443,60.187679,24.83013,12.31467,11.793548,-1.0,-1.0,100.069794,0.546967,-0.009173,0.015627,0.31506
879994.2824,-0.09595161,-0.155979,-9.80476146,0.003723,-0.001957,0.005323,-76.509033,96.709442,-208.723907,60.187679,24.83013,12.31467,11.793548,-1.0,-1.0,100.069794,0.546967,-0.00918,0.015624,0.315068
879994.302386,-0.08846658,-0.1588239,-9.82556847,0.002114,-0.000374,0.004119,-76.401459,97.00708,-208.936249,60.187679,24.83013,12.31467,11.793548,-1.0,-1.0,100.069794,0.546967,-0.009185,0.015625,0.315077
879994.322372,-0.08232552,-0.1505835,-9.81434583,0.003068,-0.001791,0.002218,-76.273193,96.873032,-208.905518,60.187679,24.83013,12.31467,11.793548,-1.0,-1.0,100.069794,0.546967,-0.009198,0.015626,0.315078
879994.342358,-0.09864936,-0.15687171,-9.82601973,0.003685,-0.000421,0.003724,-76.148712,97.056412,-208.795624,60.187679,24.83013,12.31467,11.793548,-1.0,-1.0,100.069794,0.546967,-0.009199,0.015631,0.315055
879994.362345,-0.08921214,-0.16031502,-9.82257642,0.003304,2.1e-05,0.003705,-76.37677,97.02507,-208.938095,60.187679,24.83013,12.31467,11.793548,-1.0,-1.0,100.069794,0.546967,-0.009212,0.015635,0.315042
879994.382331,-0.08067744,-0.16286562,-9.813590460000002,0.002524,-0.001219,0.004516,-76.25386,97.054367,-209.25676,60.187679,24.83013,12.31467,11.793548,-1.0,-1.0,100.069794,0.546967,-0.009203,0.015639,0.315039
879994.402317,-0.09640287000000002,-0.15387966,-9.82601973,0.002884,2.1e-05,0.003164,-76.494736,97.068649,-208.680786,60.187679,24.83013,12.31467,11.793548,-1.0,-1.0,100.069794,0.546967,-0.009217,0.015632,0.315049
879994.442289,-0.08622009,-0.15866694,-9.838890450000001,0.003462,0.001358,0.003802,-76.397156,96.974533,-208.785995,60.187679,24.83013,12.31467,11.793548,-1.0,-1.0,100.069794,0.546967,-0.009212,0.015624,0.31504
879994.462275,-0.09490194,-0.16046217000000002,-9.807459210000001,0.004282,0.000428,0.004116,-76.316696,96.941162,-208.768936,60.187679,24.83013,12.31467,11.793548,-1.0,-1.0,100.069794,0.546967,-0.009204,0.015625,0.315041
879994.482262,-0.08726976,-0.14490351,-9.81777933,0.002086,-0.00134,0.004555,-76.337814,97.022018,-208.781296,60.187679,24.83013,12.31467,11.793548,-1.0,-1.0,100.069794,0.546967,-0.009201,0.015632,0.31504
879994.502248,-0.10088604,-0.16645608,-9.820477080000002,0.003805,-2.5e-05,0.004494,-76.327988,96.885345,-208.66481,60.187679,24.83013,12.31467,11.793548,-1.0,-1.0,100.069794,0.546967,-0.009208,0.015626,0.315038
879994.522234,-0.08277678,-0.14534496,-9.82856052,0.001971,-7.3e-05,0.00471,-76.327988,96.885345,-208.66481,60.187679,24.83013,12.31467,11.793548,-1.0,-1.0,100.069794,0.546967,-0.009203,0.015638,0.315044
879994.54222,-0.09026181000000001,-0.15701886,-9.8242245,0.003329,-0.001055,0.004781,-76.509003,96.865601,-208.606049,60.187679,24.83013,12.31467,11.793548,-1.0,-1.0,100.069794,0.546967,-0.0092,0.015637,0.315043
879994.562206,-0.09520605,-0.15418377,-9.801171,0.002697,-0.0014,0.003941,-76.347855,96.699829,-208.933929,60.187679,24.83013,12.31467,11.793548,-1.0,-1.0,100.069794,0.546967,-0.009214,0.015636,0.315041
879994.582193,-0.09310671,-0.14445225,-9.823027680000001,0.002224,0.000719,0.004685,-76.541306,97.056992,-209.069366,60.187679,24.83013,12.31467,11.793548,-1.0,-1.0,100.069794,0.546967,-0.009228,0.015643,0.31504
879994.602179,-0.09310671,-0.14445225,-9.81464013,0.003218,-0.0003,0.005975,-76.471283,96.772186,-208.844681,60.187679,24.83013,12.31467,11.793548,-1.0,-1.0,100.069794,0.546967,-0.009226,0.015644,0.315042
879994.622165,-0.08741691000000001,-0.14699304000000002,-9.83679111,0.004475,-0.000139,0.00494,-76.523376,96.984192,-208.873093,60.187679,24.83013,12.31467,11.793548,-1.0,-1.0,100.069794,0.546967,-0.009225,0.015635,0.315054
879994.642151,-0.09609875999999999,-0.14969079000000002,-9.80490861,0.003659,-0.000408,0.003327,-76.456879,96.834915,-208.786758,60.187679,24.83013,12.31467,11.793548,-1.0,-1.0,100.069794,0.546967,-0.00923,0.015658,0.315057
879994.662137,-0.09265545000000001,-0.15462522000000004,-9.813139200000002,0.00412,-0.001073,0.005065,-76.552063,96.992294,-208.959595,60.187679,24.83013,12.31467,11.793548,-1.0,-1.0,100.069794,0.546967,-0.009234,0.015674,0.315064
879994.662137,-0.09265545000000001,-0.15462522000000004,-9.813139200000002,0.00412,-0.001073,0.005065,-76.552063,96.992294,-208.959595,60.187679,24.83013,12.31467,11.793548,-1.0,-1.0,100.069794,0.546967,-0.009234,0.015674,0.315064
879994.70211,-0.09236115,-0.1502892,-9.80640954,0.002333,3e-05,0.003693,-76.461578,96.942612,-208.809235,60.187679,24.83013,12.31467,11.793548,-1.0,-1.0,100.069794,0.546967,-0.009239,0.015666,0.315057
879994.722096,-0.08157996,-0.16585766999999998,-9.818829,0.00326,0.000148,0.003519,-76.483994,96.844604,-209.149948,60.187679,24.83013,12.31467,11.793548,-1.0,-1.0,100.069794,0.546967,-0.009242,0.015659,0.315059
879994.722096,-0.08157996,-0.16585766999999998,-9.818829,0.00326,0.000148,0.003519,-76.483994,96.844604,-209.149948,60.187679,24.83013,12.31467,11.793548,-1.0,-1.0,100.069794,0.546967,-0.009242,0.015659,0.315059
879994.762068,-0.08861373,-0.14864112000000002,-9.82646118,0.00383,4.4e-05,0.003691,-76.591019,96.79599,-208.900345,60.187679,24.83013,12.31467,11.793548,-1.0,-1.0,100.069794,0.546967,-0.009238,0.015633,0.315056
879994.782054,-0.08906499000000001,-0.15492933000000003,-9.80909748,0.002947,5e-05,0.005449,-76.382507,96.90509,-208.687363,60.187679,24.83013,12.31467,11.793548,-1.0,-1.0,100.069794,0.546967,-0.009244,0.015626,0.315039
879994.802041,-0.09595161,-0.14639463000000003,-9.81045126,0.004381,-0.000916,0.004202,-76.584732,96.913605,-208.546036,60.187679,24.83013,12.31467,11.793548,-1.0,-1.0,100.069794,0.546967,-0.009244,0.015619,0.315033
879994.822027,-0.08576883000000002,-0.15358536,-9.82661814,0.003557,-0.001152,0.003901,-76.510452,96.786072,-208.801346,60.187679,24.83013,12.31467,11.793548,-1.0,-1.0,100.069794,0.546967,-0.009249,0.015628,0.315024
879994.842013,-0.09684432000000001,-0.14564907000000002,-9.796079610000001,0.002493,-0.00043,0.004206,-76.497223,96.876572,-208.95871,60.187679,24.83013,12.31467,11.793548,-1.0,-1.0,100.069794,0.546967,-0.009257,0.015626,0.31503
879994.861999,-0.10269108,-0.15837263999999998,-9.83290635,0.003157,0.000492,0.00317,-76.477356,96.933594,-208.885605,60.187679,24.83013,12.31467,11.793548,-1.0,-1.0,100.069794,0.546967,-0.009256,0.015628,0.315029
879994.881985,-0.09894366,-0.14684589,-9.81045126,0.002018,0.001539,0.003295,-76.614716,96.86055,-209.170227,60.187679,24.83013,12.31467,11.793548,-1.0,-1.0,100.069794,0.546967,-0.009254,0.015624,0.315014
879994.901972,-0.08532738,-0.15687171,-9.812246490000001,0.002774,0.000779,0.003981,-76.508209,96.656479,-208.981476,60.187679,24.83013,12.31467,11.793548,-1.0,-1.0,100.069794,0.546967,-0.009237,0.015617,0.315009
879994.921958,-0.09325386000000001,-0.15387966,-9.83200383,0.002505,-0.00086,0.004938,-76.473785,96.7397,-208.915802,60.187679,24.83013,12.31467,11.793548,-1.0,-1.0,100.069794,0.546967,-0.009228,0.015613,0.315003
879994.941944,-0.09310671,-0.15193728,-9.79473564,0.003675,-0.001318,0.004468,-76.617279,96.577988,-208.927933,60.187679,24.83013,12.31467,11.793548,-1.0,-1.0,100.069794,0.546967,-0.009237,0.015611,0.315005
879994.96193,-0.09295956000000001,-0.15672456,-9.828707670000002,0.003237,-0.000379,0.004142,-76.482712,96.792068,-208.844147,60.187679,24.83013,12.31467,11.793548,-1.0,-1.0,100.069794,0.546967,-0.009244,0.015616,0.314999
879994.981916,-0.09564750000000001,-0.14759145,-9.79847325,0.004112,-0.001206,0.003355,-76.523987,96.829041,-208.927322,60.187679,24.83013,12.31467,11.793548,-1.0,-1.0,100.069794,0.546967,-0.009252,0.015618,0.314998
879995.001902,-0.08667135000000001,-0.15732297,-9.81808344,0.002341,-0.000909,0.004318,-76.422348,96.859741,-208.692062,60.187679,24.83013,12.31467,11.793548,-1.0,-1.0,100.069794,0.546967,-0.009254,0.015625,0.314982
879995.021889,-0.08397360000000001,-0.15522363,-9.82062423,0.002651,0.000359,0.004243,-76.401993,96.723114,-208.899536,60.187679,24.83013,12.31467,11.793548,-1.0,-1.0,100.069794,0.546967,-0.009251,0.015625,0.314978
879995.041875,-0.08502327,-0.14624748,-9.799375770000001,0.002714,-0.000207,0.003803,-76.742676,96.916595,-208.84819,60.187679,24.83013,12.31467,11.793548,-1.0,-1.0,100.069794,0.546967,-0.00925,0.015611,0.314973
879995.061861,-0.09669717,-0.15178032,-9.840234420000002,0.003507,0.000149,0.003407,-76.381302,96.841782,-208.902695,60.187679,24.83013,12.31467,11.793548,-1.0,-1.0,100.069794,0.546967,-0.009263,0.015607,0.314974
879995.081847,-0.10568313,-0.16346403,-9.80266212,0.002389,-0.000603,0.00428,-76.427551,96.802094,-209.014084,60.187679,24.83013,12.31467,11.793548,-1.0,-1.0,100.069794,0.546967,-0.009264,0.015608,0.314969
879995.101833,-0.08532738,-0.14938668000000002,-9.822870720000001,0.002574,-0.001337,0.002807,-76.163757,97.149475,-208.708099,60.187679,24.83013,12.31467,11.793548,-1.0,-1.0,100.069794,0.546967,-0.009264,0.0156,0.314962
879995.121819,-0.09355797,-0.14983794,-9.80925444,0.002674,0.00046,0.004771,-76.664352,97.061859,-208.967361,60.187679,24.83013,12.31467,11.793548,-1.0,-1.0,100.069794,0.546967,-0.009262,0.015603,0.314961
879995.141806,-0.08906499000000001,-0.14610033,-9.79802199,0.004756,0.000722,0.004583,-76.296921,96.882645,-208.82872,60.187679,24.83013,12.31467,11.793548,-1.0,-1.0,100.069794,0.546967,-0.009262,0.015593,0.314955
879995.161792,-0.09040896000000001,-0.15822549000000002,-9.83918475,0.002267,-0.001808,0.002778,-76.390839,97.178268,-208.735916,60.187679,24.83013,12.31467,11.793548,-1.0,-1.0,100.069794,0.546967,-0.009265,0.015601,0.314961
879995.201764,-0.08726976,-0.15373251000000002,-9.81763218,0.002527,-0.002237,0.005823,-76.495682,97.002243,-209.156525,60.187679,24.83013,12.31467,11.793548,-1.0,-1.0,100.069794,0.546967,-0.009262,0.015596,0.314947
879995.22175,-0.09220419,-0.15762708,-9.811795230000001,0.002064,-0.00074,0.004411,-76.602081,97.076782,-209.045929,60.187679,24.83013,12.31467,11.793548,-1.0,-1.0,100.069794,0.546967,-0.00927,0.015597,0.314948
879995.241737,-0.08876088000000001,-0.13876245,-9.812246490000001,0.002827,-0.00043,0.004605,-76.602081,97.076782,-209.045929,60.187679,24.83013,12.31467,11.793548,-1.0,-1.0,100.069794,0.546967,-0.009276,0.015589,0.314952
879995.261723,-0.09595161,-0.1651023,-9.82631403,0.004133,-0.0017,0.003287,-76.861176,96.802689,-208.967682,60.187679,24.83013,12.31467,11.793548,-1.0,-1.0,100.069794,0.546967,-0.009277,0.015608,0.314948
879995.281708,-0.08397360000000001,-0.16106057999999998,-9.8068608,0.005803,-0.000921,0.005871,-76.77533,96.707855,-209.099457,60.187679,24.83013,12.31467,11.793548,-1.0,-1.0,100.069794,0.546967,-0.009293,0.015621,0.314948
879995.301695,-0.08352234000000001,-0.15582204,-9.847268190000001,0.002031,0.001156,0.005541,-76.601349,96.762039,-209.046448,60.187679,24.83013,12.31467,11.793548,-1.0,-1.0,100.069794,0.546967,-0.009296,0.015634,0.314962
879995.321681,-0.08622009,-0.15926535,-9.81119682,0.002372,-0.000426,0.002858,-76.592026,96.903503,-208.973633,60.187679,24.83013,12.31467,11.793548,-1.0,-1.0,100.069794,0.546967,-0.009289,0.015616,0.31497
879995.341668,-0.07724394000000001,-0.16076628,-9.8245188,0.003223,0.000624,0.006064,-76.567551,96.8013,-209.075394,60.187679,24.83013,12.31467,11.793548,-1.0,-1.0,100.069794,0.546967,-0.009292,0.015602,0.314946
879995.361654,-0.08801532000000001,-0.15223158,-9.82751085,0.003066,-0.001565,0.003173,-76.690002,96.883499,-208.841965,60.187679,24.83013,12.31467,11.793548,-1.0,-1.0,100.069794,0.546967,-0.00929,0.015601,0.314951
879995.38164,-0.08712261,-0.15612615,-9.81373761,0.004067,0.000526,0.002508,-76.624496,96.84906,-209.159576,60.187679,24.83013,12.31467,11.793548,-1.0,-1.0,100.069794,0.546967,-0.009306,0.015587,0.314947
879995.401626,-0.09370512,-0.15313410000000002,-9.83470158,0.003122,-1.9e-05,0.004477,-76.678009,96.743896,-209.043716,60.187679,24.83013,12.31467,11.793548,-1.0,-1.0,100.069794,0.546967,-0.009304,0.015598,0.314927
879995.421613,-0.09834525,-0.15163317,-9.80909748,0.002468,0.000701,0.003823,-76.538834,97.109177,-208.947357,60.187679,24.83013,12.31467,11.793548,-1.0,-1.0,100.069794,0.546967,-0.009308,0.015607,0.314919
879995.441599,-0.08337519,-0.1651023,-9.80670384,0.004374,0.000107,0.004334,-76.614288,96.919174,-208.993256,60.187679,24.83013,12.31467,11.793548,-1.0,-1.0,100.069794,0.546967,-0.009306,0.015605,0.314913
879995.461586,-0.09640287000000002,-0.14773860000000003,-9.81823059,0.001789,-0.001023,0.003488,-76.571579,96.980667,-208.932968,60.187679,24.83013,12.31467,11.793548,-1.0,-1.0,100.069794,0.546967,-0.009304,0.015616,0.314905
879995.481572,-0.09714843000000001,-0.14849397,-9.80281908,0.003703,-0.00144,0.004274,-76.415268,96.98111,-208.896545,60.187679,24.83013,12.31467,11.793548,-1.0,-1.0,100.069794,0.546967,-0.009315,0.015592,0.314902
879995.501558,-0.0896634,-0.15193728,-9.8159841,0.003972,-0.000185,0.006157,-76.596176,96.882721,-208.609726,60.187679,24.83013,12.31467,11.793548,-1.0,-1.0,100.069794,0.546967,-0.009324,0.015605,0.314893
879995.521544,-0.09370512,-0.15193728,-9.81628821,0.004462,-0.00075,0.00507,-76.533157,96.933472,-208.861603,60.187679,24.83013,12.31467,11.793548,-1.0,-1.0,100.069794,0.546967,-0.009322,0.015607,0.314901
879995.54153,-0.08157996,-0.14490351,-9.79682517,0.003097,-0.000192,0.005697,-76.583496,96.958908,-209.040009,60.187679,24.83013,12.31467,11.793548,-1.0,-1.0,100.069794,0.546967,-0.009309,0.015613,0.31492
879995.561517,-0.08906499000000001,-0.15792138000000003,-9.82332198,0.004417,-0.001365,0.003843,-76.5457,96.859024,-209.164856,60.187679,24.83013,12.31467,11.793548,-1.0,-1.0,100.069794,0.546967,-0.009314,0.01561,0.314927
879995.581503,-0.08622009,-0.16121754000000002,-9.81059841,0.003901,-0.000683,0.00306,-76.53569,96.921158,-209.287231,60.187679,24.83013,12.31467,11.793548,-1.0,-1.0,100.069794,0.546967,-0.00932,0.015619,0.314927
879995.601489,-0.09609875999999999,-0.14983794,-9.819731520000001,0.002554,0.000349,0.003453,-76.762558,97.126541,-209.376816,60.187679,24.83013,12.31467,11.793548,-1.0,-1.0,100.069794,0.546967,-0.009324,0.015616,0.314912
879995.621475,-0.08846658,-0.14474655,-9.80476146,0.002289,-0.000151,0.004347,-76.262817,97.128403,-208.950989,60.187679,24.83013,12.31467,11.793548,-1.0,-1.0,100.069794,0.546967,-0.009315,0.01561,0.314889
879995.641461,-0.08517042000000001,-0.15282999000000003,-9.822870720000001,0.00314,-0.000756,0.003628,-76.442245,97.182999,-209.093704,60.187679,24.83013,12.31467,11.793548,-1.0,-1.0,100.069794,0.546967,-0.009314,0.015607,0.314882
879995.661447,-0.09684432000000001,-0.15687171,-9.80640954,0.000712,-0.000389,0.003269,-76.337601,96.93779,-209.255447,60.187679,24.83013,12.31467,11.793548,-1.0,-1.0,100.069794,0.546967,-0.009322,0.015612,0.314873
879995.681434,-0.07693983,-0.15074046,-9.81554265,0.002181,-0.000266,0.004863,-76.677963,97.185623,-209.330551,60.187679,24.83013,12.31467,11.793548,-1.0,-1.0,100.069794,0.546967,-0.009314,0.015605,0.314863
879995.70142,-0.08337519,-0.16241436,-9.801171,0.003257,-0.000911,0.003831,-76.333496,97.063339,-209.042694,60.187679,24.83013,12.31467,11.793548,-1.0,-1.0,100.069794,0.546967,-0.009307,0.015586,0.314856
879995.721406,-0.09609875999999999,-0.15163317,-9.831552570000001,0.00208,-0.000228,0.003145,-76.264618,96.903442,-208.930618,60.187679,24.83013,12.31467,11.793548,-1.0,-1.0,100.069794,0.546967,-0.009316,0.015597,0.314849
879995.741392,-0.0751446,-0.14714019,-9.811500930000001,0.002071,-0.000524,0.004169,-76.186829,97.050537,-208.922562,60.187679,24.83013,12.31467,11.793548,-1.0,-1.0,100.069794,0.546967,-0.009315,0.01559,0.31484
879995.781365,-0.08172711,-0.14923953,-9.82616688,0.001875,0.000587,0.003755,-76.3526,96.926453,-209.038208,60.187679,24.83013,12.31467,11.793548,-1.0,-1.0,100.069794,0.546967,-0.00931,0.015571,0.314829
879995.801351,-0.08846658,-0.1474443,-9.82122264,0.004373,0.000386,0.003754,-76.327606,97.164124,-208.750519,60.187679,24.83013,12.31467,11.793548,-1.0,-1.0,100.069794,0.546967,-0.009299,0.015562,0.314828
879995.821337,-0.08801532000000001,-0.15447807000000002,-9.832307940000002,0.00445,-0.000972,0.003457,-76.479401,97.019379,-208.864792,60.187679,24.83013,12.31467,11.793548,-1.0,-1.0,100.069794,0.546967,-0.0093,0.01557,0.314808
879995.841323,-0.09011466,-0.14519781,-9.7986204,0.002648,0.000466,0.004444,-76.318542,97.345795,-208.923096,60.187679,24.83013,12.31467,11.793548,-1.0,-1.0,100.069794,0.546967,-0.009301,0.015574,0.314811
879995.861309,-0.0868185,-0.14804271000000002,-9.818829,0.002307,0.000368,0.004424,-76.335403,97.193726,-209.023392,60.187679,24.83013,12.31467,11.793548,-1.0,-1.0,100.069794,0.546967,-0.009289,0.015574,0.314805
879995.881295,-0.09176274,-0.14459940000000002,-9.82062423,0.004533,-0.00065,0.003584,-76.434204,97.149643,-208.58812,60.187679,24.83013,12.31467,11.793548,-1.0,-1.0,100.069794,0.546967,-0.009289,0.015571,0.31481
879995.901282,-0.08592579,-0.14954364,-9.79817895,0.002801,0.00111,0.004116,-76.325592,97.190704,-208.673721,60.187679,24.83013,12.31467,11.793548,-1.0,-1.0,100.069794,0.546967,-0.009303,0.015581,0.314801
879995.921268,-0.0865242,-0.16375833,-9.84577707,0.002297,-0.000929,0.005282,-76.467239,96.997955,-208.780457,60.187679,24.83013,12.31467,11.793548,-1.0,-1.0,100.069794,0.546967,-0.009294,0.015571,0.314812
879995.941254,-0.08217837000000001,-0.15088761,-9.78634809,0.001935,-2.7e-05,0.004279,-76.258362,97.146072,-208.70549,60.187679,24.83013,12.31467,11.793548,-1.0,-1.0,100.069794,0.546967,-0.0093,0.01555,0.314818
879995.941254,-0.08217837000000001,-0.15088761,-9.78634809,0.001935,-2.7e-05,0.004279,-76.258362,97.146072,-208.70549,60.187679,24.83013,12.31467,11.793548,-1.0,-1.0,100.069794,0.546967,-0.0093,0.01555,0.314818
879995.981226,-0.09879651,-0.15642045000000002,-9.82601973,0.00255,-0.000632,0.004447,-76.182327,97.132065,-209.040222,60.187679,24.83013,12.31467,11.793548,-1.0,-1.0,100.069794,0.546967,-0.009306,0.015547,0.314799
879996.001213,-0.09400923,-0.15237873000000002,-9.79787484,0.00354,-0.001684,0.004243,-76.333527,97.08017,-208.867065,60.187679,24.83013,12.31467,11.793548,-1.0,-1.0,100.069733,0.552246,-0.009306,0.015536,0.314791
879996.021199,-0.09999333,-0.1588239,-9.8245188,0.002393,0.000183,0.00339,-76.403458,97.318405,-208.983215,60.187679,24.83013,12.31467,11.793548,-1.0,-1.0,100.069733,0.552246,-0.009312,0.015544,0.314794
879996.041185,-0.09669717,-0.15447807000000002,-9.808499070000002,0.003959,-0.000225,0.003567,-76.189438,97.26593,-209.014359,60.187679,24.83013,12.31467,11.793548,-1.0,-1.0,100.069733,0.552246,-0.009312,0.015539,0.31478
879996.061171,-0.09475478999999999,-0.14280417,-9.83185668,0.003619,-0.000809,0.005131,-76.494446,97.156143,-208.985687,60.187679,24.83013,12.31467,11.793548,-1.0,-1.0,100.069733,0.552246,-0.009312,0.01554,0.314772
879996.081157,-0.09340101,-0.15447807000000002,-9.81045126,0.002001,-0.000665,0.003677,-76.403442,97.264587,-209.219101,60.187679,24.83013,12.31467,11.793548,-1.0,-1.0,100.069733,0.552246,-0.009303,0.015545,0.314769
879996.101144,-0.09071307,-0.14624748,-9.79457868,0.003275,6.7e-05,0.004596,-76.479858,97.082169,-209.127518,60.187679,24.83013,12.31467,11.793548,-1.0,-1.0,100.069733,0.552246,-0.009303,0.015539,0.314755
879996.12113,-0.09265545000000001,-0.15837263999999998,-9.82946304,0.00285,-4.5e-05,0.004409,-76.448196,97.03569,-209.19426,60.187679,24.83013,12.31467,11.793548,-1.0,-1.0,100.069733,0.552246,-0.009307,0.01555,0.314764
879996.141116,-0.08382645000000001,-0.16121754000000002,-9.79353882,0.0038,0.000588,0.003695,-76.494308,97.046524,-209.000031,60.187679,24.83013,12.31467,11.793548,-1.0,-1.0,100.069733,0.552246,-0.009305,0.015539,0.314755
879996.161102,-0.08322804,-0.15522363,-9.84847482,0.002807,-0.00057,0.005347,-76.311188,97.141129,-209.119537,60.187679,24.83013,12.31467,11.793548,-1.0,-1.0,100.069733,0.552246,-0.009313,0.01554,0.314742
879996.181088,-0.08801532000000001,-0.14519781,-9.79233219,0.002807,-0.00057,0.005347,-76.380341,97.131592,-209.093246,60.187679,24.83013,12.31467,11.793548,-1.0,-1.0,100.069733,0.552246,-0.009318,0.015538,0.314753
879996.201074,-0.09415638000000001,-0.15567489,-9.81987867,0.003596,-0.000721,0.005517,-76.481125,97.191742,-208.728317,60.187679,24.83013,12.31467,11.793548,-1.0,-1.0,100.069733,0.552246,-0.009314,0.015533,0.31475
879996.221061,-0.09445068,-0.14714019,-9.82556847,0.00467,8.3e-05,0.004989,-76.349625,97.112,-208.964813,60.187679,24.83013,12.31467,11.793548,-1.0,-1.0,100.069733,0.552246,-0.009311,0.015536,0.314754
879996.241047,-0.08622009,-0.15701886,-9.81868185,0.001972,0.000442,0.004312,-76.567154,97.011841,-208.948395,60.187679,24.83013,12.31467,11.793548,-1.0,-1.0,100.069733,0.552246,-0.0093,0.015531,0.314754
879996.261033,-0.09684432000000001,-0.15507648,-9.839037600000001,0.003872,-0.000374,0.00505,-76.598145,96.784088,-208.964233,60.187679,24.83013,12.31467,11.793548,-1.0,-1.0,100.069733,0.552246,-0.009303,0.015522,0.314753
879996.281019,-0.09504909,-0.16256151,-9.80071974,0.004553,-0.000283,0.004247,-76.579041,97.021927,-208.790344,60.187679,24.83013,12.31467,11.793548,-1.0,-1.0,100.069733,0.552246,-0.009307,0.015521,0.314758
879996.301005,-0.09669717,-0.15163317,-9.82272357,0.002433,0.000321,0.004579,-76.588867,96.873077,-208.931381,60.187679,24.83013,12.31467,11.793548,-1.0,-1.0,100.069733,0.552246,-0.009303,0.015533,0.314755
879996.320992,-0.0925083,-0.14909238,-9.8128449,0.00334,0.001421,0.005344,-76.596695,96.907425,-208.936996,60.187679,24.83013,12.31467,11.793548,-1.0,-1.0,100.069733,0.552246,-0.009292,0.015532,0.314753
879996.340978,-0.08562168,-0.15074046,-9.817033770000002,0.004917,-1.9e-05,0.005188,-76.511948,96.879059,-208.976501,60.187679,24.83013,12.31467,11.793548,-1.0,-1.0,100.069733,0.552246,-0.009282,0.015539,0.314763
879996.360964,-0.09176274,-0.15208443,-9.82272357,0.003429,-0.000431,0.003541,-76.481918,97.009903,-208.945221,60.187679,24.83013,12.31467,11.793548,-1.0,-1.0,100.069733,0.552246,-0.009281,0.015553,0.314763
879996.38095,-0.08951625,-0.15672456,-9.808499070000002,0.003724,-0.001243,0.002698,-76.472748,96.936157,-208.907898,60.187679,24.83013,12.31467,11.793548,-1.0,-1.0,100.069733,0.552246,-0.009289,0.015547,0.31476
879996.400936,-0.08397360000000001,-0.14969079000000002,-9.82241946,0.004245,-0.000617,0.006306,-76.628281,96.880402,-209.158966,60.187679,24.83013,12.31467,11.793548,-1.0,-1.0,100.069733,0.552246,-0.009296,0.015552,0.314749
879996.440909,-0.07679268,-0.14759145,-9.80909748,0.004573,-0.000533,0.004309,-76.41214,97.092651,-208.875031,60.187679,24.83013,12.31467,11.793548,-1.0,-1.0,100.069733,0.552246,-0.009308,0.015561,0.31478
879996.460895,-0.09145863,-0.155979,-9.81688662,0.002817,-0.000817,0.00472,-76.460129,96.915604,-208.800583,60.187679,24.83013,12.31467,11.793548,-1.0,-1.0,100.069733,0.552246,-0.009315,0.015574,0.314764
879996.480881,-0.09236115,-0.1417545,-9.81119682,0.00268,-0.000785,0.005334,-76.57402,97.061249,-209.117966,60.187679,24.83013,12.31467,11.793548,-1.0,-1.0,100.069733,0.552246,-0.009328,0.015574,0.314764
879996.480881,-0.09236115,-0.1417545,-9.81119682,0.00268,-0.000785,0.005334,-76.57402,97.061249,-209.117966,60.187679,24.83013,12.31467,11.793548,-1.0,-1.0,100.069733,0.552246,-0.009328,0.015574,0.314764
879996.520853,-0.08906499000000001,-0.14639463000000003,-9.80655669,0.003329,0.000114,0.004276,-76.2341,96.987625,-208.694366,60.187679,24.83013,12.31467,11.793548,-1.0,-1.0,100.069733,0.552246,-0.009346,0.015568,0.314756
879996.54084,-0.09385227000000002,-0.14983794,-9.82197801,0.003135,0.001404,0.003207,-76.059128,97.127121,-208.835938,60.187679,24.83013,12.31467,11.793548,-1.0,-1.0,100.069733,0.552246,-0.00935,0.015567,0.314756
879996.560826,-0.09011466,-0.15552774,-9.80895033,0.003561,0.000108,0.003784,-76.327682,97.009033,-209.163422,60.187679,24.83013,12.31467,11.793548,-1.0,-1.0,100.069733,0.552246,-0.009343,0.015568,0.314742
879996.580812,-0.08502327,-0.1562733,-9.815238540000001,0.002856,-0.000984,0.004081,-76.389191,96.934509,-209.207642,60.187679,24.83013,12.31467,11.793548,-1.0,-1.0,100.069733,0.552246,-0.009334,0.015576,0.314743
879996.600798,-0.09595161,-0.13965516,-9.80670384,0.002866,-0.000556,0.003739,-76.475632,97.114365,-209.032791,60.187679,24.83013,12.31467,11.793548,-1.0,-1.0,100.069733,0.552246,-0.009335,0.015575,0.314745
879996.620784,-0.10253412,-0.1502892,-9.827814960000001,0.004099,-0.000122,0.00553,-76.368759,97.133835,-208.915085,60.187679,24.83013,12.31467,11.793548,-1.0,-1.0,100.069733,0.552246,-0.009344,0.015567,0.314741
879996.640771,-0.0836793,-0.15223158,-9.80865603,0.002834,-0.001564,0.00258,-76.549774,97.029892,-208.955048,60.187679,24.83013,12.31467,11.793548,-1.0,-1.0,100.069733,0.552246,-0.009354,0.015578,0.314747
879996.660757,-0.10178856,-0.15103476000000002,-9.81718092,0.0036,-3.7e-05,0.004693,-76.368134,97.116577,-208.922638,60.187679,24.83013,12.31467,11.793548,-1.0,-1.0,100.069733,0.552246,-0.009372,0.015574,0.314743
879996.680743,-0.09729558,-0.15837263999999998,-9.839940120000001,0.003438,0.000102,0.003846,-76.47876,97.140671,-208.999283,60.187679,24.83013,12.31467,11.793548,-1.0,-1.0,100.069733,0.552246,-0.00937,0.015583,0.314749
879996.700729,-0.08337519,-0.14998509000000002,-9.803711790000001,0.002022,-1.8e-05,0.004658,-76.47876,97.140671,-208.999283,60.187679,24.83013,12.31467,11.793548,-1.0,-1.0,100.069733,0.552246,-0.009376,0.015578,0.314749
879996.720715,-0.07993188000000001,-0.14759145,-9.831552570000001,0.001982,0.000165,0.005252,-76.48082,97.254761,-208.682007,60.187679,24.83013,12.31467,11.793548,-1.0,-1.0,100.069733,0.552246,-0.009387,0.015556,0.314756
879996.740701,-0.08083440000000001,-0.15313410000000002,-9.8159841,0.005152,0.001384,0.004238,-76.591156,97.162231,-209.056992,60.187679,24.83013,12.31467,11.793548,-1.0,-1.0,100.069733,0.552246,-0.009396,0.015556,0.314764
879996.760688,-0.09714843000000001,-0.14025357000000002,-9.80162226,0.003832,1.8e-05,0.006025,-76.32634,97.236313,-208.850586,60.187679,24.83013,12.31467,11.793548,-1.0,-1.0,100.069733,0.552246,-0.00939,0.015572,0.31477
879996.780674,-0.09550035000000001,-0.15328125,-9.83454462,0.001888,-0.000945,0.002341,-76.376358,97.215698,-209.037064,60.187679,24.83013,12.31467,11.793548,-1.0,-1.0,100.069733,0.552246,-0.009384,0.015589,0.314786
879996.80066,-0.07933347,-0.14773860000000003,-9.807302250000001,0.003607,0.000369,0.002902,-76.405151,97.183701,-209.270752,60.187679,24.83013,12.31467,11.793548,-1.0,-1.0,100.069733,0.552246,-0.009378,0.015578,0.314766
879996.820646,-0.08861373,-0.15897105,-9.831552570000001,0.003865,-0.000843,0.004761,-76.365463,97.160782,-209.10144,60.187679,24.83013,12.31467,11.793548,-1.0,-1.0,100.069733,0.552246,-0.009369,0.01558,0.314751
879996.840632,-0.08337519,-0.16181595000000001,-9.813590460000002,0.004931,-0.001461,0.003103,-76.568787,96.983597,-208.72937,60.187679,24.83013,12.31467,11.793548,-1.0,-1.0,100.069733,0.552246,-0.009373,0.015584,0.314763
879996.860619,-0.09145863,-0.15014205,-9.8216739,0.00397,0.000379,0.0057,-76.600342,97.054321,-208.948212,60.187679,24.83013,12.31467,11.793548,-1.0,-1.0,100.069733,0.552246,-0.009386,0.015598,0.314757
879996.880605,-0.07589016,-0.15717582000000002,-9.83843919,0.002301,-0.000481,0.00453,-76.587784,97.025177,-208.753067,60.187679,24.83013,12.31467,11.793548,-1.0,-1.0,100.069733,0.552246,-0.009376,0.015599,0.314752
879996.900591,-0.08427771,-0.15118191,-9.79084107,0.003664,-0.000487,0.004245,-76.591492,97.120773,-209.033615,60.187679,24.83013,12.31467,11.793548,-1.0,-1.0,100.069733,0.552246,-0.009364,0.015589,0.31476
879996.920577,-0.09894366,-0.14983794,-9.84233376,0.003748,-0.000119,0.005136,-76.540649,97.139038,-208.990799,60.187679,24.83013,12.31467,11.793548,-1.0,-1.0,100.069733,0.552246,-0.009364,0.0156,0.314756
879996.940563,-0.09490194,-0.15433092,-9.79323471,0.006223,-0.00053,0.004748,-76.487839,97.099442,-209.07814,60.187679,24.83013,12.31467,11.793548,-1.0,-1.0,100.069733,0.552246,-0.009367,0.015609,0.314755
879996.96055,-0.09176274,-0.15747012000000002,-9.818829,0.003089,2.6e-05,0.00395,-76.52272,97.059296,-209.013718,60.187679,24.83013,12.31467,11.793548,-1.0,-1.0,100.069733,0.552246,-0.009369,0.01564,0.314745
879996.980536,-0.08457201,-0.15897105,-9.81868185,0.002518,0.00067,0.004672,-76.428848,97.11084,-208.840759,60.187679,24.83013,12.31467,11.793548,-1.0,-1.0,100.069733,0.552246,-0.00937,0.01564,0.314737
879997.000522,-0.08786817,-0.16540641000000003,-9.803113380000001,0.004917,-0.000799,0.005947,-76.496307,97.202499,-209.102417,60.187679,24.83013,12.31467,11.793548,-1.0,-1.0,100.069733,0.552246,-0.009367,0.015627,0.314741
879997.020508,-0.09415638000000001,-0.14833701000000002,-9.835594290000001,0.002836,0.000418,0.004233,-76.450012,96.926941,-209.052582,60.187679,24.83013,12.31467,11.793548,-1.0,-1.0,100.069733,0.552246,-0.009371,0.015651,0.314748
879997.040494,-0.08636724,-0.14969079000000002,-9.799974180000001,0.003472,-0.001413,0.003944,-76.421402,97.042038,-209.017334,60.187679,24.83013,12.31467,11.793548,-1.0,-1.0,100.069733,0.552246,-0.009368,0.015651,0.314756
879997.06048,-0.09490194,-0.15612615,-9.827069400000001,0.002165,-0.000552,0.005435,-76.293365,97.146988,-208.998383,60.187679,24.83013,12.31467,11.793548,-1.0,-1.0,100.069733,0.552246,-0.009378,0.015663,0.314747
879997.06048,-0.09490194,-0.15612615,-9.827069400000001,0.002165,-0.000552,0.005435,-76.293365,97.146988,-208.998383,60.187679,24.83013,12.31467,11.793548,-1.0,-1.0,100.069733,0.552246,-0.009378,0.015663,0.314747
879997.120439,-0.10478061,-0.14849397,-9.824371650000002,0.002201,-0.000467,0.004723,-76.440002,97.000458,-209.133698,60.187679,24.83013,12.31467,11.793548,-1.0,-1.0,100.069542,0.5681,-0.009397,0.015695,0.314732
879997.140425,-0.08157996,-0.13936086,-9.80595828,0.004082,0.000668,0.003449,-76.449661,96.928177,-209.429916,60.187679,24.83013,12.31467,11.793548,-1.0,-1.0,100.069542,0.5681,-0.009407,0.01569,0.314727
879997.160411,-0.08547453,-0.14804271000000002,-9.835447140000001,0.002957,0.000894,0.003922,-76.563171,96.796646,-209.245667,60.187679,24.83013,12.31467,11.793548,-1.0,-1.0,100.069542,0.5681,-0.009417,0.015714,0.314721
879997.180398,-0.08786817,-0.1591182,-9.814787280000001,0.003841,-0.000169,0.00288,-76.466858,96.916458,-209.131592,60.187679,24.83013,12.31467,11.793548,-1.0,-1.0,100.069542,0.5681,-0.009416,0.015707,0.314719
879997.200384,-0.09325386000000001,-0.15462522000000004,-9.81090252,0.002005,-0.000996,0.005018,-76.41304,96.894424,-209.147919,60.187679,24.83013,12.31467,11.793548,-1.0,-1.0,100.069542,0.5681,-0.00942,0.015711,0.31472
879997.22037,-0.11391372000000001,-0.14519781,-9.828707670000002,0.003651,-0.000609,0.0043,-76.193619,96.901367,-209.011597,60.187679,24.83013,12.31467,11.793548,-1.0,-1.0,100.069542,0.5681,-0.009426,0.015694,0.31472
879997.22037,-0.11391372000000001,-0.14519781,-9.828707670000002,0.003651,-0.000609,0.0043,-76.193619,96.901367,-209.011597,60.187679,24.83013,12.31467,11.793548,-1.0,-1.0,100.069542,0.5681,-0.009426,0.015694,0.31472
879997.260342,-0.0953532,-0.15373251000000002,-9.828266220000001,0.003413,9.4e-05,0.005734,-76.29483,96.769119,-209.066772,60.187679,24.83013,12.31467,11.793548,-1.0,-1.0,100.069542,0.5681,-0.009436,0.015699,0.314697
879997.280329,-0.09430353000000001,-0.15507648,-9.820025820000001,0.004262,-0.000195,0.003714,-76.429977,96.80127,-209.016739,60.187679,24.83013,12.31467,11.793548,-1.0,-1.0,100.069542,0.5681,-0.009437,0.015697,0.314714
879997.300315,-0.09370512,-0.15373251000000002,-9.819731520000001,0.002858,-0.000397,0.004278,-76.299393,96.680176,-209.153564,60.187679,24.83013,12.31467,11.793548,-1.0,-1.0,100.069542,0.5681,-0.009428,0.0157,0.314723
879997.320301,-0.07574301000000001,-0.14070483,-9.81119682,0.003483,0.000203,0.004581,-76.127808,97.039673,-209.251282,60.187679,24.83013,12.31467,11.793548,-1.0,-1.0,100.069542,0.5681,-0.009438,0.015697,0.314717
879997.340287,-0.09295956000000001,-0.15074046,-9.82152675,0.003193,-0.000323,0.003173,-76.454559,96.923874,-209.065094,60.187679,24.83013,12.31467,11.793548,-1.0,-1.0,100.069542,0.5681,-0.009435,0.01569,0.314714
879997.360273,-0.07663572,-0.14789556,-9.81509139,0.001774,0.00017,0.004383,-76.378342,96.907654,-209.332947,60.187679,24.83013,12.31467,11.793548,-1.0,-1.0,100.069542,0.5681,-0.009444,0.015693,0.314699
879997.380259,-0.09190989000000001,-0.15777423000000002,-9.816582510000002,0.003157,0.000357,0.003614,-76.389252,97.115417,-209.276337,60.187679,24.83013,12.31467,11.793548,-1.0,-1.0,100.069542,0.5681,-0.00945,0.015697,0.314705
879997.400246,-0.09176274,-0.14579622,-9.823174830000001,0.003592,-0.00079,0.005029,-76.318542,97.0952,-208.845779,60.187679,24.83013,12.31467,11.793548,-1.0,-1.0,100.069542,0.5681,-0.009429,0.015711,0.3147
879997.420231,-0.08801532000000001,-0.14699304000000002,-9.81763218,0.003686,0.000621,0.004926,-76.318542,97.0952,-208.845779,60.187679,24.83013,12.31467,11.793548,-1.0,-1.0,100.069542,0.5681,-0.009433,0.015714,0.314708
879997.440217,-0.08861373,-0.15552774,-9.82257642,0.001466,-0.001409,0.004265,-76.475189,96.927826,-209.344666,60.187679,24.83013,12.31467,11.793548,-1.0,-1.0,100.069542,0.5681,-0.009423,0.015721,0.314701
879997.460203,-0.09490194,-0.15507648,-9.81494424,0.002524,0.000441,0.004288,-76.403305,96.977509,-209.168701,60.187679,24.83013,12.31467,11.793548,-1.0,-1.0,100.069542,0.5681,-0.009411,0.015709,0.314701
879997.480189,-0.07739109000000001,-0.1414602,-9.807007950000001,0.004002,-7.3e-05,0.004903,-76.542801,97.01416,-209.136429,60.187679,24.83013,12.31467,11.793548,-1.0,-1.0,100.069542,0.5681,-0.009391,0.015701,0.314711
879997.500176,-0.08636724,-0.15822549000000002,-9.81404172,0.001364,-0.001642,0.004975,-76.416245,96.979111,-209.268997,60.187679,24.83013,12.31467,11.793548,-1.0,-1.0,100.069542,0.5681,-0.009368,0.015714,0.314708
879997.520162,-0.08951625,-0.15447807000000002,-9.823174830000001,0.004628,-6.8e-05,0.003886,-76.533234,96.859833,-209.158859,60.187679,24.83013,12.31467,11.793548,-1.0,-1.0,100.069542,0.5681,-0.009375,0.015726,0.314713
879997.540148,-0.08592579,-0.15014205,-9.81509139,0.004143,0.000261,0.004726,-76.60936,97.034317,-208.941742,60.187679,24.83013,12.31467,11.793548,-1.0,-1.0,100.069542,0.5681,-0.009361,0.015743,0.314713
879997.560134,-0.08562168,-0.16854560999999998,-9.81494424,0.003592,-0.000805,0.004038,-76.386673,97.012985,-209.334473,60.187679,24.83013,12.31467,11.793548,-1.0,-1.0,100.069542,0.5681,-0.009352,0.015758,0.314706
879997.600107,-0.09445068,-0.14849397,-9.807155100000001,0.005579,-0.000829,0.004216,-76.377747,97.011108,-209.313309,60.187679,24.83013,12.31467,11.793548,-1.0,-1.0,100.069542,0.5681,-0.009343,0.015749,0.314695
879997.620093,-0.10044459,-0.15043635,-9.825715620000002,0.003668,-0.000719,0.003661,-76.474518,97.114075,-209.255905,60.187679,24.83013,12.31467,11.793548,-1.0,-1.0,100.069542,0.5681,-0.009339,0.015755,0.31469
879997.620093,-0.10044459,-0.15043635,-9.825715620000002,0.003668,-0.000719,0.003661,-76.474518,97.114075,-209.255905,60.187679,24.83013,12.31467,11.793548,-1.0,-1.0,100.069542,0.5681,-0.009339,0.015755,0.31469
879997.660065,-0.09595161,-0.14833701000000002,-9.79727643,0.003186,-0.001324,0.006261,-76.256683,97.28157,-209.362946,60.187679,24.83013,12.31467,11.793548,-1.0,-1.0,100.069542,0.5681,-0.009327,0.015754,0.314681
879997.680051,-0.10014048,-0.14893542,-9.83185668,0.003204,-0.000172,0.003835,-76.362,97.079178,-209.39566,60.187679,24.83013,12.31467,11.793548,-1.0,-1.0,100.069542,0.5681,-0.009327,0.015764,0.31469
879997.700038,-0.08831943,-0.15462522000000004,-9.80041563,0.005832,-0.000922,0.003262,-76.289703,97.193481,-209.157394,60.187679,24.83013,12.31467,11.793548,-1.0,-1.0,100.069542,0.5681,-0.009324,0.015756,0.314685
879997.720024,-0.08667135000000001,-0.14909238,-9.840234420000002,0.005102,0.000484,0.003041,-76.518967,97.102936,-209.413406,60.187679,24.83013,12.31467,11.793548,-1.0,-1.0,100.069542,0.5681,-0.009315,0.015767,0.314661
879997.74001,-0.09026181000000001,-0.1562733,-9.82542132,0.003847,0.000206,0.005742,-76.360794,96.968414,-209.2285,60.187679,24.83013,12.31467,11.793548,-1.0,-1.0,100.069542,0.5681,-0.009306,0.015772,0.314655
879997.759996,-0.07813665,-0.14699304000000002,-9.803564640000001,0.003466,-0.0003,0.004914,-76.425278,97.034439,-209.801971,60.187679,24.83013,12.31467,11.793548,-1.0,-1.0,100.069542,0.5681,-0.009297,0.01577,0.314665
879997.779982,-0.08696565,-0.1591182,-9.83200383,0.003715,0.000951,0.004057,-76.574493,96.972748,-209.390686,60.187679,24.83013,12.31467,11.793548,-1.0,-1.0,100.069542,0.5681,-0.009295,0.01577,0.314659
879997.799968,-0.08801532000000001,-0.14714019,-9.7897914,0.004437,-0.001213,0.002741,-76.588531,97.13884,-209.506882,60.187679,24.83013,12.31467,11.793548,-1.0,-1.0,100.069542,0.5681,-0.009281,0.015765,0.314649
879997.819955,-0.09116433,-0.14893542,-9.82078119,0.000635,0.000508,0.004281,-76.405121,96.964188,-209.656372,60.187679,24.83013,12.31467,11.793548,-1.0,-1.0,100.069542,0.5681,-0.009285,0.015778,0.314642
879997.839941,-0.0868185,-0.16750575,-9.81554265,0.003226,-0.00153,0.004644,-76.364136,97.024857,-209.511459,60.187679,24.83013,12.31467,11.793548,-1.0,-1.0,100.069542,0.5681,-0.00927,0.015767,0.314635
879997.859927,-0.08337519,-0.14893542,-9.80940159,0.002868,-0.001027,0.003981,-76.429962,96.979706,-209.295059,60.187679,24.83013,12.31467,11.793548,-1.0,-1.0,100.069542,0.5681,-0.009273,0.015762,0.314649
879997.879913,-0.09445068,-0.15657741,-9.826912440000001,0.003139,-0.002126,0.003101,-76.29953,96.959732,-209.555756,60.187679,24.83013,12.31467,11.793548,-1.0,-1.0,100.069542,0.5681,-0.009277,0.015779,0.314654
879997.899899,-0.09086022,-0.16165899,-9.80385894,0.002743,-0.002338,0.003538,-76.33696,96.974915,-209.150604,60.187679,24.83013,12.31467,11.793548,-1.0,-1.0,100.069542,0.5681,-0.009287,0.015775,0.314644
879997.919886,-0.08861373,-0.14639463000000003,-9.8361927,0.003216,-0.001204,0.004856,-76.582352,96.99025,-209.307465,60.187679,24.83013,12.31467,11.793548,-1.0,-1.0,100.069542,0.5681,-0.0093,0.015779,0.314632
879997.959858,-0.08786817,-0.15133887000000001,-9.819427410000001,0.002978,-0.000143,0.005046,-76.415436,97.053314,-209.427734,60.187679,24.83013,12.31467,11.793548,-1.0,-1.0,100.069542,0.5681,-0.009299,0.015795,0.314637
879997.979844,-0.09609875999999999,-0.15897105,-9.82676529,0.003869,0.000157,0.00427,-76.652374,96.95401,-209.240219,60.187679,24.83013,12.31467,11.793548,-1.0,-1.0,100.069542,0.5681,-0.009297,0.015794,0.314651
879997.99983,-0.07603731000000001,-0.15342840000000002,-9.799974180000001,0.003893,-0.000106,0.004539,-76.744125,96.881226,-209.144913,60.187679,24.83013,12.31467,11.793548,-1.0,-1.0,100.069542,0.5681,-0.009293,0.015793,0.314641
879998.019817,-0.09759969,-0.14340258,-9.841735350000002,0.004499,0.000564,0.00441,-76.439651,97.012405,-209.274872,60.187679,24.83013,12.31467,11.793548,-1.0,-1.0,100.069542,0.5681,-0.00928,0.015802,0.31465
879998.039803,-0.08756406,-0.14849397,-9.79353882,0.003368,0.000441,0.004736,-76.431107,96.975861,-209.223129,60.187679,24.83013,12.31467,11.793548,-1.0,-1.0,100.069542,0.5681,-0.009265,0.015811,0.314656
879998.059789,-0.08308089000000002,-0.14983794,-9.80550702,0.003282,0.000365,0.003397,-76.353745,97.060165,-209.444183,60.187679,24.83013,12.31467,11.793548,-1.0,-1.0,100.069542,0.5681,-0.009258,0.015806,0.31467
879998.079775,-0.09131148000000001,-0.14759145,-9.81628821,0.002625,-0.001181,0.004573,-76.461441,97.118073,-209.32225,60.187679,24.83013,12.31467,11.793548,-1.0,-1.0,100.069542,0.5681,-0.009266,0.015803,0.314684
879998.099761,-0.08592579,-0.15762708,-9.79727643,0.00402,2e-05,0.004331,-76.382523,97.158218,-209.208038,60.187679,24.83013,12.31467,11.793548,-1.0,-1.0,100.069542,0.5681,-0.009278,0.015794,0.314682
879998.119748,-0.10403505,-0.14369688,-9.82631403,0.003257,-0.001451,0.003933,-76.778229,96.986435,-208.941483,60.187679,24.83013,12.31467,11.793548,-1.0,-1.0,100.069542,0.5681,-0.009274,0.0158,0.314689
879998.139734,-0.09999333,-0.15074046,-9.77991273,0.003055,-0.001869,0.005734,-76.778229,96.986435,-208.941483,60.187679,24.83013,12.31467,11.793548,-1.0,-1.0,100.069542,0.5681,-0.009279,0.015806,0.314686
879998.15972,-0.08622009,-0.155979,-9.838890450000001,0.002504,-0.000105,0.002337,-76.56131,97.094467,-209.134216,60.187679,24.83013,12.31467,11.793548,-1.0,-1.0,100.069206,0.597168,-0.009282,0.015816,0.314691
879998.179706,-0.09834525,-0.15373251000000002,-9.804015900000001,0.003608,-0.0001,0.005805,-76.476944,97.133759,-209.18573,60.187679,24.83013,12.31467,11.793548,-1.0,-1.0,100.069206,0.597168,-0.009275,0.015801,0.314694
879998.199692,-0.08772102000000001,-0.14160735,-9.826912440000001,0.004515,-0.000733,0.003715,-76.61879,97.033951,-209.110062,60.187679,24.83013,12.31467,11.793548,-1.0,-1.0,100.069206,0.597168,-0.009283,0.015801,0.314708
879998.219679,-0.10508471999999999,-0.14295132,-9.824371650000002,0.002605,-0.001332,0.005407,-76.527832,97.127808,-208.83902,60.187679,24.83013,12.31467,11.793548,-1.0,-1.0,100.069206,0.597168,-0.00929,0.015818,0.314716
879998.239665,-0.08067744,-0.14969079000000002,-9.815238540000001,0.002978,-0.000743,0.004433,-76.387787,97.068695,-209.063721,60.187679,24.83013,12.31467,11.793548,-1.0,-1.0,100.069206,0.597168,-0.0093,0.015808,0.314732
879998.279637,-0.08442486000000002,-0.15133887000000001,-9.807459210000001,0.003392,0.000457,0.005419,-76.488388,97.177383,-209.193985,60.187679,24.83013,12.31467,11.793548,-1.0,-1.0,100.069206,0.597168,-0.009306,0.015819,0.314726
879998.299623,-0.08217837000000001,-0.14938668000000002,-9.817033770000002,0.002932,-0.00033,0.004168,-76.619705,96.964127,-209.020508,60.187679,24.83013,12.31467,11.793548,-1.0,-1.0,100.069206,0.597168,-0.009296,0.015818,0.314731
879998.31961,-0.09504909,-0.15866694,-9.81254079,0.004414,-0.001013,0.00433,-76.740433,97.142746,-209.223557,60.187679,24.83013,12.31467,11.793548,-1.0,-1.0,100.069206,0.597168,-0.009297,0.015819,0.314724
879998.31961,-0.09504909,-0.15866694,-9.81254079,0.004414,-0.001013,0.00433,-76.740433,97.142746,-209.223557,60.187679,24.83013,12.31467,11.793548,-1.0,-1.0,100.069206,0.597168,-0.009297,0.015819,0.314724
879998.339596,-0.08337519,-0.16555356,-9.822870720000001,0.003499,0.000852,0.00569,-76.583252,97.125687,-209.32869,60.187679,24.83013,12.31467,11.793548,-1.0,-1.0,100.069206,0.597168,-0.009306,0.015832,0.314732
879998.379568,-0.07858791000000001,-0.14385384,-9.82406754,0.005565,7.9e-05,0.003312,-76.612274,96.952682,-209.216919,60.187679,24.83013,12.31467,11.793548,-1.0,-1.0,100.069206,0.597168,-0.009312,0.015811,0.31475
879998.399554,-0.08248248000000001,-0.15088761,-9.81434583,0.00339,0.000231,0.004176,-76.654556,97.006577,-209.155838,60.187679,24.83013,12.31467,11.793548,-1.0,-1.0,100.069206,0.597168,-0.00931,0.015821,0.314751
879998.419542,-0.09700128,-0.15582204,-9.81014715,0.003053,0.001569,0.004711,-76.581009,96.887909,-209.40065,60.187679,24.83013,12.31467,11.793548,-1.0,-1.0,100.069206,0.597168,-0.009312,0.015816,0.314761
879998.439528,-0.0865242,-0.15612615,-9.82272357,0.003339,0.001521,0.004824,-76.612045,97.030396,-209.266464,60.187679,24.83013,12.31467,11.793548,-1.0,-1.0,100.069206,0.597168,-0.009314,0.015803,0.314757
879998.459514,-0.10044459,-0.15178032,-9.807302250000001,0.00301,-1.5e-05,0.003408,-76.594788,97.071808,-208.987717,60.187679,24.83013,12.31467,11.793548,-1.0,-1.0,100.069206,0.597168,-0.009307,0.015808,0.314754
879998.4795,-0.09954207,-0.15717582000000002,-9.82032993,0.00356,0.000112,0.00561,-76.581833,97.13942,-209.19751,60.187679,24.83013,12.31467,11.793548,-1.0,-1.0,100.069206,0.597168,-0.009311,0.015793,0.314746
879998.499486,-0.08143281,-0.15567489,-9.82631403,0.003013,-0.000529,0.004008,-76.460785,97.063614,-209.210159,60.187679,24.83013,12.31467,11.793548,-1.0,-1.0,100.069206,0.597168,-0.009302,0.015788,0.314756
879998.519473,-0.08607294000000001,-0.15522363,-9.79562835,0.003324,-0.000277,0.006253,-76.393951,96.989914,-209.054291,60.187679,24.83013,12.31467,11.793548,-1.0,-1.0,100.069206,0.597168,-0.009307,0.015783,0.314763
879998.539459,-0.09370512,-0.15672456,-9.80760636,0.002711,-0.000498,0.003967,-76.579834,96.950745,-209.115387,60.187679,24.83013,12.31467,11.793548,-1.0,-1.0,100.069206,0.597168,-0.009313,0.015788,0.314783
879998.559445,-0.08831943,-0.15014205,-9.8014653,0.00309,-0.000406,0.001986,-76.454819,96.913376,-209.190155,60.187679,24.83013,12.31467,11.793548,-1.0,-1.0,100.069206,0.597168,-0.009324,0.015775,0.314787
879998.579431,-0.08756406,-0.14909238,-9.81718092,0.004031,0.000637,0.003386,-76.50766,96.872528,-209.149582,60.187679,24.83013,12.31467,11.793548,-1.0,-1.0,100.069206,0.597168,-0.009324,0.015762,0.314783
879998.599418,-0.08996751000000001,-0.14639463000000003,-9.80610543,0.002613,-0.000111,0.002257,-76.624603,96.968948,-209.084717,60.187679,24.83013,12.31467,11.793548,-1.0,-1.0,100.069206,0.597168,-0.009331,0.01576,0.314787
879998.619404,-0.08756406,-0.15088761,-9.82542132,0.004503,2e-05,0.005578,-76.496689,96.818253,-209.194244,60.187679,24.83013,12.31467,11.793548,-1.0,-1.0,100.069206,0.597168,-0.009324,0.015751,0.314779
879998.63939,-0.09011466,-0.15328125,-9.820025820000001,0.002438,7.5e-05,0.004811,-76.547012,96.917236,-209.217072,60.187679,24.83013,12.31467,11.793548,-1.0,-1.0,100.069206,0.597168,-0.009318,0.015754,0.314795
879998.659376,-0.08547453,-0.14295132,-9.78829047,0.003961,-0.001372,0.003311,-76.41246,96.868286,-209.168945,60.187679,24.83013,12.31467,11.793548,-1.0,-1.0,100.069206,0.597168,-0.009323,0.01575,0.314803
879998.679362,-0.0928026,-0.15313410000000002,-9.84936753,0.003548,4e-05,0.004148,-76.438873,96.842407,-208.678787,60.187679,24.83013,12.31467,11.793548,-1.0,-1.0,100.069206,0.597168,-0.009329,0.015749,0.314796
879998.699348,-0.07948062,-0.15268284000000001,-9.81793629,0.00317,0.00074,0.005607,-76.319366,96.951157,-209.041763,60.187679,24.83013,12.31467,11.793548,-1.0,-1.0,100.069206,0.597168,-0.009324,0.015758,0.314795
879998.719335,-0.09430353000000001,-0.14041053,-9.81269775,0.003243,-4.5e-05,0.002816,-76.387192,96.71608,-209.261856,60.187679,24.83013,12.31467,11.793548,-1.0,-1.0,100.069206,0.597168,-0.009304,0.015755,0.314796
879998.759307,-0.09714843000000001,-0.15043635,-9.802966230000001,0.004064,-0.000839,0.004663,-76.490036,96.796341,-209.385681,60.187679,24.83013,12.31467,11.793548,-1.0,-1.0,100.069206,0.597168,-0.00929,0.015743,0.314776
879998.779292,-0.09415638000000001,-0.16016787000000002,-9.84622833,0.001915,-0.000339,0.002146,-76.468201,96.817413,-209.251114,60.187679,24.83013,12.31467,11.793548,-1.0,-1.0,100.069206,0.597168,-0.009293,0.015755,0.314782
879998.79928,-0.09340101,-0.13995927,-9.808499070000002,0.00243,0.000632,0.004418,-76.522537,96.784958,-209.414368,60.187679,24.83013,12.31467,11.793548,-1.0,-1.0,100.069206,0.597168,-0.009286,0.015748,0.31477
879998.819266,-0.09879651,-0.14699304000000002,-9.823174830000001,0.002095,-0.000103,0.00276,-76.542374,96.80835,-209.387985,60.187679,24.83013,12.31467,11.793548,-1.0,-1.0,100.069206,0.597168,-0.009283,0.015749,0.314761
