timestamp,time_rel,x,y,theta,vx,vy,accel_x,accel_y,accel_z,gyro_x,gyro_y,gyro_z
0.0,0.0,0.0,0.0,0.0,0.0,0.0,-8.108337780000001,-2.55009969,4.953794940000001,-0.041296,-0.046259,0.004728
0.05995500000426546,0.05995500000426546,0.0,0.0,-0.0005600504266869422,0.0,0.0,-8.34858468,-2.5210620900000005,5.02429941,0.038308,0.092923,-0.025244
0.09992599999532104,0.09992599999532104,0.0,0.0,-0.001481694998200389,0.0,0.0,-8.1499518,-2.55204207,4.95828792,0.051079,0.118491,-0.026817
0.11991100001614541,0.11991100001614541,0.0,0.0,-0.0021523780540722015,0.0,0.0,-8.11896201,-2.58976152,4.900212720000001,0.052876,0.132058,-0.028677
0.13989700004458427,0.13989700004458427,0.0,0.0,-0.002588455904588116,0.0,0.0,-8.036636490000001,-2.64230388,4.90859046,0.048716,0.121801,-0.021286
0.159882000007201,0.159882000007201,0.0,0.0,-0.002706516016254046,0.0,0.0,-7.94921958,-2.66236533,4.93702965,0.036864,0.096781,-0.008339
0.17986700002802536,0.17986700002802536,0.0,0.0,-0.002664017239707661,0.0,0.0,-7.93769283,-2.65742109,4.870272600000001,0.024607,0.068398,-0.000556
0.19985299999825656,0.19985299999825656,0.0,0.0,2.715454793618023,0.0,0.0,-7.900718940000001,-2.6849675700000004,4.86113949,0.014091,0.02427,-0.005738
0.21983700001146644,0.21983700001146644,0.0,0.0,2.6221080223829247,0.0,0.0,-7.99607214,-2.72627748,4.88853882,0.000306,0.00132,0.003612
0.2398230000399053,0.2398230000399053,0.0,0.0,2.5452464455541586,0.0,0.0,-8.09666388,-2.8118991600000003,4.941669780000001,-0.025183,0.001444,0.024431
0.259808000002522,0.259808000002522,0.0,0.0,2.481570867094403,0.0,0.0,-8.09980308,-2.80277586,4.91832198,-0.04712,0.02407,0.04414
0.2797940000309609,0.2797940000309609,0.0,0.0,2.4287056919881422,0.0,0.0,-8.05834602,-2.65308507,4.838242950000001,-0.044507,0.043164,0.042322
0.2997789999935776,0.2997789999935776,0.0,0.0,2.385447227821702,0.0,0.0,-7.96732884,-2.50025508,4.75949808,-0.014117,0.046041,0.049045
0.319764000014402,0.319764000014402,0.0,0.0,2.386459038439015,0.0,0.0,-7.973764200000001,-2.3659758,4.7264187600000005,0.025348,0.037304,0.054639
0.33974900003522635,0.33974900003522635,0.0,0.0,2.387464442832939,0.0,0.0,-7.89203709,-2.27541969,4.750816230000001,0.060497,0.026591,0.053841
0.35973500000545755,0.35973500000545755,0.0,0.0,2.3883189513503744,0.0,0.0,-7.813606140000001,-2.2489228800000003,4.71624579,0.088617,0.001687,0.045007
0.3797200000262819,0.3797200000262819,0.0,0.0,2.3891782383699196,0.0,0.0,-7.68681189,-2.21883561,4.724623530000001,0.088617,0.001687,0.045007
0.3997050000471063,0.3997050000471063,0.0,0.0,2.390531950389553,0.0,0.0,-7.6495437,-2.2993659,4.72732128,0.088043,-0.062369,0.072564
0.419690000009723,0.419690000009723,0.0,0.0,2.353799774459665,0.0,0.0,-7.62498927,-2.40145857,4.693339440000001,0.053998,-0.081468,0.120766
0.4396760000381619,0.4396760000381619,0.0,0.0,2.3571075188177613,0.0,0.0,-7.60688001,-2.56192074,4.7364543900000005,0.001164,-0.078391,0.183212
0.4596610000007786,0.4596610000007786,0.0,0.0,2.3617123202030896,0.0,0.0,-7.568709300000001,-2.70292968,4.94975322,-0.051499,-0.064733,0.255086
0.47964600002160296,0.47964600002160296,0.0,0.0,2.3676749206306322,0.0,0.0,-7.694296920000001,-2.6011411200000003,5.08058919,-0.083994,-0.050584,0.329425
0.49963100004242733,0.49963100004242733,0.0,0.0,2.3745082285679393,0.0,0.0,-7.75582524,-2.36314071,5.1162093,-0.100609,-0.04971,0.374819
0.519616000005044,0.519616000005044,0.0,0.0,2.3813017876272546,0.0,0.0,-7.819590240000001,-2.14323975,4.96517454,-0.114923,-0.058217,0.36759
0.5595869999960996,0.5595869999960996,0.0,0.0,2.3912217759115197,0.0,0.0,-7.91119602,-2.06959608,4.860541080000001,-0.157159,-0.042345,0.317857
0.5595869999960996,0.5595869999960996,0.0,0.0,2.393164145933852,0.0,0.0,-7.91119602,-2.06959608,4.860541080000001,-0.157159,-0.042345,0.317857
0.5995570000377484,0.5995570000377484,0.0,0.0,2.366543288553469,0.0,0.0,-7.958048580000001,-1.97962857,4.78749582,-0.189845,-0.031299,0.294293
0.5995570000377484,0.5995570000377484,0.0,0.0,2.367608160678989,0.0,0.0,-7.958048580000001,-1.97962857,4.78749582,-0.189845,-0.031299,0.294293
0.639528000028804,0.639528000028804,0.0,0.0,2.3773474315626224,0.0,0.0,-7.71794883,-1.7554014,4.7047190400000005,-0.177691,-0.148685,0.252023
0.639528000028804,0.639528000028804,0.0,0.0,2.377556820836359,0.0,0.0,-7.71794883,-1.7554014,4.7047190400000005,-0.177691,-0.148685,0.252023
0.679498000012245,0.679498000012245,0.0,0.0,2.386539195241072,0.0,0.0,-7.63053192,-2.00537982,4.7572614,-0.153119,-0.328925,0.205353
0.679498000012245,0.679498000012245,0.0,0.0,2.3860647340084817,0.0,0.0,-7.63053192,-2.00537982,4.7572614,-0.153119,-0.328925,0.205353
0.7194690000033006,0.7194690000033006,0.0,0.0,2.3942683511891776,0.0,0.0,-7.71181758,-1.84850811,4.87087101,-0.097359,-0.530706,0.172007
0.739454000024125,0.739454000024125,0.0,0.0,2.3972513247632428,0.0,0.0,-7.7395014,-1.85449221,4.913681850000001,-0.062144,-0.625476,0.139791
0.7594390000449494,0.7594390000449494,0.0,0.0,2.399903167746703,0.0,0.0,-7.75537398,-1.80330363,5.0269971600000005,-0.022102,-0.699726,0.122406
0.7794250000151806,0.7794250000151806,0.0,0.0,2.4021995314965885,0.0,0.0,-7.886200140000001,-1.7444730600000002,5.05259145,0.027667,-0.741533,0.103702
0.7994100000360049,0.7994100000360049,0.0,0.0,2.40419007569127,0.0,0.0,-7.7682447,-1.69731639,5.0647166100000005,0.078812,-0.766303,0.087928
0.7994100000360049,0.7994100000360049,0.0,0.0,2.4028638290548248,0.0,0.0,-7.7682447,-1.69731639,5.0647166100000005,0.078812,-0.766303,0.087928
0.839380000019446,0.839380000019446,0.0,0.0,2.4077537779394422,0.0,0.0,-7.406893350000001,-1.54553607,5.00080446,0.18124,-0.832388,0.069866
0.839380000019446,0.839380000019446,0.0,0.0,2.4065140058973427,0.0,0.0,-7.406893350000001,-1.54553607,5.00080446,0.18124,-0.832388,0.069866
0.8593650000402704,0.8593650000402704,0.0,0.0,2.4084432157556668,0.0,0.0,-7.160211090000001,-1.54807686,5.18716503,0.237867,-0.860683,0.084132
0.8793510000105016,0.8793510000105016,0.0,0.0,2.4108135111210007,0.0,0.0,-7.07593338,-1.5989711400000002,5.38026507,0.284493,-0.846648,0.114587
0.9193209999939427,0.9193209999939427,0.0,0.0,2.4179434302151988,0.0,0.0,-6.90394446,-1.68774183,5.69326293,0.302915,-0.851451,0.236605
0.939306000014767,0.939306000014767,0.0,0.0,2.4238458044202176,0.0,0.0,-6.84526104,-1.6227800100000005,5.92513209,0.296644,-0.868773,0.313538
0.9592920000432059,0.9592920000432059,0.0,0.0,2.430991874445427,0.0,0.0,-6.806050470000001,-1.40602806,6.358773330000001,0.288535,-0.848367,0.381059
0.9792770000058226,0.9792770000058226,0.0,0.0,2.4383449900096377,0.0,0.0,-7.30166148,-1.0931773500000002,6.477032879999999,0.304447,-0.760532,0.389559
0.999262000026647,0.999262000026647,0.0,0.0,2.445453495145573,0.0,0.0,-7.38325125,-0.86804766,6.73853805,0.336483,-0.65807,0.372777
1.0192470000474714,1.0192470000474714,0.0,0.0,2.452558101012052,0.0,0.0,-7.1263764,-1.22265954,7.00438905,0.32893,-0.543281,0.370214
1.0392330000177026,1.0392330000177026,0.0,0.0,2.459775763819307,0.0,0.0,-6.52343418,-1.6338555,7.09644609,0.287319,-0.469224,0.374586
1.059218000038527,1.059218000038527,0.0,0.0,2.466981218699507,0.0,0.0,-6.296058,-1.6543584000000002,7.1021358900000005,0.230614,-0.452122,0.372035
1.0792030000011437,1.0792030000011437,0.0,0.0,2.474789187991961,0.0,0.0,-6.265372320000001,-1.68819309,7.32083022,0.147709,-0.440361,0.404747
1.099188000021968,1.099188000021968,0.0,0.0,2.48342709171453,0.0,0.0,-6.2424659700000005,-1.75390047,7.41138633,0.049214,-0.402223,0.450105
1.1191739999921992,1.1191739999921992,0.0,0.0,2.4921830530957276,0.0,0.0,-6.16851819,-1.46290644,7.13027097,-0.010464,-0.377366,0.45428
1.1391590000130236,1.1391590000130236,0.0,0.0,2.500520011278491,0.0,0.0,-5.995636560000001,-1.3232512800000005,7.07099895,-0.043879,-0.415238,0.428019
1.159144000033848,1.159144000033848,0.0,0.0,2.50902964405273,0.0,0.0,-5.84444484,-1.43551692,7.146585000000001,-0.096325,-0.483027,0.436334
1.1791289999964647,1.1791289999964647,0.0,0.0,2.518304237618171,0.0,0.0,-5.86630152,-1.60391538,7.2507672,-0.167596,-0.547063,0.478625
1.199114000017289,1.199114000017289,0.0,0.0,2.5282232263274276,0.0,0.0,-5.79744513,-1.43267202,7.343275500000001,-0.216568,-0.671157,0.513443
1.219100000045728,1.219100000045728,0.0,0.0,2.538186409538831,0.0,0.0,-6.001914960000001,-0.8960355900000001,7.36768278,-0.216568,-0.671157,0.513443
1.2390850000083447,1.2390850000083447,0.0,0.0,2.5471674393370574,0.0,0.0,-6.14741688,-0.8674492500000001,7.40270448,-0.168467,-0.905166,0.454891
1.259070000029169,1.259070000029169,0.0,0.0,2.555505076818414,0.0,0.0,-6.03245349,-1.2780468,7.73366445,-0.154615,-0.989925,0.417128
1.2990410000202246,1.2990410000202246,0.0,0.0,2.570186351568701,0.0,0.0,-5.74805178,-0.71072469,7.5109284,-0.100695,-1.057453,0.313749
1.2990410000202246,1.2990410000202246,0.0,0.0,2.568690510108863,0.0,0.0,-5.74805178,-0.71072469,7.5109284,-0.100695,-1.057453,0.313749
1.319026000041049,1.319026000041049,0.0,0.0,2.5740816994506623,0.0,0.0,-5.523363540000001,-0.77733459,7.856858430000001,-0.059687,-1.09017,0.247907
1.3390110000036657,1.3390110000036657,0.0,0.0,2.5786700668211875,0.0,0.0,-5.29493769,-1.02432096,8.12211102,-0.035323,-1.13288,0.204291
1.3789819999947213,1.3789819999947213,0.0,0.0,2.586847107766541,0.0,0.0,-5.174441460000001,-0.91190817,8.34514137,0.03975,-1.150874,0.042314
1.3789819999947213,1.3789819999947213,0.0,0.0,2.5824820547934833,0.0,0.0,-5.174441460000001,-0.91190817,8.34514137,0.03975,-1.150874,0.042314
1.41895200003637,1.41895200003637,0.0,0.0,2.5855065658302365,0.0,0.0,-4.93733376,-0.8352626400000001,9.05287401,0.087066,-1.133541,-0.152474
1.4389369999989867,1.4389369999989867,0.0,0.0,2.581489063311839,0.0,0.0,-4.60188081,-0.67329954,8.92549116,0.107949,-1.08678,-0.236998
1.4389369999989867,1.4389369999989867,0.0,0.0,2.5752617838255567,0.0,0.0,-4.60188081,-0.67329954,8.92549116,0.107949,-1.08678,-0.236998
1.47890800004825,1.47890800004825,0.0,0.0,2.5719505298065304,0.0,0.0,-4.41117441,-1.51245675,8.9136603,0.087149,-0.81339,-0.306098
1.4988930000108667,1.4988930000108667,0.0,0.0,2.5669758263458817,0.0,0.0,-3.80344491,-1.4904529200000003,9.0494307,0.06725,-0.826093,-0.281167
1.518878000031691,1.518878000031691,0.0,0.0,2.562344157494712,0.0,0.0,-3.74296626,-1.09796463,9.0206874,0.073746,-0.816619,-0.25826
1.5388629999943078,1.5388629999943078,0.0,0.0,2.5578201528680697,0.0,0.0,-3.84864939,-0.87013719,9.11110617,0.093215,-0.777845,-0.249036
1.5588490000227466,1.5588490000227466,0.0,0.0,2.5539091404072627,0.0,0.0,-3.58893945,-0.6798820500000001,9.23908743,0.126587,-0.781462,-0.211791
1.578834000043571,1.578834000043571,0.0,0.0,2.5512608387758284,0.0,0.0,-3.2702517900000005,-0.64201545,9.38294127,0.15209,-0.834659,-0.138608
1.5988190000061877,1.5988190000061877,0.0,0.0,2.5499056095868573,0.0,0.0,-3.15782919,-0.81939987,9.53427033,0.152634,-0.89791,-0.064765
1.618804000027012,1.618804000027012,0.0,0.0,2.549830505760892,0.0,0.0,-3.09032658,-1.10485125,9.7582032,0.118202,-0.973461,0.007328
1.6387899999972433,1.6387899999972433,0.0,0.0,2.5508432370943606,0.0,0.0,-3.1145769000000003,-1.14631812,10.29574215,0.064242,-1.056461,0.067578
1.6587750000180677,1.6587750000180677,0.0,0.0,2.552389985889562,0.0,0.0,-3.2307273000000003,-0.90426618,10.50934509,-0.007279,-1.072585,0.095629
1.678760000038892,1.678760000038892,0.0,0.0,2.553693477567725,0.0,0.0,-3.25812663,-0.78527088,10.2873546,-0.088547,-1.034955,0.079248
1.6987450000015087,1.6987450000015087,0.0,0.0,2.5546670785364993,0.0,0.0,-3.0199692600000003,-0.75982374,10.6633719,-0.160514,-1.027583,0.058465
1.7187310000299476,1.7187310000299476,0.0,0.0,2.5554425550214583,0.0,0.0,-2.8788131700000004,-0.62689824,10.739870280000002,-0.212896,-0.969035,0.045769
1.7387159999925643,1.7387159999925643,0.0,0.0,2.5555980255906707,0.0,0.0,-2.7801638100000003,-0.58648104,10.54093329,-0.252879,-0.8418,0.009321
1.7587010000133887,1.7587010000133887,0.0,0.0,2.5550002178165814,0.0,0.0,-2.74619178,-0.37377081,10.42761798,-0.27612,-0.678158,-0.034017
1.778686000034213,1.778686000034213,0.0,0.0,2.553697551517036,0.0,0.0,-2.40849234,-0.2624076899999999,10.20861954,-0.279202,-0.550663,-0.073802
1.7986720000044443,1.7986720000044443,0.0,0.0,2.551514320545709,0.0,0.0,-1.90837854,-0.14100894,9.665253450000002,-0.25687,-0.484776,-0.123028
1.8186570000252686,1.8186570000252686,0.0,0.0,2.5478613864828707,0.0,0.0,-1.62876411,0.11810259,9.32905494,-0.198854,-0.456611,-0.205325
1.838642000046093,1.838642000046093,0.0,0.0,2.5426932841037093,0.0,0.0,-1.66618926,0.34952049,9.34087599,-0.112701,-0.426802,-0.288982
1.8586270000087097,1.8586270000087097,0.0,0.0,2.536461798739884,0.0,0.0,-1.5881997600000002,0.3327552,9.65985795,-0.01557,-0.412955,-0.345564
1.8786130000371486,1.8786130000371486,0.0,0.0,2.5298011027133684,0.0,0.0,-1.82695554,0.33066567,9.995467860000002,0.081452,-0.367975,-0.365211
1.8985979999997653,1.8985979999997653,0.0,0.0,2.5224595943034824,0.0,0.0,-1.79746668,0.38589597,10.44587439,0.163243,-0.348802,-0.399601
1.9185830000205897,1.9185830000205897,0.0,0.0,2.5144529210058923,0.0,0.0,-1.6464221100000005,0.26659656,10.31744187,0.223896,-0.376407,-0.433038
1.938568000041414,1.938568000041414,0.0,0.0,2.5062884071296665,0.0,0.0,-1.40437998,0.05299362,10.143510570000002,0.244063,-0.417374,-0.437273
1.9785390000324696,1.9785390000324696,0.0,0.0,2.3698886849335974,0.0,0.0,-1.5470370000000002,-0.5436702,10.31939406,0.149345,-0.256183,-0.39811
1.9785390000324696,1.9785390000324696,0.0,0.0,2.248921510140624,0.0,0.0,-1.5470370000000002,-0.5436702,10.31939406,0.149345,-0.256183,-0.39811
2.0185090000159107,2.0185090000159107,0.0,0.0,2.1163440397814526,0.0,0.0,-1.03120758,-0.5897772,10.24394535,-8.7e-05,-0.106324,-0.325563
2.0384950000443496,2.0384950000443496,0.0,0.0,1.9934771535651628,0.0,0.0,-1.03584771,-0.44637462,10.02599658,-0.047132,-0.025689,-0.308472
2.0384950000443496,2.0384950000443496,0.0,0.0,1.9932483678223987,0.0,0.0,-1.03584771,-0.44637462,10.02599658,-0.047132,-0.025689,-0.308472
2.0784650000277907,2.0784650000277907,0.0,0.0,1.9819765146804071,0.0,0.0,-0.66596166,-0.35790804,10.31115366,-0.081404,-0.009948,-0.264709
2.098450000048615,2.098450000048615,0.0,0.0,1.9769861669083628,0.0,0.0,-0.49203036,-0.43274853,10.20352815,-0.083048,-0.076509,-0.243768
2.1184350000112318,2.1184350000112318,0.0,0.0,1.9722372624779876,0.0,0.0,-0.6162642,-0.43798707,10.01342997,-0.077108,-0.146082,-0.230885
2.1384210000396706,2.1384210000396706,0.0,0.0,1.9676878731165584,0.0,0.0,-0.49307022,-0.42032907,9.71539236,-0.074549,-0.197815,-0.220487
2.1384210000396706,2.1384210000396706,0.0,0.0,1.968443212693308,0.0,0.0,-0.49307022,-0.42032907,9.71539236,-0.074549,-0.197815,-0.220487
2.1783910000231117,2.1783910000231117,0.0,0.0,1.958799973435581,0.0,0.0,0.27377748,-0.37736127,9.25675524,-0.071033,-0.251007,-0.212091
2.198376000043936,2.198376000043936,0.0,0.0,1.9539181557197534,0.0,0.0,0.5348412,-0.39637305,9.28623429,-0.058893,-0.224358,-0.242434
2.2183620000141673,2.2183620000141673,0.0,0.0,1.9484143893904076,0.0,0.0,0.64141704,-0.48094506,9.46691487,-0.046926,-0.195047,-0.278457
2.238346000027377,2.238346000027377,0.0,0.0,1.9423801345997838,0.0,0.0,0.4933743299999999,-0.53244756,9.56705535,-0.028437,-0.14327,-0.308498
2.2583310000482015,2.2583310000482015,0.0,0.0,1.936288951843535,0.0,0.0,0.46986957,-0.68018616,9.65492352,-0.012118,-0.101848,-0.310749
2.2783160000108182,2.2783160000108182,0.0,0.0,1.9307625500255572,0.0,0.0,0.4504163400000001,-0.76281579,9.813590460000002,0.010499,-0.091754,-0.277374
2.298302000039257,2.298302000039257,0.0,0.0,1.925822505519541,0.0,0.0,0.4939727400000001,-0.66880656,10.04306598,0.045947,-0.140201,-0.243519
2.318287000001874,2.318287000001874,0.0,0.0,1.9213681578593924,0.0,0.0,0.3993651,-0.61327215,10.09231218,0.080122,-0.1849,-0.216159
2.338272000022698,2.338272000022698,0.0,0.0,1.9172836141685803,0.0,0.0,0.21780162,-0.659232,9.95579622,0.101268,-0.192274,-0.195906
2.3582570000435226,2.3582570000435226,0.0,0.0,1.913537784012199,0.0,0.0,-0.00404172,-0.72793143,9.88364367,0.106789,-0.16606,-0.1777
2.3782430000137538,2.3782430000137538,0.0,0.0,1.910418421555799,0.0,0.0,-0.03113694,-0.7337781900000001,9.80700795,0.092671,-0.131071,-0.14311
2.398228000034578,2.398228000034578,0.0,0.0,1.9078062440671175,0.0,0.0,0.09160578,-0.78182757,9.64893942,0.06857,-0.111788,-0.115892
2.418212999997195,2.418212999997195,0.0,0.0,1.905592825166643,0.0,0.0,0.1553805899999999,-0.8704413000000001,9.42934257,0.047149,-0.086227,-0.095175
2.4381980000180192,2.4381980000180192,0.0,0.0,1.9037333860409653,0.0,0.0,0.50999247,-0.8288272799999999,9.51661233,0.033984,-0.072586,-0.077148
2.458184000046458,2.458184000046458,0.0,0.0,1.9021425140234243,0.0,0.0,0.70473078,-0.8243343,9.8333478,0.030404,-0.063857,-0.064074
2.478169000009075,2.478169000009075,0.0,0.0,1.8997716956939925,0.0,0.0,0.7770304800000001,-0.6137234100000001,10.32672213,0.106825,-0.067655,-0.111333
2.498154000029899,2.498154000029899,0.0,0.0,1.8977386262575706,0.0,0.0,0.2894931,-0.97372098,9.65133306,0.124532,-0.036858,-0.092986
2.518138999992516,2.518138999992516,0.0,0.0,1.8960116352765848,0.0,0.0,0.35416062,-1.07191908,9.95400099,0.146156,-0.031855,-0.07668
2.5381250000209548,2.5381250000209548,0.0,0.0,1.8941627042569138,0.0,0.0,0.52884729,-0.80203617,10.32343578,0.187966,-0.046134,-0.085166
2.558110000041779,2.558110000041779,0.0,0.0,1.8923147121977468,0.0,0.0,0.8234415900000001,-0.8828607600000001,10.09965006,0.193339,-0.144366,-0.08623
2.578095000004396,2.578095000004396,0.0,0.0,1.8905221954567972,0.0,0.0,0.58633389,-0.7714976400000001,9.95923953,0.18826,-0.17254,-0.083978
2.59808000002522,2.59808000002522,0.0,0.0,1.8889525165467917,0.0,0.0,0.4090966200000001,-0.39966921,10.3741731,0.250621,-0.150509,-0.072006
2.638051000016276,2.638051000016276,0.0,0.0,1.8854640737133703,0.0,0.0,0.6825798000000001,-1.28896533,10.922787540000002,0.080761,-0.227947,-0.057383
2.6580360000371,2.6580360000371,0.0,0.0,1.8848590509064902,0.0,0.0,0.31854051,-0.47795301,9.36048618,0.126656,-0.115947,-0.026579
2.6580360000371,2.6580360000371,0.0,0.0,1.8860053480011567,0.0,0.0,0.31854051,-0.47795301,9.36048618,0.126656,-0.115947,-0.026579
2.6980070000281557,2.6980070000281557,0.0,0.0,1.8841410277512551,0.0,0.0,0.50983551,-0.40804695,9.73515951,0.092468,-0.091755,-0.00064
2.6980070000281557,2.6980070000281557,0.0,0.0,1.8853453555165673,0.0,0.0,0.50983551,-0.40804695,9.73515951,0.092468,-0.091755,-0.00064
2.737977000011597,2.737977000011597,0.0,0.0,1.8841495687860288,0.0,0.0,0.4773546,-0.47376414,9.73141209,0.057321,-0.078647,0.012218
2.757962000032421,2.757962000032421,0.0,0.0,1.8848140006856777,0.0,0.0,0.40251411,-0.54860463,9.63441081,0.050672,-0.081927,0.042076
2.7779480000026524,2.7779480000026524,0.0,0.0,1.8861179228232992,0.0,0.0,0.49232466,-0.45894123,9.845178660000002,0.041946,-0.045522,0.076564
2.797933000023477,2.797933000023477,0.0,0.0,1.8877965244167054,0.0,0.0,0.27617112,-0.5029587000000001,10.3366008,-0.004116,-0.000713,0.096159
2.817918000044301,2.817918000044301,0.0,0.0,1.8897899424144367,0.0,0.0,0.9310671,-0.10492776,9.52918875,0.010427,-0.014801,0.112344
2.837903000006918,2.837903000006918,0.0,0.0,1.89214627525332,0.0,0.0,0.5126804100000001,-0.338445,9.5643576,-0.005669,0.015844,0.131185
2.8578890000353567,2.8578890000353567,0.0,0.0,1.8945418166259742,0.0,0.0,0.64321227,-0.12049623,9.66420378,0.019417,0.007369,0.131747
2.8778739999979734,2.8778739999979734,0.0,0.0,1.897901348090425,0.0,0.0,0.36389214,-0.16002072,9.94307265,0.014822,0.038893,0.184629
2.897859000018798,2.897859000018798,0.0,0.0,1.9000840384109514,0.0,0.0,0.2601612,-0.26824464,9.829610190000002,0.003317,0.004291,0.115902
2.917844000039622,2.917844000039622,0.0,0.0,1.902133588690293,0.0,0.0,-0.15282999,-0.23905008,9.68711013,-0.021471,0.007468,0.107464
2.9378300000098534,2.9378300000098534,0.0,0.0,1.9041372296167047,0.0,0.0,0.30147111,0.1357704,9.8361927,0.016824,-0.035053,0.104187
2.9578150000306778,2.9578150000306778,0.0,0.0,1.9051857715701148,0.0,0.0,0.45340839,-0.18097488,9.93005478,0.010565,-0.042185,0.049287
2.9777999999932945,2.9777999999932945,0.0,0.0,1.9062265490980055,0.0,0.0,0.35566155,-0.14414814,9.85505733,0.010565,-0.042185,0.049287
2.9777999999932945,2.9777999999932945,0.0,0.0,1.9059195997547675,0.0,0.0,0.35566155,-0.14414814,9.85505733,0.010565,-0.042185,0.049287
3.0177710000425577,3.0177710000425577,0.0,0.0,1.908759301222764,0.0,0.0,0.47646189,-0.10178856,9.71135064,0.001467,-0.011048,0.076552
3.0377560000051744,3.0377560000051744,0.0,0.0,1.9100961656488886,0.0,0.0,0.58453866,0.05658408,9.72287739,0.013586,0.00928,0.066715
3.057741000025999,3.057741000025999,0.0,0.0,1.911250472496473,0.0,0.0,0.37137717,-0.01466595,9.8270694,0.004238,-0.008168,0.056264
3.077726000046823,3.077726000046823,0.0,0.0,1.9118782405150787,0.0,0.0,0.06960195,-0.12080034,9.35254989,-0.006698,-0.012017,0.026261
3.0977120000170544,3.0977120000170544,0.0,0.0,1.9118035150148032,0.0,0.0,0.5007122100000001,-0.1240965,9.358533990000002,0.009031,0.012589,-0.013308
3.1176970000378788,3.1176970000378788,0.0,0.0,1.911477209909874,0.0,0.0,0.5724135,-0.31943322,9.69893118,-0.000469,0.014734,-0.026317
3.1376820000004955,3.1376820000004955,0.0,0.0,1.9115120881857992,0.0,0.0,0.36539307,-0.30206952,9.89667135,-0.000772,0.010888,-0.004061
3.15766700002132,3.15766700002132,0.0,0.0,1.9117826160963878,0.0,0.0,0.47646189,-0.34922619,10.02809592,-0.000925,-0.004465,0.010356
3.177652999991551,3.177652999991551,0.0,0.0,1.9118517263286812,0.0,0.0,0.36688419,-0.43200297,9.967774230000002,-0.003466,-0.001438,-0.000749
3.1976380000123754,3.1976380000123754,0.0,0.0,1.9115984751962882,0.0,0.0,0.36344088,-0.41104881,9.85955031,0.000186,-0.006143,-0.018655
3.2176230000332,3.2176230000332,0.0,0.0,1.910962189842162,0.0,0.0,0.23905008,-0.41987781,9.76000824,-0.003921,-0.00173,-0.03979
3.2376100000110455,3.2376100000110455,0.0,0.0,1.9096484928279995,0.0,0.0,0.15328125,-0.3094074,9.68366682,0.007059,0.001075,-0.077571
3.25759500003187,3.25759500003187,0.0,0.0,1.9076396957860675,0.0,0.0,0.10568313,-0.30491442,9.75865446,0.003571,0.004079,-0.11579
3.2775799999944866,3.2775799999944866,0.0,0.0,1.9055362582926794,0.0,0.0,0.36867942,-0.23605803,9.65207862,0.014296,-0.004318,-0.118938
3.297565000015311,3.297565000015311,0.0,0.0,1.9035504824236318,0.0,0.0,0.3873969,-0.30462012,9.49729644,0.006127,0.002369,-0.110103
3.3375360000063665,3.3375360000063665,0.0,0.0,1.9012852596480112,0.0,0.0,0.6053456700000001,-0.25416729,9.68530509,-0.002029,-0.00138,-0.075772
3.357521000027191,3.357521000027191,0.0,0.0,1.9008666653621287,0.0,0.0,0.7637085,-0.30850488,9.63277254,-0.006168,0.004556,-0.019833
3.3775060000480153,3.3775060000480153,0.0,0.0,1.9013123302914163,0.0,0.0,0.83660661,-0.24803604,9.74443977,-0.004213,-0.005687,0.026069
3.3775060000480153,3.3775060000480153,0.0,0.0,1.9022627398402996,0.0,0.0,0.83660661,-0.24803604,9.74443977,-0.004213,-0.005687,0.026069
3.3974920000182465,3.3974920000182465,0.0,0.0,1.9027829132490721,0.0,0.0,0.38125584,-0.28994436,9.78859458,0.002509,-0.000589,0.036216
3.417477000039071,3.417477000039071,0.0,0.0,1.9031901352248424,0.0,0.0,0.25072398,-0.30416886,9.78455286,0.002398,-0.003581,0.027684
3.457447000022512,3.457447000022512,0.0,0.0,1.9030717168569913,0.0,0.0,0.47974824,-0.2254338,9.78934014,0.005662,0.001127,0.006382
3.477432999992743,3.477432999992743,0.0,0.0,1.9030939656489343,0.0,0.0,0.5773479300000001,-0.28515708,9.79593246,0.004373,0.001296,0.001899
3.4974180000135675,3.4974180000135675,0.0,0.0,1.9032908510921356,0.0,0.0,0.40356378,-0.33739533,9.78021684,0.004637,0.005336,0.011361
3.517403000034392,3.517403000034392,0.0,0.0,1.9032189446586463,0.0,0.0,0.35880075,-0.3179421,9.70671051,0.002667,0.001814,-0.003501
3.537389000004623,3.537389000004623,0.0,0.0,1.9031833541428176,0.0,0.0,0.3505701599999999,-0.28171377,9.74428281,9e-05,0.002647,-0.001506
3.5573740000254475,3.5573740000254475,0.0,0.0,1.9032601011371781,0.0,0.0,0.31285071,-0.30476727,9.75147354,0.001075,0.006791,0.004697
3.577359000046272,3.577359000046272,0.0,0.0,1.9032779262307482,0.0,0.0,0.36164565,-0.23576373,9.752670360000002,0.005497,0.001895,0.001321
3.5973440000088885,3.5973440000088885,0.0,0.0,1.903848409151724,0.0,0.0,0.5364892800000001,-0.33425613,9.76733631,0.013071,-0.014037,0.032198
3.6173300000373274,3.6173300000373274,0.0,0.0,1.9046848002656294,0.0,0.0,0.5343899400000001,-0.28081125,9.78934014,0.010369,0.014185,0.046696
3.637314999999944,3.637314999999944,0.0,0.0,1.9054319561527677,0.0,0.0,0.35880075,-0.3153915,9.85161402,0.005087,0.004787,0.041068
3.6573000000207685,3.6573000000207685,0.0,0.0,1.9062979488713045,0.0,0.0,0.2832147,-0.28365615,9.869880240000002,-0.006274,-0.012672,0.047313
3.677285000041593,3.677285000041593,0.0,0.0,1.907070770353081,0.0,0.0,0.11197134,-0.24743763,9.66719583,-0.001634,0.001168,0.041514
3.697271000011824,3.697271000011824,0.0,0.0,1.9070711333969834,0.0,0.0,0.1212516,-0.26554689,9.67498497,0.007404,0.001344,-0.002721
3.7172560000326484,3.7172560000326484,0.0,0.0,1.90706492466827,0.0,0.0,0.25117524,-0.26465418,9.71644203,0.007404,0.001344,-0.002721
3.737240999995265,3.737240999995265,0.0,0.0,1.905847522028571,0.0,0.0,0.6081807600000001,-0.17184177,9.86763375,0.01598,-0.041853,-0.071397
3.7572260000160895,3.7572260000160895,0.0,0.0,1.9057931437638471,0.0,0.0,0.67135716,-0.2168991,9.67228722,0.014436,-0.007458,-0.003568
3.7772120000445284,3.7772120000445284,0.0,0.0,1.9063400187764188,0.0,0.0,0.33066567,-0.25896438,9.73860282,0.000704,0.012478,0.030903
3.797197000007145,3.797197000007145,0.0,0.0,1.9072650878578195,0.0,0.0,0.56357469,-0.2083644,9.82497006,0.009786,-0.005694,0.052029
3.8171820000279695,3.8171820000279695,0.0,0.0,1.9081535983092355,0.0,0.0,0.43813422,-0.42017211,9.79997418,0.003118,-0.018958,0.049109
3.837167000048794,3.837167000048794,0.0,0.0,1.9086389694685852,0.0,0.0,0.45460521,-0.40581027,9.77197644,0.005615,-0.010991,0.025334
3.857153000019025,3.857153000019025,0.0,0.0,1.9090542005358069,0.0,0.0,0.57301191,-0.41882814,9.8911287,0.001122,-0.005438,0.021158
3.8771380000398494,3.8771380000398494,0.0,0.0,1.9098091611650982,0.0,0.0,0.66102723,-0.32497587,9.70087356,0.00469,0.003562,0.040597
3.897123000002466,3.897123000002466,0.0,0.0,1.9107993750551033,0.0,0.0,0.61222248,-0.21075804,9.72048375,0.010635,0.013884,0.053688
3.9370939999935217,3.9370939999935217,0.0,0.0,1.9125823202810377,0.0,0.0,0.72673461,-0.42466509,9.75836016,0.008511,-0.027829,0.064728
3.957079000014346,3.957079000014346,0.0,0.0,1.9139457130961794,0.0,0.0,0.46642626,-0.55085112,9.86373918,-0.006696,0.011825,0.069913
3.9770640000351705,3.9770640000351705,0.0,0.0,1.91529217330306,0.0,0.0,0.46762308,-0.40400523,9.78230637,-0.001181,0.01572,0.069146
3.9770640000351705,3.9770640000351705,0.0,0.0,1.9157513336975374,0.0,0.0,0.46762308,-0.40400523,9.78230637,-0.001181,0.01572,0.069146
4.017035000026226,4.017035000026226,0.0,0.0,1.9183437307889921,0.0,0.0,0.26210358,-0.19414971,9.81733788,-0.003268,0.005038,0.088169
4.03702000004705,4.03702000004705,0.0,0.0,1.9197034010418719,0.0,0.0,0.12214431,-0.12080034,9.77317326,-0.000394,-0.001129,0.069578
4.057005000009667,4.057005000009667,0.0,0.0,1.9199550083886532,0.0,0.0,0.33755229,-0.57899601,9.74473407,0.001449,-0.017728,0.008614
4.076991000038106,4.076991000038106,0.0,0.0,1.920480784096764,0.0,0.0,0.51373008,-0.76490532,9.77960862,0.00806,-0.000771,0.024124
4.096976000000723,4.096976000000723,0.0,0.0,1.921046325651024,0.0,0.0,0.23875578,-0.44561925,9.92735703,0.00077,-0.001745,0.026557
4.116961000021547,4.116961000021547,0.0,0.0,1.920985913467331,0.0,0.0,0.53364438,-0.43020774,9.78290478,0.005445,-0.002364,-0.00816
4.1369460000423715,4.1369460000423715,0.0,0.0,1.9205920849967146,0.0,0.0,0.46058931,-0.31000581,9.71344998,-0.009158,0.000215,-0.026237
4.156932000012603,4.156932000012603,0.0,0.0,1.9202962276527105,0.0,0.0,0.49681764,-0.20761884,9.7436844,-0.009795,0.005492,-0.019947
4.176917000033427,4.176917000033427,0.0,0.0,1.9204592080502216,0.0,0.0,0.42930522,-0.22812174,9.677525760000002,-0.004401,0.000214,0.006561
4.196901999996044,4.196901999996044,0.0,0.0,1.920618571300242,0.0,0.0,0.31569561,-0.1895095799999999,9.71240031,-0.004401,0.000214,0.006561
4.216887000016868,4.216887000016868,0.0,0.0,1.920879849378311,0.0,0.0,0.5641731,-0.29952873,9.91597743,0.020394,-0.00579,0.012522
4.2368720000376925,4.2368720000376925,0.0,0.0,1.9211347530228897,0.0,0.0,0.25057683,-0.4397823,9.85415481,0.005037,0.013228,0.012234
4.256857000000309,4.256857000000309,0.0,0.0,1.9214625426722183,0.0,0.0,0.38364948,-0.3239262,9.98109621,0.007679,0.014325,0.016452
4.276842000021134,4.276842000021134,0.0,0.0,1.9219827696415202,0.0,0.0,0.3930867,-0.30761217,9.82526436,0.011611,-0.019782,0.027412
4.296827000041958,4.296827000041958,0.0,0.0,1.9227764367540905,0.0,0.0,0.27722079,-0.21764466,9.691299,0.014245,-0.021171,0.042824
4.316813000012189,4.316813000012189,0.0,0.0,1.9238406233903538,0.0,0.0,0.54097245,-0.28141947,9.765246780000002,0.023242,0.000554,0.05784
4.3367980000330135,4.3367980000330135,0.0,0.0,1.9252372897389467,0.0,0.0,0.32198382,-0.30042144,9.73275606,0.010136,0.015847,0.076204
4.35678299999563,4.35678299999563,0.0,0.0,1.9265842041615926,0.0,0.0,0.5043026700000001,-0.22213764,9.73755315,0.000232,0.002626,0.072444
4.35678299999563,4.35678299999563,0.0,0.0,1.9271202885348915,0.0,0.0,0.5043026700000001,-0.22213764,9.73755315,0.000232,0.002626,0.072444
4.3967540000448935,4.3967540000448935,0.0,0.0,1.9291144499287087,0.0,0.0,0.34877493,-0.38364948,9.63875664,-0.000829,0.019816,0.060487
4.41673900000751,4.41673900000751,0.0,0.0,1.9303147495119202,0.0,0.0,0.68707278,-0.2459367,9.71973819,0.009571,-0.005302,0.062431
4.436724000028335,4.436724000028335,0.0,0.0,1.9306588752100469,0.0,0.0,0.32691825,-0.24084531,9.72437832,0.014583,-0.001271,0.012792
4.456709000049159,4.456709000049159,0.0,0.0,1.9308397309482404,0.0,0.0,0.34578288,-0.25701219,9.872715330000002,-0.007794,0.020514,0.00408
4.47669500001939,4.47669500001939,0.0,0.0,1.9311343054509402,0.0,0.0,0.38859372,-0.29757654,9.64848816,-0.009701,0.001502,0.011383
4.4966800000402145,4.4966800000402145,0.0,0.0,1.930765162708374,0.0,0.0,0.49112784,-0.3848463,9.67886973,-0.024203,0.00347,-0.026297
4.516665000002831,4.516665000002831,0.0,0.0,1.93155522498804,0.0,0.0,0.5987533500000001,-0.46418958,9.96612615,0.061697,0.016764,0.041604
4.536650000023656,4.536650000023656,0.0,0.0,1.9339829836567457,0.0,0.0,0.85202793,-0.62749665,9.87406911,0.069395,0.002324,0.135548
4.556635999993887,4.556635999993887,0.0,0.0,1.9362238952119153,0.0,0.0,0.15328125,-0.7318260000000001,9.86718249,0.049315,0.023058,0.12266
4.556635999993887,4.556635999993887,0.0,0.0,1.93729714810544,0.0,0.0,0.15328125,-0.7318260000000001,9.86718249,0.049315,0.023058,0.12266
4.576621000014711,4.576621000014711,0.0,0.0,1.938203952810225,0.0,0.0,0.26420292,-0.9657945,9.78455286,0.13055,0.012138,0.040954
4.576621000014711,4.576621000014711,0.0,0.0,1.9379605501615842,0.0,0.0,0.26420292,-0.9657945,9.78455286,0.13055,0.012138,0.040954
4.616590999998152,4.616590999998152,0.0,0.0,1.9386144684968434,0.0,0.0,0.56567403,-0.66775689,9.84382488,0.047093,0.024077,-0.044948
4.6565620000474155,4.6565620000474155,0.0,0.0,1.9398401112309802,0.0,0.0,0.53154504,-0.6134291100000001,9.83035575,0.032121,0.001936,0.014833
4.696532000030857,4.696532000030857,0.0,0.0,1.9406095428029007,0.0,0.0,0.40581027,-0.6134291100000001,9.75895857,0.017791,-0.002673,-0.000848
4.696532000030857,4.696532000030857,0.0,0.0,1.9400201076526207,0.0,0.0,0.40581027,-0.6134291100000001,9.75895857,0.017791,-0.002673,-0.000848
4.736503000021912,4.736503000021912,0.0,0.0,1.9404388458638753,0.0,0.0,0.30926025,-0.44472654,9.74728467,0.014091,-0.001294,-0.008859
4.7564880000427365,4.7564880000427365,0.0,0.0,1.940212454191406,0.0,0.0,0.17004654,-0.38634723,9.74443977,0.012036,0.000464,-0.012947
4.776473000005353,4.776473000005353,0.0,0.0,1.940059734885292,0.0,0.0,0.18965673,-0.30730806,9.7784118,0.010557,-0.006195,-0.009148
4.776473000005353,4.776473000005353,0.0,0.0,1.939676457713806,0.0,0.0,0.18965673,-0.30730806,9.7784118,0.010557,-0.006195,-0.009148
4.816443999996409,4.816443999996409,0.0,0.0,1.9395521109512197,0.0,0.0,0.77673618,-0.28860039,9.74398851,0.00867,-0.009208,-0.019748
4.836429000017233,4.836429000017233,0.0,0.0,1.9396509846527712,0.0,0.0,0.85741362,-0.30266793,9.75116943,0.012398,0.002096,0.004778
4.856414000038058,4.856414000038058,0.0,0.0,1.9402106117855356,0.0,0.0,0.44412813,-0.41509053,9.74503818,0.012694,0.004126,0.030098
4.876400000008289,4.876400000008289,0.0,0.0,1.9410156351693306,0.0,0.0,0.34368354,-0.45580203,9.75925287,0.012451,0.001495,0.043454
4.896385000029113,4.896385000029113,0.0,0.0,1.941653462592483,0.0,0.0,0.37302525,-0.45699885,9.75102228,0.010844,0.004186,0.033844
4.91636999999173,4.91636999999173,0.0,0.0,1.9420329385207484,0.0,0.0,0.38844657,-0.44966097,9.7607538,0.007698,0.004247,0.019222
4.936355000012554,4.936355000012554,0.0,0.0,1.9421881337717721,0.0,0.0,0.37391796,-0.44217594,9.76599234,0.006169,0.0004,0.006635
4.956341000040993,4.956341000040993,0.0,0.0,1.9422762002315173,0.0,0.0,0.3617928,-0.43604469,9.76554108,0.00433,0.001317,0.002998
4.97632600000361,4.97632600000361,0.0,0.0,1.9423832153824492,0.0,0.0,0.41628735,-0.42945237,9.77182929,0.002913,0.001908,0.004243
4.996311000024434,4.996311000024434,0.0,0.0,1.9424969371624217,0.0,0.0,0.41014629,-0.40744854,9.780511140000002,0.002466,-0.000487,0.004765
5.0162960000452586,5.0162960000452586,0.0,0.0,1.942596687576474,0.0,0.0,0.39084021,-0.37900935,9.7781175,0.003351,-0.002463,0.004095
5.03628200001549,5.03628200001549,0.0,0.0,1.942682003414669,0.0,0.0,0.38919213,-0.3671883,9.78424875,0.001215,-0.000943,0.003395
5.056267000036314,5.056267000036314,0.0,0.0,1.9427421355247416,0.0,0.0,0.4224186,-0.33081282,9.77092677,0.000866,-0.000948,0.002082
5.076251999998931,5.076251999998931,0.0,0.0,1.9427698513760419,0.0,0.0,0.39816828,-0.29084688,9.77960862,0.001459,-0.001368,0.000363
5.09623800002737,5.09623800002737,0.0,0.0,1.9427834404736952,0.0,0.0,0.39532338,-0.27946728,9.7752726,0.000437,-0.002594,-0.0003
5.116223000048194,5.116223000048194,0.0,0.0,1.9427958336650928,0.0,0.0,0.40221,-0.24952716,9.77677353,0.001693,-0.002931,-0.000229
5.136208000010811,5.136208000010811,0.0,0.0,1.9427786232629716,0.0,0.0,0.40804695,-0.21001248,9.7869465,0.001948,-0.000618,-0.001801
5.156193000031635,5.156193000031635,0.0,0.0,1.942781451691971,0.0,0.0,0.40057173,-0.18486945,9.76254903,-0.000446,-0.00227,-0.000518
5.176179000001866,5.176179000001866,0.0,0.0,1.9427877600453582,0.0,0.0,0.38948643,-0.14594337,9.78500412,0.001512,-0.002681,-0.000223
5.196164000022691,5.196164000022691,0.0,0.0,1.942828787144979,0.0,0.0,0.4019157,-0.1562733,9.77003406,0.002618,-0.001128,0.001847
5.216149000043515,5.216149000043515,0.0,0.0,1.942880178616309,0.0,0.0,0.40340682,-0.15717582,9.76030254,0.000891,-0.000624,0.002472
5.236134000006132,5.236134000006132,0.0,0.0,1.9429620715407854,0.0,0.0,0.40236696,-0.1414602,9.77407578,0.003227,9.8e-05,0.004238
5.256120000034571,5.256120000034571,0.0,0.0,1.9430713464243423,0.0,0.0,0.39787398,-0.15642045,9.7812567,0.00301,-0.000784,0.00579
5.276104999997187,5.276104999997187,0.0,0.0,1.9431869668957056,0.0,0.0,0.4047606,-0.19803447,9.78829047,0.004373,0.000561,0.006107
5.316075000038836,5.316075000038836,0.0,0.0,1.9433970837600363,0.0,0.0,0.40880232,-0.2516265,9.78156081,0.003648,3.8e-05,0.006653
5.336061000009067,5.336061000009067,0.0,0.0,1.9435250882409196,0.0,0.0,0.40221,-0.2576106,9.77706783,0.004469,-0.000245,0.006501
5.336061000009067,5.336061000009067,0.0,0.0,1.9435559846477313,0.0,0.0,0.40221,-0.2576106,9.77706783,0.004469,-0.000245,0.006501
5.356046000029892,5.356046000029892,0.0,0.0,1.943703055359097,0.0,0.0,0.40685013,-0.30282489,9.77751909,0.003655,0.000201,0.007833
5.396016000013333,5.396016000013333,0.0,0.0,1.9438775073011625,0.0,0.0,0.40490775,-0.30746502,9.77706783,0.004699,0.00084,0.003352
5.416001000034157,5.416001000034157,0.0,0.0,1.9439045809932667,0.0,0.0,0.40385808,-0.31120263,9.7667379,0.00479,0.00139,0.001074
5.435987000004388,5.435987000004388,0.0,0.0,1.9439676037769553,0.0,0.0,0.41149026,-0.31598991,9.77048532,0.001996,-0.000551,0.003043
5.455972000025213,5.455972000025213,0.0,0.0,1.9440194906085058,0.0,0.0,0.40146444,-0.29697813,9.76764042,0.004042,0.001639,0.002442
5.475957000046037,5.475957000046037,0.0,0.0,1.9440781446924378,0.0,0.0,0.39397941,-0.28740357,9.79098822,0.002151,-9.1e-05,0.002828
5.495942000008654,5.495942000008654,0.0,0.0,1.9441525586856336,0.0,0.0,0.39756987,-0.26150517,9.76434426,0.00188,-0.000178,0.003711
5.515928000037093,5.515928000037093,0.0,0.0,1.9442269529013672,0.0,0.0,0.40715424,-0.24264054,9.78679935,0.00188,-0.000178,0.003711
5.535912999999709,5.535912999999709,0.0,0.0,1.9443056866346051,0.0,0.0,0.41538483,-0.228573,9.78215922,0.00221,-0.001361,0.003955
5.555898000020534,5.555898000020534,0.0,0.0,1.9443627774902108,0.0,0.0,0.40625172,-0.21599658,9.78515127,0.002864,-0.00076,0.002739
5.575883000041358,5.575883000041358,0.0,0.0,1.944453916450401,0.0,0.0,0.40266126,-0.21525102,9.76688505,0.002898,0.000475,0.00467
5.595869000011589,5.595869000011589,0.0,0.0,1.944543586592978,0.0,0.0,0.40940073,-0.22512969,9.7664436,0.001585,-0.00157,0.004573
5.615854000032414,5.615854000032414,0.0,0.0,1.944633150555573,0.0,0.0,0.40012047,-0.24129657,9.77916717,0.002341,0.000311,0.004556
5.615854000032414,5.615854000032414,0.0,0.0,1.944641837442667,0.0,0.0,0.40012047,-0.24129657,9.77916717,0.002341,0.000311,0.004556
5.655824000015855,5.655824000015855,0.0,0.0,1.9448321094974244,0.0,0.0,0.40744854,-0.26884305,9.76704201,0.001841,-0.000839,0.005652
5.675810000044294,5.675810000044294,0.0,0.0,1.9449029927038177,0.0,0.0,0.40775265,-0.27168795,9.7667379,0.003282,0.000661,0.003443
5.69579500000691,5.69579500000691,0.0,0.0,1.9449882292786356,0.0,0.0,0.40057173,-0.27617112,9.77302611,0.00401,0.001229,0.004279
5.715780000027735,5.715780000027735,0.0,0.0,1.9450576293297868,0.0,0.0,0.39966921,-0.29099403,9.76568823,0.00154,0.000583,0.003371
5.735765000048559,5.735765000048559,0.0,0.0,1.9451197636404007,0.0,0.0,0.40325967,-0.27333603,9.77706783,0.002535,0.000667,0.00297
5.755750000011176,5.755750000011176,0.0,0.0,1.945167925694422,0.0,0.0,0.40835106,-0.27003987,9.76554108,0.00378,0.00062,0.00219
5.775736000039615,5.775736000039615,0.0,0.0,1.9452408361627578,0.0,0.0,0.40356378,-0.27917298,9.764795520000002,0.004648,0.000659,0.003641
5.7957210000022314,5.7957210000022314,0.0,0.0,1.9452931014772323,0.0,0.0,0.40026762,-0.26121087,9.77347737,0.002989,-0.000281,0.002458
5.815706000023056,5.815706000023056,0.0,0.0,1.9453449613681437,0.0,0.0,0.41029344,-0.24519114,9.76554108,0.002989,-0.000281,0.002458
5.83569100004388,5.83569100004388,0.0,0.0,1.945433126211852,0.0,0.0,0.40340682,-0.24638796,9.76599234,0.003587,-0.000545,0.004563
5.855676000006497,5.855676000006497,0.0,0.0,1.9455059813746907,0.0,0.0,0.41389371,-0.24444558,9.77287896,0.004171,-0.00035,0.003661
5.875662000034936,5.875662000034936,0.0,0.0,1.9455805855711095,0.0,0.0,0.39966921,-0.22423698,9.77661657,0.004146,8.7e-05,0.003759
5.8956469999975525,5.8956469999975525,0.0,0.0,1.9456683350176363,0.0,0.0,0.40041477,-0.25267617,9.78993855,0.002576,0.000704,0.004511
5.935617000039201,5.935617000039201,0.0,0.0,1.945824792627052,0.0,0.0,0.40251411,-0.2573163,9.77108373,0.005564,-0.000629,0.004137
5.935617000039201,5.935617000039201,0.0,0.0,1.9458310020200509,0.0,0.0,0.40251411,-0.2573163,9.77108373,0.005564,-0.000629,0.004137
5.955603000009432,5.955603000009432,0.0,0.0,1.9459124804238996,0.0,0.0,0.40430934,-0.26569404,9.77137803,0.003458,-0.000533,0.004124
5.975588000030257,5.975588000030257,0.0,0.0,1.94600164182045,0.0,0.0,0.40086603,-0.26030835,9.79143948,0.002295,-0.000718,0.004569
6.015558000013698,6.015558000013698,0.0,0.0,1.9461804846661765,0.0,0.0,0.40236696,-0.27991854,9.77333022,0.002889,-0.001006,0.005059
6.035543000034522,6.035543000034522,0.0,0.0,1.946258104645798,0.0,0.0,0.40296537,-0.26644941,9.78141366,0.003101,-0.000566,0.003869
6.0555290000047535,6.0555290000047535,0.0,0.0,1.9463590488107547,0.0,0.0,0.40894947,-0.26030835,9.77467419,0.002343,-0.000429,0.005125
6.075514000025578,6.075514000025578,0.0,0.0,1.9464195863261065,0.0,0.0,0.39682431,-0.25193061,9.77496849,0.002397,-0.000898,0.002928
6.095499000046402,6.095499000046402,0.0,0.0,1.9465140303610227,0.0,0.0,0.40820391,-0.25925868,9.78440571,0.003801,0.000322,0.004789
6.115484000009019,6.115484000009019,0.0,0.0,1.9465988669486132,0.0,0.0,0.40940073,-0.25671789,9.792783450000002,0.004803,0.0008,0.004255
6.135469000029843,6.135469000029843,0.0,0.0,1.9466762580236576,0.0,0.0,0.40835106,-0.2487816,9.77946147,0.003289,-0.000167,0.003842
6.135469000029843,6.135469000029843,0.0,0.0,1.9466718739803701,0.0,0.0,0.40835106,-0.2487816,9.77946147,0.003289,-0.000167,0.003842
6.175440000020899,6.175440000020899,0.0,0.0,1.946854535879483,0.0,0.0,0.42062337,-0.26135802,9.79024266,0.003985,0.000629,0.005172
6.195425000041723,6.195425000041723,0.0,0.0,1.9469314329335177,0.0,0.0,0.39697146,-0.25716915,9.77392863,0.00257,4.2e-05,0.0038
6.21541000000434,6.21541000000434,0.0,0.0,1.946977984890844,0.0,0.0,0.4104504,-0.26090676,9.77077962,0.002914,0.000185,0.002095
6.235395000025164,6.235395000025164,0.0,0.0,1.9470390931703871,0.0,0.0,0.39892365,-0.27437589,9.78156081,0.003168,6.8e-05,0.002949
6.2553809999953955,6.2553809999953955,0.0,0.0,1.9471079242971134,0.0,0.0,0.40400523,-0.25102809,9.76704201,0.004186,0.000403,0.003401
6.27536600001622,6.27536600001622,0.0,0.0,1.9471631575012793,0.0,0.0,0.40266126,-0.26644941,9.78185511,0.003785,0.000131,0.002635
6.295351000037044,6.295351000037044,0.0,0.0,1.9472405291920216,0.0,0.0,0.39876669,-0.25956279,9.78485697,0.003083,-0.001227,0.003912
6.315335999999661,6.315335999999661,0.0,0.0,1.9472937249976514,0.0,0.0,0.40655583,-0.25147935,9.77377167,0.003324,-0.000992,0.002529
6.335321000020485,6.335321000020485,0.0,0.0,1.9473728667862682,0.0,0.0,0.40775265,-0.25042968,9.76464837,0.004039,-0.001127,0.004028
6.35530600004131,6.35530600004131,0.0,0.0,1.9474564839230366,0.0,0.0,0.39861954,-0.25657074,9.76972995,0.002284,-0.001311,0.004274
6.375292000011541,6.375292000011541,0.0,0.0,1.947546432907778,0.0,0.0,0.40325967,-0.25746345,9.77512545,0.001464,-0.001395,0.004623
6.395277000032365,6.395277000032365,0.0,0.0,1.9476254364205907,0.0,0.0,0.4090966200000001,-0.24100227,9.76749327,0.003336,-0.00018,0.003979
6.415261999994982,6.415261999994982,0.0,0.0,1.947710213023747,0.0,0.0,0.4050549,-0.26165232,9.7667379,0.001253,-0.00052,0.004306
6.435247000015806,6.435247000015806,0.0,0.0,1.9478082160537404,0.0,0.0,0.39742272,-0.2547657,9.77496849,0.0028,-0.000491,0.005055
6.455232000036631,6.455232000036631,0.0,0.0,1.9478986227765258,0.0,0.0,0.39038895,-0.24548544,9.78320889,0.003452,0.00052,0.004597
6.475218000006862,6.475218000006862,0.0,0.0,1.9479701817259532,0.0,0.0,0.40894947,-0.25626663,9.77886306,0.002131,0.001067,0.003504
6.495203000027686,6.495203000027686,0.0,0.0,1.9480695195598638,0.0,0.0,0.40416219,-0.25072398,9.76688505,0.002866,0.000158,0.005111
6.515188000048511,6.515188000048511,0.0,0.0,1.9481236921734029,0.0,0.0,0.40595742,-0.25028253,9.77617512,0.003356,0.001211,0.002495
6.535173000011127,6.535173000011127,0.0,0.0,1.948204497873041,0.0,0.0,0.42421383,-0.26944146,9.76943565,0.002653,-0.000443,0.004058
6.555158000031952,6.555158000031952,0.0,0.0,1.9482726461492206,0.0,0.0,0.41089185,-0.27138384,9.76809168,0.003572,0.000892,0.003328
6.595129000023007,6.595129000023007,0.0,0.0,1.9484050536587203,0.0,0.0,0.40012047,-0.2633004,9.78649524,0.002779,0.000855,0.002711
6.615114000043832,6.615114000043832,0.0,0.0,1.9484868478909423,0.0,0.0,0.4076055,-0.25117524,9.77646942,0.003939,-0.000953,0.004111
6.6350990000064485,6.6350990000064485,0.0,0.0,1.948554070291956,0.0,0.0,0.41268708,-0.26884305,9.78215922,0.002342,-0.001005,0.00334
6.655084000027273,6.655084000027273,0.0,0.0,1.9486187929697278,0.0,0.0,0.4019157,-0.25701219,9.77766624,0.004226,-0.00074,0.003206
6.655084000027273,6.655084000027273,0.0,0.0,1.948611743025988,0.0,0.0,0.4019157,-0.25701219,9.77766624,0.004226,-0.00074,0.003206
6.695054000010714,6.695054000010714,0.0,0.0,1.9487604940356906,0.0,0.0,0.40041477,-0.2573163,9.76718916,0.002278,-0.001638,0.003885
6.715040000039153,6.715040000039153,0.0,0.0,1.948838092575432,0.0,0.0,0.41523768,-0.2484873,9.793087560000002,0.002907,-0.000516,0.003908
6.7350250000017695,6.7350250000017695,0.0,0.0,1.9489030860506187,0.0,0.0,0.40057173,-0.25701219,9.75895857,0.004213,-0.000416,0.003209
6.755010000022594,6.755010000022594,0.0,0.0,1.949007474259556,0.0,0.0,0.40206285,-0.25342173,9.78245352,0.001666,-6.5e-05,0.005402
6.774995000043418,6.774995000043418,0.0,0.0,1.9490985451682157,0.0,0.0,0.4104504,-0.26284914,9.78245352,0.002699,-0.000187,0.004639
6.794980000006035,6.794980000006035,0.0,0.0,1.9491942674596094,0.0,0.0,0.39832524,-0.26465418,9.78021684,0.001683,0.001108,0.00489
6.814965000026859,6.814965000026859,0.0,0.0,1.9492847278031675,0.0,0.0,0.40221,-0.23950134,9.78365034,0.001689,-0.000522,0.004582
6.8349509999970905,6.8349509999970905,0.0,0.0,1.9493769120062474,0.0,0.0,0.39488193,-0.25297047,9.78005988,0.002393,0.000414,0.004672
6.854936000017915,6.854936000017915,0.0,0.0,1.9494399241398792,0.0,0.0,0.3990708,-0.25327458,9.76718916,0.002288,-0.000644,0.003015
6.874921000038739,6.874921000038739,0.0,0.0,1.9495109776050041,0.0,0.0,0.40266126,-0.25776756,9.77437008,0.003221,0.000177,0.003489
6.894906000001356,6.894906000001356,0.0,0.0,1.9495670325749028,0.0,0.0,0.40041477,-0.25088094,9.780511140000002,0.003046,0.000677,0.002646
6.91489100002218,6.91489100002218,0.0,0.0,1.9496391890434328,0.0,0.0,0.39143862,-0.25356888,9.78021684,0.003851,0.000365,0.003584
6.934876000043005,6.934876000043005,0.0,0.0,1.9497252463633261,0.0,0.0,0.40775265,-0.25701219,9.78156081,0.00296,-0.000812,0.00438
6.954862000013236,6.954862000013236,0.0,0.0,1.9498104908306697,0.0,0.0,0.41089185,-0.25851312,9.77677353,0.004083,0.000791,0.004323
6.97484700003406,6.97484700003406,0.0,0.0,1.9499057963693485,0.0,0.0,0.40221,-0.24923286,9.77077962,0.004263,-0.00018,0.00489
6.994831999996677,6.994831999996677,0.0,0.0,1.949976811893423,0.0,0.0,0.40550616,-0.25072398,9.76554108,0.003697,-0.001142,0.003483
7.014817000017501,7.014817000017501,0.0,0.0,1.9500246514378379,0.0,0.0,0.39548034,-0.26824464,9.78814332,0.004107,-0.000184,0.002166
7.014817000017501,7.014817000017501,0.0,0.0,1.950000475907073,0.0,0.0,0.39548034,-0.26824464,9.78814332,0.004107,-0.000184,0.002166
7.034802000038326,7.034802000038326,0.0,0.0,1.9500643777093778,0.0,0.0,0.40371093,-0.2576106,9.77721498,0.003566,0.000747,0.003099
7.074773000029381,7.074773000029381,0.0,0.0,1.9502137163251296,0.0,0.0,0.40012047,-0.25222491,9.76628664,0.001978,0.000251,0.004041
7.094757999991998,7.094757999991998,0.0,0.0,1.9503168256336156,0.0,0.0,0.39577464,-0.25956279,9.77467419,0.004001,-0.000857,0.005376
7.1147430000128224,7.1147430000128224,0.0,0.0,1.9503633901700015,0.0,0.0,0.40685013,-0.24968412,9.78305193,0.002184,-0.000999,0.002125
7.134728000033647,7.134728000033647,0.0,0.0,1.950448431434622,0.0,0.0,0.39397941,-0.24758478,9.77197644,0.00355,-0.000966,0.004348
7.1547129999962635,7.1547129999962635,0.0,0.0,1.9505349706036217,0.0,0.0,0.3881424599999999,-0.26569404,9.75760479,0.00289,0.001211,0.00442
7.174698000017088,7.174698000017088,0.0,0.0,1.950607733200627,0.0,0.0,0.40430934,-0.25671789,9.77152518,0.003143,0.000108,0.00362
7.194683000037912,7.194683000037912,0.0,0.0,1.9506914608688302,0.0,0.0,0.41179437,-0.26525259,9.77467419,0.004102,0.00088,0.00425
7.2146690000081435,7.2146690000081435,0.0,0.0,1.9507822834719004,0.0,0.0,0.39008484,-0.25626663,9.77991273,0.004438,0.000293,0.004647
7.234654000028968,7.234654000028968,0.0,0.0,1.9508454464466674,0.0,0.0,0.39996351,-0.26270199,9.78021684,0.000916,9.7e-05,0.003048
7.254638999991585,7.254638999991585,0.0,0.0,1.9509252798926688,0.0,0.0,0.40236696,-0.24863445,9.77257485,0.00395,0.001312,0.00402
7.274624000012409,7.274624000012409,0.0,0.0,1.9509951703564532,0.0,0.0,0.39472497,-0.25028253,9.77587101,0.00439,0.001566,0.003446
7.294609000033233,7.294609000033233,0.0,0.0,1.951059266103683,0.0,0.0,0.39952206,-0.26075961,9.76943565,0.00377,0.001092,0.003121
7.31459399999585,7.31459399999585,0.0,0.0,1.9511561088093794,0.0,0.0,0.39143862,-0.2576106,9.76659075,0.004587,0.001268,0.005014
7.334579000016674,7.334579000016674,0.0,0.0,1.9512441596174988,0.0,0.0,0.39756987,-0.25611948,9.77572386,0.003466,0.000349,0.004484
7.354565000045113,7.354565000045113,0.0,0.0,1.9513342264822802,0.0,0.0,0.38904498,-0.24653511,9.78201207,0.00303,-0.000992,0.004588
7.394535000028554,7.394535000028554,0.0,0.0,1.9514980445266676,0.0,0.0,0.40700709,-0.25327458,9.76269618,0.004329,-0.001824,0.00416
7.414519999991171,7.414519999991171,0.0,0.0,1.9515972277599936,0.0,0.0,0.39667716,-0.26315325,9.77152518,0.002259,-0.00038,0.005005
7.434505000011995,7.434505000011995,0.0,0.0,1.9516530121270375,0.0,0.0,0.40400523,-0.265851,9.77871591,0.00353,-0.001071,0.002709
7.45449000003282,7.45449000003282,0.0,0.0,1.9517405384816158,0.0,0.0,0.39876669,-0.27078543,9.77931432,0.003073,-0.001707,0.004407
7.4744749999954365,7.4744749999954365,0.0,0.0,1.9518210056761625,0.0,0.0,0.40117014,-0.26150517,9.78725061,0.002898,-0.001959,0.004025
7.494461000023875,7.494461000023875,0.0,0.0,1.9519265700859645,0.0,0.0,0.40804695,-0.24818319,9.77721498,0.00221,-0.001277,0.005391
7.5144460000447,7.5144460000447,0.0,0.0,1.952011588258797,0.0,0.0,0.40969503,-0.26764623,9.77407578,0.002212,-0.001308,0.004257
7.5344310000073165,7.5344310000073165,0.0,0.0,1.9521042976644765,0.0,0.0,0.40430934,-0.25552107,9.79038981,0.002114,-0.000709,0.004681
7.554416000028141,7.554416000028141,0.0,0.0,1.9521869837885184,0.0,0.0,0.3990708,-0.2484873,9.77871591,0.005034,-0.000912,0.004121
7.574401000048965,7.574401000048965,0.0,0.0,1.952263304797241,0.0,0.0,0.41658165,-0.26090676,9.780511140000002,0.002747,0.000649,0.003768
7.594386000011582,7.594386000011582,0.0,0.0,1.9523517805763593,0.0,0.0,0.3962259,-0.25387299,9.78500412,0.003397,-0.000118,0.004454
7.614371000032406,7.614371000032406,0.0,0.0,1.9524414344948537,0.0,0.0,0.39861954,-0.25042968,9.7838073,0.002414,-0.000359,0.004517
7.6343570000026375,7.6343570000026375,0.0,0.0,1.9525308764297407,0.0,0.0,0.39352815,-0.25193061,9.780962400000002,0.003135,0.000833,0.004501
7.654342000023462,7.654342000023462,0.0,0.0,1.9525934964536775,0.0,0.0,0.4104504,-0.25791471,9.77797035,0.002432,-0.000311,0.002982
7.674327000044286,7.674327000044286,0.0,0.0,1.9526649448829874,0.0,0.0,0.39682431,-0.27393444,9.7692885,0.003105,-0.001002,0.003502
7.694312000006903,7.694312000006903,0.0,0.0,1.9527233658000185,0.0,0.0,0.3873969,-0.25925868,9.780962400000002,0.004535,-3e-06,0.002772
7.714297000027727,7.714297000027727,0.0,0.0,1.952804257283944,0.0,0.0,0.40655583,-0.26180928,9.77901021,0.004971,-0.000532,0.004071
7.734282000048552,7.734282000048552,0.0,0.0,1.9528846439685736,0.0,0.0,0.40012047,-0.26405577,9.76613949,0.002649,0.001165,0.004039
7.754267000011168,7.754267000011168,0.0,0.0,1.952975129195421,0.0,0.0,0.40325967,-0.25776756,9.77737194,0.002284,-0.000725,0.004613
7.774253000039607,7.774253000039607,0.0,0.0,1.9530678599954685,0.0,0.0,0.40146444,-0.2576106,9.7752726,0.004413,-0.000269,0.004729
7.794238000002224,7.794238000002224,0.0,0.0,1.953155425591592,0.0,0.0,0.40325967,-0.25686504,9.76254903,0.002939,4.4e-05,0.004421
7.814223000023048,7.814223000023048,0.0,0.0,1.9532431603083866,0.0,0.0,0.39502908,-0.26569404,9.7721334,0.002265,0.000401,0.004425
7.834208000043873,7.834208000043873,0.0,0.0,1.953332257403022,0.0,0.0,0.4107447,-0.26180928,9.77228055,0.00298,-0.001832,0.004498
7.8541930000064895,7.8541930000064895,0.0,0.0,1.9534122493000412,0.0,0.0,0.40012047,-0.24653511,9.77632227,0.001813,-0.0002,0.00397
7.874178000027314,7.874178000027314,0.0,0.0,1.9535064119488625,0.0,0.0,0.40430934,-0.27317907,9.76508982,0.001092,-0.000583,0.004788
7.894163000048138,7.894163000048138,0.0,0.0,1.9535896940447541,0.0,0.0,0.40550616,-0.24908571,9.76599234,0.002247,-0.000571,0.004152
7.914148000010755,7.914148000010755,0.0,0.0,1.9536659390316515,0.0,0.0,0.41134311,-0.25267617,9.780962400000002,0.001855,0.001227,0.00375
7.934134000039194,7.934134000039194,0.0,0.0,1.9537665023949042,0.0,0.0,0.40131729,-0.25193061,9.77512545,0.002447,-0.000682,0.005157
7.9541190000018105,7.9541190000018105,0.0,0.0,1.9538229961512092,0.0,0.0,0.38993769,-0.24968412,9.77333022,0.002032,0.000749,0.002605
7.974104000022635,7.974104000022635,0.0,0.0,1.95387578414209,0.0,0.0,0.40071888,-0.25925868,9.76419711,0.004118,-0.000293,0.002425
7.994089000043459,7.994089000043459,0.0,0.0,1.9539713648329382,0.0,0.0,0.41134311,-0.26001405,9.78005988,0.002369,-0.000808,0.004919
8.014074000006076,8.014074000006076,0.0,0.0,1.9540535012593665,0.0,0.0,0.4019157,-0.25626663,9.77601816,0.003741,0.000259,0.004125
8.0340590000269,8.0340590000269,0.0,0.0,1.9541240176591268,0.0,0.0,0.40565331,-0.25102809,9.77646942,0.002429,0.000298,0.003454
8.054044000047725,8.054044000047725,0.0,0.0,1.9541990997779548,0.0,0.0,0.4016115900000001,-0.27049113,9.77302611,0.003527,-0.000657,0.003728
8.09401500003878,8.09401500003878,0.0,0.0,1.9543790517103767,0.0,0.0,0.39816828,-0.25806186,9.77452704,0.00342,-3.9e-05,0.005124
8.114000000001397,8.114000000001397,0.0,0.0,1.9544629325639464,0.0,0.0,0.40356378,-0.26105391,9.76883724,0.004415,-0.001433,0.004202
8.133985000022221,8.133985000022221,0.0,0.0,1.9545611770250355,0.0,0.0,0.4167288,-0.26150517,9.780658290000002,0.003057,-0.000403,0.004964
8.153970000043046,8.153970000043046,0.0,0.0,1.9546480296909277,0.0,0.0,0.40385808,-0.25566822,9.7752726,0.003974,-0.001242,0.004354
8.173955000005662,8.173955000005662,0.0,0.0,1.9547268567637444,0.0,0.0,0.40581027,-0.25387299,9.78470001,0.002907,-0.000989,0.00392
8.193940000026487,8.193940000026487,0.0,0.0,1.9548249714015853,0.0,0.0,0.40146444,-0.25117524,9.76943565,0.004976,-0.001357,0.004972
8.213925000047311,8.213925000047311,0.0,0.0,1.9549016945533566,0.0,0.0,0.4076055,-0.26659656,9.77886306,0.003083,-0.001842,0.003794
8.233911000017542,8.233911000017542,0.0,0.0,1.9549832427845324,0.0,0.0,0.40461345,-0.26779338,9.79084107,0.003083,-0.000746,0.004064
8.253896000038367,8.253896000038367,0.0,0.0,1.9550859697514849,0.0,0.0,0.40251411,-0.26494848,9.77273181,0.002682,-0.000625,0.005241
8.273881000000983,8.273881000000983,0.0,0.0,1.9551677600444197,0.0,0.0,0.40864536,-0.2513322,9.77422293,0.002008,-0.000115,0.004063
8.293866000021808,8.293866000021808,0.0,0.0,1.955261404084541,0.0,0.0,0.39772683,-0.25880742,9.77333022,0.003454,0.001553,0.00473
8.313851000042632,8.313851000042632,0.0,0.0,1.9553590035036512,0.0,0.0,0.39772683,-0.2576106,9.77916717,0.00273,0.000147,0.004947
8.333836000005249,8.333836000005249,0.0,0.0,1.9554365728757315,0.0,0.0,0.40864536,-0.25836597,9.77677353,0.00211,0.000418,0.00381
8.353821000026073,8.353821000026073,0.0,0.0,1.9555172182317895,0.0,0.0,0.39772683,-0.25267617,9.77766624,0.0037,-0.000216,0.003993
8.373806000046898,8.373806000046898,0.0,0.0,1.9555701863914763,0.0,0.0,0.39592179,-0.25686504,9.77781339,0.004639,0.001291,0.00243
8.393792000017129,8.393792000017129,0.0,0.0,1.9556332035473325,0.0,0.0,0.39368511,-0.26061246,9.77048532,0.004115,0.000993,0.00303
8.413777000037953,8.413777000037953,0.0,0.0,1.955718083038307,0.0,0.0,0.40385808,-0.25342173,9.77512545,0.004279,-0.000521,0.004291
8.43376200000057,8.43376200000057,0.0,0.0,1.9557926470749267,0.0,0.0,0.39727557,-0.25791471,9.77197644,0.00263,-0.001194,0.003697
8.453747000021394,8.453747000021394,0.0,0.0,1.9558687044172558,0.0,0.0,0.40581027,-0.25416729,9.77333022,0.005267,0.000436,0.003787
8.473732000042219,8.473732000042219,0.0,0.0,1.9559459926966065,0.0,0.0,0.40880232,-0.27273762,9.76659075,0.003264,-0.001718,0.00386
8.493717000004835,8.493717000004835,0.0,0.0,1.9560266885955402,0.0,0.0,0.41523768,-0.24952716,9.7869465,0.003451,-0.001068,0.004056
8.51370200002566,8.51370200002566,0.0,0.0,1.9561162314068632,0.0,0.0,0.40251411,-0.25671789,9.77452704,0.002817,-0.003013,0.00456
8.533687000046484,8.533687000046484,0.0,0.0,1.9561911622128587,0.0,0.0,0.40581027,-0.24743763,9.76568823,0.002865,-0.000858,0.003711
8.553673000016715,8.553673000016715,0.0,0.0,1.9562434898024392,0.0,0.0,0.3990708,-0.24459273,9.77092677,0.002153,-0.001096,0.00242
8.57365800003754,8.57365800003754,0.0,0.0,1.956341638869504,0.0,0.0,0.40969503,-0.25416729,9.77706783,0.004136,-0.001495,0.005079
8.593643000000156,8.593643000000156,0.0,0.0,1.9564585747988108,0.0,0.0,0.40655583,-0.26480133,9.77482134,0.002834,-0.001839,0.006133
8.61362800002098,8.61362800002098,0.0,0.0,1.9565394907902753,0.0,0.0,0.39653001,-0.26180928,9.77063247,0.002424,-0.001112,0.004022
8.633613000041805,8.633613000041805,0.0,0.0,1.9566486991670784,0.0,0.0,0.40894947,-0.26554689,9.76838598,0.003027,-0.001034,0.005652
8.653598000004422,8.653598000004422,0.0,0.0,1.956732859473533,0.0,0.0,0.39173292,-0.25102809,9.77302611,0.002308,-3.3e-05,0.004184
8.673583000025246,8.673583000025246,0.0,0.0,1.956813541139331,0.0,0.0,0.39952206,-0.2604555,9.7781175,0.002999,0.000291,0.003988
8.69356800004607,8.69356800004607,0.0,0.0,1.956919527099922,0.0,0.0,0.41942655,-0.25028253,9.7721334,0.002665,-0.000335,0.005451
8.713554000016302,8.713554000016302,0.0,0.0,1.95698909272169,0.0,0.0,0.39756987,-0.25791471,9.76568823,0.002542,0.000676,0.003333
8.733539000037126,8.733539000037126,0.0,0.0,1.9570525866897306,0.0,0.0,0.40461345,-0.26569404,9.78515127,0.002163,8.5e-05,0.003006
8.753523999999743,8.753523999999743,0.0,0.0,1.9571354388250564,0.0,0.0,0.4050549,-0.25866027,9.78275763,0.00305,0.00027,0.004146
8.793494000041392,8.793494000041392,0.0,0.0,1.9573075299785803,0.0,0.0,0.41164722,-0.26225073,9.77137803,0.003601,0.000744,0.004478
8.813479000004008,8.813479000004008,0.0,0.0,1.9573809703898588,0.0,0.0,0.39383226,-0.25402014,9.77257485,0.003437,-0.000608,0.00365
8.833464000024833,8.833464000024833,0.0,0.0,1.9574569863463527,0.0,0.0,0.41149026,-0.25671789,9.77632227,0.003771,0.000141,0.003785
8.853449000045657,8.853449000045657,0.0,0.0,1.957543570161766,0.0,0.0,0.42481224,-0.26135802,9.76659075,0.00226,0.000365,0.004351
8.873435000015888,8.873435000015888,0.0,0.0,1.9576060964968196,0.0,0.0,0.38933928,-0.25626663,9.77257485,0.002699,-0.002927,0.00305
8.893420000036713,8.893420000036713,0.0,0.0,1.957653667442786,0.0,0.0,0.40311252,-0.25387299,9.78245352,0.003978,-0.000442,0.00224
8.91340499999933,8.91340499999933,0.0,0.0,1.9577547934889576,0.0,0.0,0.39712842,-0.2630061,9.7812567,0.003615,-0.002285,0.005188
8.933390000020154,8.933390000020154,0.0,0.0,1.957843311859631,0.0,0.0,0.38993769,-0.25072398,9.77617512,0.002684,-0.002106,0.004481
8.953375000040978,8.953375000040978,0.0,0.0,1.9579426625326928,0.0,0.0,0.4090966200000001,-0.26090676,9.76568823,0.002629,-0.00154,0.005077
8.973360000003595,8.973360000003595,0.0,0.0,1.9580332109318972,0.0,0.0,0.39443067,-0.25896438,9.77123088,0.002251,-0.000343,0.004575
8.99334500002442,8.99334500002442,0.0,0.0,1.958107702024205,0.0,0.0,0.39727557,-0.25521696,9.768533130000002,0.003345,7.9e-05,0.003671
9.013330000045244,9.013330000045244,0.0,0.0,1.9581973605834664,0.0,0.0,0.39653001,-0.25776756,9.78215922,0.0039,0.000272,0.00453
9.033316000015475,9.033316000015475,0.0,0.0,1.9582855226869924,0.0,0.0,0.41208867,-0.25521696,9.78290478,0.002384,0.001054,0.00444
9.0533010000363,9.0533010000363,0.0,0.0,1.9583833683095815,0.0,0.0,0.39756987,-0.25776756,9.764942670000002,0.001462,-0.000221,0.004984
9.073285999998916,9.073285999998916,0.0,0.0,1.958456308177987,0.0,0.0,0.39173292,-0.26494848,9.78365034,0.002075,-7e-06,0.003561
9.09327100001974,9.09327100001974,0.0,0.0,1.9585296024162577,0.0,0.0,0.39292974,-0.25701219,9.76718916,0.003105,0.000815,0.003593
9.113256000040565,9.113256000040565,0.0,0.0,1.9586006973063963,0.0,0.0,0.40804695,-0.25416729,9.77632227,0.002691,-0.000271,0.003478
9.133241000003181,9.133241000003181,0.0,0.0,1.9586769331377933,0.0,0.0,0.40880232,-0.25581537,9.7695828,0.002143,0.000819,0.003782
9.153226000024006,9.153226000024006,0.0,0.0,1.9587540874163558,0.0,0.0,0.41478642,-0.26195643,9.76060665,0.001983,0.000538,0.003839
9.17321100004483,9.17321100004483,0.0,0.0,1.9588377499109653,0.0,0.0,0.40280841,-0.25042968,9.77273181,0.003698,-0.000206,0.004214
9.193196000007447,9.193196000007447,0.0,0.0,1.9589001922176426,0.0,0.0,0.39548034,-0.24624081,9.77661657,0.00289,-0.000746,0.002996
9.213182000035886,9.213182000035886,0.0,0.0,1.9589958080785195,0.0,0.0,0.41134311,-0.25716915,9.76688505,0.004643,-0.000132,0.004914
9.233166999998502,9.233166999998502,0.0,0.0,1.959093284448162,0.0,0.0,0.39173292,-0.25506981,9.77347737,0.003819,-0.000256,0.005002
9.253152000019327,9.253152000019327,0.0,0.0,1.959188218572253,0.0,0.0,0.41268708,-0.24713352,9.78605379,0.003072,-0.002026,0.004838
9.273137000040151,9.273137000040151,0.0,0.0,1.9592818263765732,0.0,0.0,0.4047606,-0.26525259,9.7838073,0.002214,-0.000958,0.004749
9.293122000002768,9.293122000002768,0.0,0.0,1.9593765592266017,0.0,0.0,0.40999914,-0.25387299,9.75745764,0.001801,-0.002271,0.004804
9.313107000023592,9.313107000023592,0.0,0.0,1.95944552010074,0.0,0.0,0.40969503,-0.26449722,9.78185511,0.002428,-0.000451,0.003314
9.333092000044417,9.333092000044417,0.0,0.0,1.9595502498601292,0.0,0.0,0.40221,-0.26210358,9.77407578,0.00232,-0.000374,0.00539
9.353077000007033,9.353077000007033,0.0,0.0,1.959620475642934,0.0,0.0,0.40026762,-0.24908571,9.77766624,0.003772,-0.001014,0.003384
9.373063000035472,9.373063000035472,0.0,0.0,1.9597107646923657,0.0,0.0,0.41029344,-0.25820901,9.79398027,0.002858,-0.000467,0.004557
9.393047999998089,9.393047999998089,0.0,0.0,1.9598120166250332,0.0,0.0,0.40311252,-0.2624076899999999,9.77601816,0.002877,-0.001261,0.005182
9.413033000018913,9.413033000018913,0.0,0.0,1.9599135697454058,0.0,0.0,0.40610457,-0.26465418,9.79053696,0.002877,-0.001261,0.005182
9.433018000039738,9.433018000039738,0.0,0.0,1.9599855681001772,0.0,0.0,0.3956274899999999,-0.25836597,9.7755669,0.003279,0.000342,0.003466
9.453003000002354,9.453003000002354,0.0,0.0,1.960052032494957,0.0,0.0,0.41598324,-0.25791471,9.75776175,0.003684,-0.000344,0.003168
9.492973000044003,9.492973000044003,0.0,0.0,1.9602147816575979,0.0,0.0,0.40236696,-0.26121087,9.77721498,0.004856,-0.000103,0.003918
9.51295800000662,9.51295800000662,0.0,0.0,1.9602933145450008,0.0,0.0,0.40206285,-0.25506981,9.77706783,0.004856,-0.000103,0.003918
9.532944000035059,9.532944000035059,0.0,0.0,1.9603241751888412,0.0,0.0,0.39653001,-0.25970994,9.77721498,0.004271,-0.000349,0.001389
9.552928999997675,9.552928999997675,0.0,0.0,1.9604094444050064,0.0,0.0,0.38919213,-0.24833034,9.77407578,0.00364,-0.000313,0.004303
9.5729140000185,9.5729140000185,0.0,0.0,1.960479303498862,0.0,0.0,0.39787398,-0.24833034,9.77512545,0.002803,-0.000715,0.003469
9.592899000039324,9.592899000039324,0.0,0.0,1.9605781040670758,0.0,0.0,0.40581027,-0.25028253,9.77003406,0.003404,-0.001861,0.005047
9.61288400000194,9.61288400000194,0.0,0.0,1.960669095474679,0.0,0.0,0.40176855,-0.25342173,9.76404996,0.003366,-0.002741,0.004611
9.632869000022765,9.632869000022765,0.0,0.0,1.9607343406271012,0.0,0.0,0.3962259,-0.26210358,9.76508982,0.00365,-0.000626,0.003185
9.65285400004359,9.65285400004359,0.0,0.0,1.9607892267843345,0.0,0.0,0.38904498,-0.27468,9.77362452,0.003279,-2.8e-05,0.002618
9.67284000001382,9.67284000001382,0.0,0.0,1.9608726594022468,0.0,0.0,0.40206285,-0.25492266,9.7667379,0.00253,-0.001688,0.004223
9.692825000034645,9.692825000034645,0.0,0.0,1.9609209456516528,0.0,0.0,0.40041477,-0.25880742,9.76883724,0.002949,-0.001029,0.00225
9.712809999997262,9.712809999997262,0.0,0.0,1.9609879577845035,0.0,0.0,0.40969503,-0.26554689,9.77317326,0.000461,-0.000403,0.003322
9.732795000018086,9.732795000018086,0.0,0.0,1.9610767558192794,0.0,0.0,0.40864536,-0.24234624,9.765246780000002,0.003525,-0.000275,0.004554
9.75278000003891,9.75278000003891,0.0,0.0,1.9611753557468514,0.0,0.0,0.39876669,-0.24533829,9.7838073,0.001974,0.000111,0.005094
9.772765000001527,9.772765000001527,0.0,0.0,1.9612315187772644,0.0,0.0,0.39876669,-0.26255484,9.76374585,0.003631,0.000349,0.002668
9.792750000022352,9.792750000022352,0.0,0.0,1.9613187226484756,0.0,0.0,0.40385808,-0.26449722,9.7781175,0.00217,-0.000319,0.00445
9.812735000043176,9.812735000043176,0.0,0.0,1.9613889463277498,0.0,0.0,0.39682431,-0.26105391,9.77452704,0.003246,0.000762,0.003472
9.812735000043176,9.812735000043176,0.0,0.0,1.9613842738779708,0.0,0.0,0.39682431,-0.26105391,9.77452704,0.003246,0.000762,0.003472
9.812735000043176,9.812735000043176,0.0,0.0,1.9613805766292352,0.0,0.0,0.39682431,-0.26105391,9.77452704,0.003246,0.000762,0.003472
9.872690999996848,9.872690999996848,0.0,0.0,1.9615819261272502,0.0,0.0,0.39472497,-0.25356888,9.76778757,0.005041,-3e-06,0.002492
9.892676000017673,9.892676000017673,0.0,0.0,1.9616591548320264,0.0,0.0,0.40385808,-0.24818319,9.79682517,0.003907,-0.001204,0.003914
9.912661000038497,9.912661000038497,0.0,0.0,1.9617514397216347,0.0,0.0,0.40969503,-0.26494848,9.78620094,0.003452,-0.000133,0.004773
9.932646000001114,9.932646000001114,0.0,0.0,1.9618502061617855,0.0,0.0,0.41777847,-0.24354306,9.78500412,0.003593,-0.000173,0.005121
9.952631000021938,9.952631000021938,0.0,0.0,1.9619228597172027,0.0,0.0,0.39667716,-0.25237206,9.764491410000002,0.003684,-0.001627,0.00359
9.972616000042763,9.972616000042763,0.0,0.0,1.9620098687194076,0.0,0.0,0.39966921,-0.26075961,9.78261048,0.004093,-0.001463,0.004423
9.992602000012994,9.992602000012994,0.0,0.0,1.9620916270022617,0.0,0.0,0.39368511,-0.25387299,9.77437008,0.004465,-0.000809,0.00411
10.012587000033818,10.012587000033818,0.0,0.0,1.9621691912008918,0.0,0.0,0.39098736,-0.26001405,9.77092677,0.004388,-0.000377,0.003866
10.032571999996435,10.032571999996435,0.0,0.0,1.962245376953934,0.0,0.0,0.41478642,-0.265851,9.77512545,0.001804,-0.001643,0.003789
10.05255700001726,10.05255700001726,0.0,0.0,1.962318859867679,0.0,0.0,0.39502908,-0.24863445,9.78739776,0.002902,-5.6e-05,0.003637
10.0925270000007,10.0925270000007,0.0,0.0,1.9624865151814381,0.0,0.0,0.39682431,-0.26989272,9.77287896,0.002656,0.000966,0.004506
10.112512000021525,10.112512000021525,0.0,0.0,1.9625761066330814,0.0,0.0,0.41268708,-0.25776756,9.77871591,0.002656,0.000966,0.004506
10.132497000042349,10.132497000042349,0.0,0.0,1.9626495705157794,0.0,0.0,0.40969503,-0.26075961,9.77452704,0.003847,-0.000198,0.003653
10.15248300001258,10.15248300001258,0.0,0.0,1.9626950009578863,0.0,0.0,0.39443067,-0.2576106,9.76793472,0.005073,0.000382,0.002152
10.172468000033405,10.172468000033405,0.0,0.0,1.9627829432291186,0.0,0.0,0.40012047,-0.25851312,9.7755669,0.003958,-0.000578,0.004452
10.192452999996021,10.192452999996021,0.0,0.0,1.9628569044997617,0.0,0.0,0.38634723,-0.24892875,9.78261048,0.003445,-0.000194,0.003688
10.212438000016846,10.212438000016846,0.0,0.0,1.9629396766474176,0.0,0.0,0.38933928,-0.25806186,9.76464837,0.004423,0.000814,0.004172
10.23242300003767,10.23242300003767,0.0,0.0,1.9629932754669435,0.0,0.0,0.40206285,-0.25342173,9.76120506,0.003692,0.000209,0.00256
10.252408000000287,10.252408000000287,0.0,0.0,1.9630499956202536,0.0,0.0,0.40041477,-0.24788889,9.765246780000002,0.004891,-3.6e-05,0.002745
10.272393000021111,10.272393000021111,0.0,0.0,1.9631425129733344,0.0,0.0,0.40490775,-0.25028253,9.77797035,0.004251,0.000196,0.00475
10.292378000041936,10.292378000041936,0.0,0.0,1.9632101887111837,0.0,0.0,0.39816828,-0.25925868,9.78320889,0.003639,-0.001184,0.003346
10.332349000032991,10.332349000032991,0.0,0.0,1.9633711495483848,0.0,0.0,0.40715424,-0.26315325,9.76823883,0.003698,-0.000612,0.004386
10.352333999995608,10.352333999995608,0.0,0.0,1.9634602869441702,0.0,0.0,0.39772683,-0.25985709,9.76659075,0.001576,-0.000382,0.004479
10.372319000016432,10.372319000016432,0.0,0.0,1.9635503150781073,0.0,0.0,0.39876669,-0.26779338,9.77706783,0.002911,0.000951,0.004531
10.392304000037257,10.392304000037257,0.0,0.0,1.9636363076494465,0.0,0.0,0.40280841,-0.25222491,9.77407578,0.001289,-0.001316,0.004321
10.412288999999873,10.412288999999873,0.0,0.0,1.9637184280208722,0.0,0.0,0.39756987,-0.2544714,9.7692885,0.002399,-0.001296,0.004115
10.432274000020698,10.432274000020698,0.0,0.0,1.9638482094172094,0.0,0.0,0.40940073,-0.25387299,9.78574968,0.00291,-0.000224,0.006682
10.452259000041522,10.452259000041522,0.0,0.0,1.9639162643155768,0.0,0.0,0.40461345,-0.25581537,9.77781339,0.004103,0.000668,0.003321
10.472244000004139,10.472244000004139,0.0,0.0,1.9640269104978305,0.0,0.0,0.40925358,-0.2516265,9.76584519,0.003682,0.000272,0.005657
10.492230000032578,10.492230000032578,0.0,0.0,1.964112245801239,0.0,0.0,0.41553198,-0.26090676,9.77916717,0.002292,-0.000364,0.004253
10.512214999995194,10.512214999995194,0.0,0.0,1.9641872576986765,0.0,0.0,0.40371093,-0.24548544,9.77677353,0.00339,0.000812,0.003683
10.532200000016019,10.532200000016019,0.0,0.0,1.9642740136865582,0.0,0.0,0.39472497,-0.26569404,9.780658290000002,0.004108,-0.000642,0.004344
10.552185000036843,10.552185000036843,0.0,0.0,1.9643516185152556,0.0,0.0,0.39981636,-0.26061246,9.76809168,0.004006,0.000677,0.003832
10.57216999999946,10.57216999999946,0.0,0.0,1.9644341411573372,0.0,0.0,0.41089185,-0.24354306,9.77617512,0.003521,-0.001501,0.004114
10.592155000020284,10.592155000020284,0.0,0.0,1.9644981649079956,0.0,0.0,0.40985199,-0.2516265,9.7869465,0.004821,4.2e-05,0.003074
10.612140000041109,10.612140000041109,0.0,0.0,1.9645704854824224,0.0,0.0,0.4047606,-0.26554689,9.78634809,0.002143,-0.000668,0.003559
10.632125000003725,10.632125000003725,0.0,0.0,1.9646423513439313,0.0,0.0,0.40625172,-0.25746345,9.76972995,0.003476,0.000231,0.003541
10.652111000032164,10.652111000032164,0.0,0.0,1.9647404313379067,0.0,0.0,0.40565331,-0.26225073,9.78529842,0.003963,-0.000605,0.005036
10.67209599999478,10.67209599999478,0.0,0.0,1.964830883392807,0.0,0.0,0.40581027,-0.26061246,9.77168214,0.001783,0.000187,0.004585
10.692081000015605,10.692081000015605,0.0,0.0,1.9649564615588035,0.0,0.0,0.39323385,-0.25312743,9.780815250000002,0.003124,-0.000414,0.006578
10.732050999999046,10.732050999999046,0.0,0.0,1.9651383031858067,0.0,0.0,0.40700709,-0.25387299,9.77781339,0.00286,-1.8e-05,0.004625
10.75203600001987,10.75203600001987,0.0,0.0,1.9652106419580768,0.0,0.0,0.40206285,-0.25207776,9.7721334,0.001711,-0.000148,0.003584
10.772021000040695,10.772021000040695,0.0,0.0,1.9652743737831004,0.0,0.0,0.40057173,-0.26779338,9.77931432,0.003271,-0.000511,0.003126
10.792006000003312,10.792006000003312,0.0,0.0,1.9653731304537159,0.0,0.0,0.40835106,-0.26465418,9.77333022,0.002542,-0.000465,0.00499
10.81199200003175,10.81199200003175,0.0,0.0,1.9654750438790796,0.0,0.0,0.40521186,-0.24863445,9.78844743,0.003494,-0.000296,0.005159
10.831976999994367,10.831976999994367,0.0,0.0,1.965545333964462,0.0,0.0,0.40416219,-0.24264054,9.77287896,0.002652,0.000198,0.003441
10.851962000015192,10.851962000015192,0.0,0.0,1.9655897569319425,0.0,0.0,0.40490775,-0.24892875,9.7894971,0.001996,0.000366,0.002032
10.871947000036016,10.871947000036016,0.0,0.0,1.9656775762689067,0.0,0.0,0.39802113,-0.26270199,9.765246780000002,0.00493,0.000562,0.004435
10.891931999998633,10.891931999998633,0.0,0.0,1.965779304993192,0.0,0.0,0.40925358,-0.26135802,9.76044969,0.001753,0.000427,0.005201
10.911917000019457,10.911917000019457,0.0,0.0,1.9658351591339969,0.0,0.0,0.40371093,-0.25686504,9.76778757,0.002699,0.00018,0.002638
10.931902000040282,10.931902000040282,0.0,0.0,1.965924890058763,0.0,0.0,0.40685013,-0.25193061,9.78215922,0.002916,-0.000216,0.004548
10.951887000002898,10.951887000002898,0.0,0.0,1.9660052925346543,0.0,0.0,0.40296537,-0.24399432,9.7781175,0.003148,0.000144,0.004018
10.971873000031337,10.971873000031337,0.0,0.0,1.9660697340835904,0.0,0.0,0.3930867,-0.24624081,9.7692885,0.002755,-0.001055,0.00312
10.991857999993954,10.991857999993954,0.0,0.0,1.9661873960132885,0.0,0.0,0.40400523,-0.26554689,9.77108373,0.004405,-0.00021,0.006138
11.011843000014778,11.011843000014778,0.0,0.0,1.9662957900249953,0.0,0.0,0.39892365,-0.26779338,9.76284333,0.001972,-0.001416,0.005581
11.05181299999822,11.05181299999822,0.0,0.0,1.966456783798618,0.0,0.0,0.39921795,-0.25387299,9.76718916,0.003353,-0.000803,0.003635
11.071798000019044,11.071798000019044,0.0,0.0,1.9665369262390966,0.0,0.0,0.39952206,-0.25552107,9.76733631,0.001725,-0.000152,0.004
11.091783000039868,11.091783000039868,0.0,0.0,1.9666271954097496,0.0,0.0,0.39412656,-0.25387299,9.76988691,0.003987,-0.000238,0.00453
11.091783000039868,11.091783000039868,0.0,0.0,1.9666312141618354,0.0,0.0,0.39412656,-0.25387299,9.76988691,0.003987,-0.000238,0.00453
11.111768000002485,11.111768000002485,0.0,0.0,1.9667194574172653,0.0,0.0,0.4053590099999999,-0.25282332,9.7667379,0.002027,-0.001258,0.004434
11.131754000030924,11.131754000030924,0.0,0.0,1.966803433252462,0.0,0.0,0.39292974,-0.24668226,9.78560253,0.001993,0.000117,0.004177
11.171724000014365,11.171724000014365,0.0,0.0,1.966975160495985,0.0,0.0,0.39667716,-0.25657074,9.78261048,0.003402,-0.000547,0.004277
11.191709000035189,11.191709000035189,0.0,0.0,1.9670563304414168,0.0,0.0,0.4050549,-0.25581537,9.77721498,0.003153,-0.000297,0.004043
11.211693999997806,11.211693999997806,0.0,0.0,1.9671216828998883,0.0,0.0,0.40385808,-0.25012557,9.7695828,0.002713,4.1e-05,0.003186
11.251665000047069,11.251665000047069,0.0,0.0,1.9672727300706612,0.0,0.0,0.40296537,-0.25896438,9.77437008,0.000902,-1.2e-05,0.003448
11.271650000009686,11.271650000009686,0.0,0.0,1.9673807274190178,0.0,0.0,0.39667716,-0.25521696,9.77182929,0.004051,-7.4e-05,0.005407
11.291636000038125,11.291636000038125,0.0,0.0,1.967446935065258,0.0,0.0,0.41029344,-0.25327458,9.76209777,0.00422,-0.000199,0.003295
11.311621000000741,11.311621000000741,0.0,0.0,1.9675029476153831,0.0,0.0,0.40311252,-0.26105391,9.77766624,0.005508,-0.000577,0.002758
11.331606000021566,11.331606000021566,0.0,0.0,1.9675896424975852,0.0,0.0,0.39502908,-0.2516265,9.7695828,0.003942,3.8e-05,0.004359
11.35159100004239,11.35159100004239,0.0,0.0,1.9676711274214753,0.0,0.0,0.40117014,-0.26284914,9.77601816,0.004488,-0.001997,0.004084
11.371576000005007,11.371576000005007,0.0,0.0,1.9677442180114832,0.0,0.0,0.41149026,-0.26105391,9.77721498,0.003782,-0.000234,0.003634
11.391561000025831,11.391561000025831,0.0,0.0,1.9678426572632324,0.0,0.0,0.39832524,-0.25057683,9.77092677,0.002487,-3.5e-05,0.005006
11.411546000046656,11.411546000046656,0.0,0.0,1.9679519790134252,0.0,0.0,0.40117014,-0.26420292,9.77452704,0.002473,-0.001626,0.005595
11.431531000009272,11.431531000009272,0.0,0.0,1.9680825022782207,0.0,0.0,0.39383226,-0.25701219,9.78275763,0.004043,-0.001536,0.00675
11.451517000037711,11.451517000037711,0.0,0.0,1.9681777703081833,0.0,0.0,0.3990708,-0.2576106,9.77797035,0.002442,-0.000249,0.004783
11.471502000000328,11.471502000000328,0.0,0.0,1.96825696631986,0.0,0.0,0.40730139,-0.25461855,9.77077962,0.001374,-0.000129,0.003889
11.491487000021152,11.491487000021152,0.0,0.0,1.9683573642995098,0.0,0.0,0.40176855,-0.25506981,9.77182929,0.003375,-0.000975,0.00508
11.511472000041977,11.511472000041977,0.0,0.0,1.968430714129899,0.0,0.0,0.40835106,-0.25552107,9.77168214,0.002586,-0.000903,0.003558
11.531457000004593,11.531457000004593,0.0,0.0,1.9684898134597182,0.0,0.0,0.39772683,-0.25820901,9.780815250000002,0.001567,0.000534,0.00277
11.551442000025418,11.551442000025418,0.0,0.0,1.9685509474012486,0.0,0.0,0.40325967,-0.25327458,9.77137803,0.003351,-0.000527,0.002908
11.571427000046242,11.571427000046242,0.0,0.0,1.9686357280390068,0.0,0.0,0.38620008,-0.25552107,9.77152518,0.003458,-0.000298,0.004265
11.591413000016473,11.591413000016473,0.0,0.0,1.9687393824014583,0.0,0.0,0.39952206,-0.27153099,9.764942670000002,0.001281,0.000115,0.005332
11.611398000037298,11.611398000037298,0.0,0.0,1.9688291924545238,0.0,0.0,0.39532338,-0.25147935,9.78515127,0.001901,0.000646,0.004526
11.611398000037298,11.611398000037298,0.0,0.0,1.96883282373311,0.0,0.0,0.39532338,-0.25147935,9.78515127,0.001901,0.000646,0.004526
11.651368000020739,11.651368000020739,0.0,0.0,1.9690212276649381,0.0,0.0,0.39488193,-0.25686504,9.76300029,0.002159,-6.6e-05,0.005221
11.69133800000418,11.69133800000418,0.0,0.0,1.9692102903986743,0.0,0.0,0.41164722,-0.25282332,9.76972995,0.004507,-0.000709,0.005034
11.711323000025004,11.711323000025004,0.0,0.0,1.9693005536006645,0.0,0.0,0.40221,-0.25820901,9.76688505,0.002556,-0.001261,0.004516
11.731308000045829,11.731308000045829,0.0,0.0,1.969371963787168,0.0,0.0,0.39727557,-0.26030835,9.78156081,0.002255,0.000375,0.003522
11.75129400001606,11.75129400001606,0.0,0.0,1.969470374673823,0.0,0.0,0.38784816,-0.24892875,9.77152518,0.002522,-0.000623,0.004959
11.771279000036884,11.771279000036884,0.0,0.0,1.9695639020630766,0.0,0.0,0.40057173,-0.26121087,9.77797035,0.003763,-0.001568,0.004696
11.7912639999995,11.7912639999995,0.0,0.0,1.9696367613295838,0.0,0.0,0.39667716,-0.24803604,9.77632227,0.001304,-0.00025,0.003574
11.811249000020325,11.811249000020325,0.0,0.0,1.9697140539779863,0.0,0.0,0.39952206,-0.26165232,9.7812567,0.002846,-0.001057,0.003821
11.811249000020325,11.811249000020325,0.0,0.0,1.9697063718845396,0.0,0.0,0.39952206,-0.26165232,9.7812567,0.002846,-0.001057,0.003821
11.851219000003766,11.851219000003766,0.0,0.0,1.9698680289470154,0.0,0.0,0.40985199,-0.25372584,9.77317326,0.003243,0.000169,0.003805
11.87120400002459,11.87120400002459,0.0,0.0,1.9699369704687149,0.0,0.0,0.40625172,-0.24758478,9.77541975,0.004232,-0.000371,0.003366
11.891189000045415,11.891189000045415,0.0,0.0,1.9700296367325816,0.0,0.0,0.40969503,-0.24533829,9.77437008,0.003192,0.001253,0.004704
11.911175000015646,11.911175000015646,0.0,0.0,1.9701190716986403,0.0,0.0,0.39532338,-0.24983127,9.77437008,0.003229,5e-06,0.004514
11.93116000003647,11.93116000003647,0.0,0.0,1.970189351523068,0.0,0.0,0.39892365,-0.25267617,9.77632227,0.003627,0.002253,0.00343
11.951144999999087,11.951144999999087,0.0,0.0,1.9702521233699395,0.0,0.0,0.39952206,-0.25252902,9.78275763,0.004554,0.000183,0.003017
11.971130000019912,11.971130000019912,0.0,0.0,1.970333074395496,0.0,0.0,0.40400523,-0.25925868,9.7667379,0.002607,-0.001012,0.004063
11.991115000040736,11.991115000040736,0.0,0.0,1.9704054220397422,0.0,0.0,0.39772683,-0.25506981,9.76568823,0.002846,-0.000305,0.003573
12.011100000003353,12.011100000003353,0.0,0.0,1.9704716251103545,0.0,0.0,0.40804695,-0.25657074,9.77422293,0.002975,0.00021,0.00323
12.031085000024177,12.031085000024177,0.0,0.0,1.9705660488601033,0.0,0.0,0.39952206,-0.26704782,9.76749327,0.003763,-0.00018,0.004849
12.051070000045002,12.051070000045002,0.0,0.0,1.9706283839304142,0.0,0.0,0.40670298,-0.25177365,9.768690090000002,0.004439,9.9e-05,0.003001
12.091041000036057,12.091041000036057,0.0,0.0,1.9707903154720219,0.0,0.0,0.39832524,-0.25282332,9.77347737,0.003244,-0.001659,0.004279
12.111025999998674,12.111025999998674,0.0,0.0,1.9708593903165106,0.0,0.0,0.40012047,-0.25611948,9.77273181,0.003088,-0.000403,0.003438
12.131011000019498,12.131011000019498,0.0,0.0,1.9709624811071285,0.0,0.0,0.39742272,-0.25461855,9.768533130000002,0.003283,-0.001839,0.00523
12.150996000040323,12.150996000040323,0.0,0.0,1.9710466216916318,0.0,0.0,0.41149026,-0.25102809,9.77077962,0.003727,-0.000304,0.004222
12.17098100000294,12.17098100000294,0.0,0.0,1.971111516893279,0.0,0.0,0.40940073,-0.27317907,9.77646942,0.002649,-0.00185,0.003186
12.190966000023764,12.190966000023764,0.0,0.0,1.9711866980569948,0.0,0.0,0.39816828,-0.25641378,9.76659075,0.002623,-0.000989,0.003747
12.210951999993995,12.210951999993995,0.0,0.0,1.9712399008828942,0.0,0.0,0.39832524,-0.25566822,9.77572386,0.003563,-0.000138,0.002546
12.23093700001482,12.23093700001482,0.0,0.0,1.9712909851628106,0.0,0.0,0.39038895,-0.25012557,9.7721334,0.00269,0.001033,0.002439
12.250922000035644,12.250922000035644,0.0,0.0,1.971358438531281,0.0,0.0,0.40640868,-0.24983127,9.77677353,0.003862,3.9e-05,0.003356
12.27090699999826,12.27090699999826,0.0,0.0,1.9714459332867174,0.0,0.0,0.4053590099999999,-0.2544714,9.77228055,0.005496,0.00113,0.004473
12.290892000019085,12.290892000019085,0.0,0.0,1.9715019247014016,0.0,0.0,0.3993651,-0.25267617,9.78185511,0.003062,0.0009,0.002702
12.310877000039909,12.310877000039909,0.0,0.0,1.9715845172863382,0.0,0.0,0.40146444,-0.26315325,9.7724277,0.003307,-0.000278,0.004206
12.330862000002526,12.330862000002526,0.0,0.0,1.9716650474707498,0.0,0.0,0.40894947,-0.25057683,9.78021684,0.003971,-0.000336,0.004081
12.35084700002335,12.35084700002335,0.0,0.0,1.971749198888947,0.0,0.0,0.39832524,-0.25117524,9.77168214,0.004436,-0.000811,0.004279
12.370832999993581,12.370832999993581,0.0,0.0,1.9718172771279194,0.0,0.0,0.39787398,-0.26360451,9.77302611,0.003108,-0.001406,0.00336
12.390818000014406,12.390818000014406,0.0,0.0,1.9718852435154144,0.0,0.0,0.39488193,-0.25806186,9.77333022,0.003108,-0.001406,0.00336
12.41080300003523,12.41080300003523,0.0,0.0,1.9719649143503002,0.0,0.0,0.4016115900000001,-0.25297047,9.77781339,0.001908,-0.000236,0.004031
12.430787999997847,12.430787999997847,0.0,0.0,1.9720340702805306,0.0,0.0,0.3905361,-0.26344755,9.78245352,0.004035,-0.000755,0.003426
12.450773000018671,12.450773000018671,0.0,0.0,1.9721092954206494,0.0,0.0,0.40325967,-0.25088094,9.780511140000002,0.002427,0.000153,0.003777
12.490743000002112,12.490743000002112,0.0,0.0,1.9722527265830134,0.0,0.0,0.40236696,-0.25147935,9.77960862,0.002271,0.000134,0.003486
12.490743000002112,12.490743000002112,0.0,0.0,1.97224983514245,0.0,0.0,0.40236696,-0.25147935,9.77960862,0.002271,0.000134,0.003486
12.530713999993168,12.530713999993168,0.0,0.0,1.97239916749266,0.0,0.0,0.40086603,-0.26135802,9.77960862,0.002402,-0.000238,0.003849
12.530713999993168,12.530713999993168,0.0,0.0,1.9724022022966459,0.0,0.0,0.40086603,-0.26135802,9.77960862,0.002402,-0.000238,0.003849
12.570684000034817,12.570684000034817,0.0,0.0,1.9725864374012847,0.0,0.0,0.39952206,-0.25776756,9.78440571,0.003116,0.000619,0.005679
12.590668999997433,12.590668999997433,0.0,0.0,1.9726873661339859,0.0,0.0,0.40864536,-0.25581537,9.77751909,0.004346,0.001448,0.005146
12.610654000018258,12.610654000018258,0.0,0.0,1.9727575862159785,0.0,0.0,0.39816828,-0.25312743,9.77437008,0.003123,0.000105,0.003454
12.630639000039082,12.630639000039082,0.0,0.0,1.9728335968834383,0.0,0.0,0.41598324,-0.25207776,9.77362452,0.002898,0.000669,0.003779
12.650625000009313,12.650625000009313,0.0,0.0,1.972926644451971,0.0,0.0,0.40655583,-0.25597233,9.77257485,0.00392,0.000416,0.004726
12.670610000030138,12.670610000030138,0.0,0.0,1.97299304471131,0.0,0.0,0.39742272,-0.26030835,9.77377167,0.003213,0.000444,0.003234
12.690594999992754,12.690594999992754,0.0,0.0,1.973065966702877,0.0,0.0,0.4078998,-0.2427975,9.79428438,0.003675,-0.000795,0.003609
12.710580000013579,12.710580000013579,0.0,0.0,1.973119568943341,0.0,0.0,0.41463927,-0.25506981,9.78156081,0.003047,-0.000296,0.002529
12.730565000034403,12.730565000034403,0.0,0.0,1.973179011886308,0.0,0.0,0.40385808,-0.24653511,9.77287896,0.004116,-0.001584,0.002877
12.75054999999702,12.75054999999702,0.0,0.0,1.973253422838206,0.0,0.0,0.4053590099999999,-0.24952716,9.77677353,0.003536,-0.001723,0.003735
12.770535000017844,12.770535000017844,0.0,0.0,1.9733290084649253,0.0,0.0,0.40340682,-0.26360451,9.77587101,0.002007,-0.001054,0.0038
12.790521000046283,12.790521000046283,0.0,0.0,1.9734217298294743,0.0,0.0,0.4050549,-0.2513322,9.76883724,0.004326,-0.001192,0.00477
12.8105060000089,12.8105060000089,0.0,0.0,1.9734859391204678,0.0,0.0,0.40999914,-0.2516265,9.78036399,0.004256,-0.000116,0.003131
12.830491000029724,12.830491000029724,0.0,0.0,1.973566398585132,0.0,0.0,0.3962259,-0.25267617,9.77168214,0.00286,-0.00083,0.004068
12.85047599999234,12.85047599999234,0.0,0.0,1.973632675333075,0.0,0.0,0.40521186,-0.25492266,9.764795520000002,0.001484,0.000993,0.003253
12.89044600003399,12.89044600003399,0.0,0.0,1.9737751207513785,0.0,0.0,0.39472497,-0.2576106,9.78290478,0.001434,0.00031,0.00342
12.89044600003399,12.89044600003399,0.0,0.0,1.9737710635099335,0.0,0.0,0.39472497,-0.2576106,9.78290478,0.001434,0.00031,0.00342
12.930417000025045,12.930417000025045,0.0,0.0,1.9739152574556655,0.0,0.0,0.39952206,-0.26150517,9.77991273,0.001442,0.001398,0.003584
12.95040200004587,12.95040200004587,0.0,0.0,1.9739757216611595,0.0,0.0,0.40221,-0.2547657,9.78110955,0.003873,0.000657,0.002985
12.970387000008486,12.970387000008486,0.0,0.0,1.974054636947681,0.0,0.0,0.4090966200000001,-0.25820901,9.77228055,0.004128,-3.6e-05,0.003981
12.99037200002931,12.99037200002931,0.0,0.0,1.9741377976247332,0.0,0.0,0.40117014,-0.25985709,9.78964425,0.004096,-1.1e-05,0.00421
13.010356999991927,13.010356999991927,0.0,0.0,1.9741785848761308,0.0,0.0,0.39772683,-0.26704782,9.77003406,0.003683,0.001141,0.001887
13.030342000012752,13.030342000012752,0.0,0.0,1.9742776245688916,0.0,0.0,0.39742272,-0.25282332,9.78021684,0.00391,0.000148,0.005109
13.050327000033576,13.050327000033576,0.0,0.0,1.9743405176618154,0.0,0.0,0.38964339,-0.24548544,9.7610481,0.001565,-0.0006,0.003092
13.070311999996193,13.070311999996193,0.0,0.0,1.974431960528233,0.0,0.0,0.39502908,-0.26989272,9.78560253,0.002847,0.001425,0.004687
13.090298000024632,13.090298000024632,0.0,0.0,1.9745236299202507,0.0,0.0,0.40999914,-0.25387299,9.77781339,0.002847,0.001425,0.004687
13.110283000045456,13.110283000045456,0.0,0.0,1.9746008051201445,0.0,0.0,0.4104504,-0.25746345,9.763893,0.003063,-0.000316,0.003862
13.130268000008073,13.130268000008073,0.0,0.0,1.9746875354419853,0.0,0.0,0.38784816,-0.26569404,9.75776175,0.002777,-0.001038,0.0044
13.150253000028897,13.150253000028897,0.0,0.0,1.9747661315549117,0.0,0.0,0.39368511,-0.25866027,9.76898439,0.002254,-0.000713,0.003933
13.170237999991514,13.170237999991514,0.0,0.0,1.9748322594201309,0.0,0.0,0.39502908,-0.2544714,9.7755669,0.001551,-0.001474,0.003227
13.190223000012338,13.190223000012338,0.0,0.0,1.9749201692668024,0.0,0.0,0.40670298,-0.25521696,9.77077962,0.003128,-0.000667,0.004474
13.210208000033163,13.210208000033163,0.0,0.0,1.9750069921049054,0.0,0.0,0.39742272,-0.2633004,9.77632227,0.003567,0.001293,0.004402
13.230194000003394,13.230194000003394,0.0,0.0,1.9750726273767558,0.0,0.0,0.40311252,-0.27003987,9.77467419,0.002116,0.000936,0.003187
13.250179000024218,13.250179000024218,0.0,0.0,1.97512575044487,0.0,0.0,0.41059755,-0.25416729,9.77287896,0.002077,0.001653,0.002487
13.270164000045042,13.270164000045042,0.0,0.0,1.9752295698825773,0.0,0.0,0.40266126,-0.2576106,9.76314744,0.001698,0.000457,0.005407
13.310134000028484,13.310134000028484,0.0,0.0,1.9753576611523282,0.0,0.0,0.39278259,-0.24129657,9.76943565,0.002967,0.000512,0.002447
13.3301189999911,13.3301189999911,0.0,0.0,1.9754385507085832,0.0,0.0,0.4104504,-0.25552107,9.77737194,0.002351,-0.000448,0.004062
13.350104000011925,13.350104000011925,0.0,0.0,1.9755145999676316,0.0,0.0,0.40490775,-0.25581537,9.78365034,0.00472,-0.000747,0.003808
13.370090000040364,13.370090000040364,0.0,0.0,1.9755672237367081,0.0,0.0,0.40356378,-0.26165232,9.77826465,0.003777,0.000813,0.002558
13.370090000040364,13.370090000040364,0.0,0.0,1.9755501031532372,0.0,0.0,0.40356378,-0.26165232,9.77826465,0.003777,0.000813,0.002558
13.410060000023805,13.410060000023805,0.0,0.0,1.975695806377308,0.0,0.0,0.39861954,-0.25237206,9.77137803,0.002931,-0.000787,0.00385
13.430045000044629,13.430045000044629,0.0,0.0,1.9757712846492321,0.0,0.0,0.40356378,-0.25402014,9.76988691,0.003285,-0.000808,0.003801
13.450030000007246,13.450030000007246,0.0,0.0,1.975844265765068,0.0,0.0,0.39682431,-0.25686504,9.76464837,0.002665,-0.001506,0.003661
13.47001500002807,13.47001500002807,0.0,0.0,1.9759255944690732,0.0,0.0,0.40251411,-0.26525259,9.77137803,0.003383,-0.000332,0.004123
13.490000000048894,13.490000000048894,0.0,0.0,1.9760043172211939,0.0,0.0,0.39996351,-0.23950134,9.77287896,0.003932,-0.000222,0.003972
13.509986000019126,13.509986000019126,0.0,0.0,1.976077266378561,0.0,0.0,0.42017211,-0.2430918,9.77677353,0.003258,-0.000857,0.003645
13.52997100003995,13.52997100003995,0.0,0.0,1.9761661572324751,0.0,0.0,0.40490775,-0.25207776,9.77362452,0.003054,-0.000218,0.004541
13.549956000002567,13.549956000002567,0.0,0.0,1.9762715656947378,0.0,0.0,0.3993651,-0.25940583,9.76044969,0.003335,-8.1e-05,0.00546
13.569941000023391,13.569941000023391,0.0,0.0,1.9763185588003003,0.0,0.0,0.38993769,-0.25327458,9.77182929,0.002118,0.000274,0.002136
13.589926000044215,13.589926000044215,0.0,0.0,1.9764052384519655,0.0,0.0,0.4076055,-0.25193061,9.76718916,0.002383,0.000967,0.004412
13.609911000006832,13.609911000006832,0.0,0.0,1.9765169162591967,0.0,0.0,0.40730139,-0.26989272,9.76943565,0.003059,0.000717,0.005821
13.629896000027657,13.629896000027657,0.0,0.0,1.9765490788294011,0.0,0.0,0.40400523,-0.26554689,9.77601816,0.002554,-0.000539,0.001267
13.649881999997888,13.649881999997888,0.0,0.0,1.9765804149817203,0.0,0.0,0.39772683,-0.25716915,9.7838073,0.002554,-0.000539,0.001267
13.649881999997888,13.649881999997888,0.0,0.0,1.9765471395350458,0.0,0.0,0.39772683,-0.25716915,9.7838073,0.002554,-0.000539,0.001267
13.669867000018712,13.669867000018712,0.0,0.0,1.9766109784812436,0.0,0.0,0.38664153,-0.2633004,9.780815250000002,0.005316,0.001098,0.003203
13.709837000002153,13.709837000002153,0.0,0.0,1.9767365505710508,0.0,0.0,0.39981636,-0.25851312,9.77721498,0.005214,-0.000796,0.003109
13.729822000022978,13.729822000022978,0.0,0.0,1.9768139891168213,0.0,0.0,0.3990708,-0.25851312,9.77901021,0.003671,-0.000947,0.00397
13.749807000043802,13.749807000043802,0.0,0.0,1.9768818232772327,0.0,0.0,0.40012047,-0.25342173,9.78964425,0.00337,0.000279,0.003411
13.769792000006419,13.769792000006419,0.0,0.0,1.976954025122435,0.0,0.0,0.40041477,-0.24833034,9.77766624,0.004306,-0.00084,0.003657
13.789778000034858,13.789778000034858,0.0,0.0,1.977046481501107,0.0,0.0,0.40012047,-0.25581537,9.77108373,0.003036,-0.000509,0.004804
13.829748000018299,13.829748000018299,0.0,0.0,1.9772293322693635,0.0,0.0,0.41014629,-0.25716915,9.77646942,0.002531,0.000274,0.005665
13.849733000039123,13.849733000039123,0.0,0.0,1.977317895594755,0.0,0.0,0.39397941,-0.24758478,9.768690090000002,0.002161,-0.00072,0.004454
13.86971800000174,13.86971800000174,0.0,0.0,1.977395170120543,0.0,0.0,0.40400523,-0.25851312,9.77826465,0.003158,-0.00174,0.003863
13.889703000022564,13.889703000022564,0.0,0.0,1.977485171188623,0.0,0.0,0.39832524,-0.25581537,9.7752726,0.004537,-0.000458,0.00454
13.909688000043388,13.909688000043388,0.0,0.0,1.9775582774527924,0.0,0.0,0.3962259,-0.25940583,9.7721334,0.002423,-0.000519,0.003632
13.92967400001362,13.92967400001362,0.0,0.0,1.9776440273495464,0.0,0.0,0.39712842,-0.24743763,9.78110955,0.003004,0.000745,0.004318
13.949659000034444,13.949659000034444,0.0,0.0,1.9777273321626936,0.0,0.0,0.39772683,-0.25970994,9.76568823,0.002784,0.000214,0.004183
13.96964399999706,13.96964399999706,0.0,0.0,1.9777836253887555,0.0,0.0,0.39218418,-0.25985709,9.77766624,0.003003,4.8e-05,0.002697
13.989629000017885,13.989629000017885,0.0,0.0,1.9778520915769917,0.0,0.0,0.39383226,-0.25222491,9.768533130000002,0.004222,0.000694,0.003381
14.00961400003871,14.00961400003871,0.0,0.0,1.9779297237366826,0.0,0.0,0.40371093,-0.25297047,9.77377167,0.002727,0.000399,0.003895
14.029599000001326,14.029599000001326,0.0,0.0,1.9780192498792433,0.0,0.0,0.40325967,-0.24803604,9.78141366,0.005215,0.000181,0.004558
14.04958400002215,14.04958400002215,0.0,0.0,1.9781106670648327,0.0,0.0,0.4047606,-0.25102809,9.77991273,0.003654,-0.000395,0.004655
14.069569999992382,14.069569999992382,0.0,0.0,1.978163867477555,0.0,0.0,0.40595742,-0.2661453,9.78036399,0.004172,-0.001092,0.002495
14.089555000013206,14.089555000013206,0.0,0.0,1.9782523475817992,0.0,0.0,0.39517623,-0.24938001,9.7721334,0.003296,-0.001582,0.004507
14.10954000003403,14.10954000003403,0.0,0.0,1.9783516655296705,0.0,0.0,0.39772683,-0.25117524,9.77317326,0.004158,-0.000921,0.00511
14.129524999996647,14.129524999996647,0.0,0.0,1.978429888432327,0.0,0.0,0.40700709,-0.24892875,9.77228055,0.003266,0.00121,0.003895
14.149510000017472,14.149510000017472,0.0,0.0,1.9785180247448562,0.0,0.0,0.39772683,-0.25657074,9.7838073,0.001518,-0.001997,0.004461
14.169495000038296,14.169495000038296,0.0,0.0,1.978594516174688,0.0,0.0,0.40280841,-0.25312743,9.77392863,0.00309,-0.000326,0.003791
14.189480000000913,14.189480000000913,0.0,0.0,1.978691786220864,0.0,0.0,0.40985199,-0.26554689,9.7755669,0.002397,-0.000785,0.004981
14.209466000029352,14.209466000029352,0.0,0.0,1.978785751218176,0.0,0.0,0.41164722,-0.24908571,9.77347737,0.002527,-0.001322,0.004776
14.229450999991968,14.229450999991968,0.0,0.0,1.9788516142642063,0.0,0.0,0.39892365,-0.265851,9.78305193,0.003423,-0.000435,0.003159
14.249436000012793,14.249436000012793,0.0,0.0,1.9789310081797034,0.0,0.0,0.41119596,-0.24743763,9.76838598,0.003803,-0.000175,0.003953
14.269421000033617,14.269421000033617,0.0,0.0,1.9790331164675203,0.0,0.0,0.40251411,-0.26135802,9.77257485,0.004697,0.000787,0.005257
14.289405999996234,14.289405999996234,0.0,0.0,1.9791125572202777,0.0,0.0,0.40325967,-0.25356888,9.77677353,0.003233,0.000133,0.003936
14.329376000037882,14.329376000037882,0.0,0.0,1.9792726696654341,0.0,0.0,0.3990708,-0.25880742,9.78021684,0.003522,4.8e-05,0.003797
14.349362000008114,14.349362000008114,0.0,0.0,1.979348854316651,0.0,0.0,0.4104504,-0.2573163,9.7721334,0.003522,4.8e-05,0.003797
14.369347000028938,14.369347000028938,0.0,0.0,1.9794348498086567,0.0,0.0,0.40461345,-0.26389881,9.77018121,0.004991,0.000473,0.004315
14.389331999991555,14.389331999991555,0.0,0.0,1.9795329639146786,0.0,0.0,0.39218418,-0.25506981,9.78021684,0.004094,-0.001017,0.004963
14.40931700001238,14.40931700001238,0.0,0.0,1.9796377384206583,0.0,0.0,0.39428352,-0.25776756,9.77856876,0.005497,1.5e-05,0.005321
14.429302000033204,14.429302000033204,0.0,0.0,1.9797250641659847,0.0,0.0,0.39832524,-0.25581537,9.77692068,0.003474,0.00115,0.004368
14.44928699999582,14.44928699999582,0.0,0.0,1.9797979293153887,0.0,0.0,0.4128440400000001,-0.2650956299999999,9.7695828,0.003111,-0.00115,0.003576
14.469272000016645,14.469272000016645,0.0,0.0,1.9798654079341267,0.0,0.0,0.39921795,-0.25072398,9.77467419,0.003708,-8.6e-05,0.003285
14.489258000045083,14.489258000045083,0.0,0.0,1.979970202725121,0.0,0.0,0.39996351,-0.25866027,9.77302611,0.00441,-0.000664,0.005362
14.5092430000077,14.5092430000077,0.0,0.0,1.980061284846867,0.0,0.0,0.39787398,-0.25686504,9.76419711,0.00316,-0.002723,0.004586
14.529228000028525,14.529228000028525,0.0,0.0,1.9801629346460121,0.0,0.0,0.40176855,-0.24923286,9.78739776,0.003178,0.0008,0.005174
14.549212999991141,14.549212999991141,0.0,0.0,1.9802534244756984,0.0,0.0,0.4090966200000001,-0.26539974,9.76314744,0.003269,0.000134,0.004537
14.569198000011966,14.569198000011966,0.0,0.0,1.9803606895211763,0.0,0.0,0.4016115900000001,-0.24997842,9.77333022,0.003122,0.000182,0.005481
14.58918300003279,14.58918300003279,0.0,0.0,1.9804483171872542,0.0,0.0,0.39443067,-0.25327458,9.7692885,0.000663,-0.000316,0.004357
14.609167999995407,14.609167999995407,0.0,0.0,1.980527425324416,0.0,0.0,0.40581027,-0.25147935,9.77496849,0.002837,-0.00025,0.003878
14.629154000023846,14.629154000023846,0.0,0.0,1.9806320131460922,0.0,0.0,0.39742272,-0.26150517,9.77063247,0.002913,0.000673,0.005335
14.64913900004467,14.64913900004467,0.0,0.0,1.9807203495887995,0.0,0.0,0.4016115900000001,-0.25657074,9.77916717,0.002626,0.000483,0.004397
14.669124000007287,14.669124000007287,0.0,0.0,1.9808166330276942,0.0,0.0,0.40700709,-0.26135802,9.7635987,0.00354,0.001046,0.004853
14.689109000028111,14.689109000028111,0.0,0.0,1.9809100060535698,0.0,0.0,0.40146444,-0.26674371,9.77422293,0.005172,0.001122,0.004682
14.709094000048935,14.709094000048935,0.0,0.0,1.9809639011049525,0.0,0.0,0.38979054,-0.26435007,9.780962400000002,0.00184,0.000887,0.002425
14.729079000011552,14.729079000011552,0.0,0.0,1.9810434462582975,0.0,0.0,0.40744854,-0.25461855,9.76209777,0.004919,-0.000515,0.003931
14.769050000002608,14.769050000002608,0.0,0.0,1.981214114352956,0.0,0.0,0.4104504,-0.2601612,9.77317326,0.004581,-0.000139,0.004267
14.769050000002608,14.769050000002608,0.0,0.0,1.9812140357274837,0.0,0.0,0.4104504,-0.2601612,9.77317326,0.004581,-0.000139,0.004267
14.809020000044256,14.809020000044256,0.0,0.0,1.9813812566746796,0.0,0.0,0.4019157,-0.25776756,9.77287896,0.002738,-0.001719,0.004086
14.829005000006873,14.829005000006873,0.0,0.0,1.9814576451633634,0.0,0.0,0.40640868,-0.26929431,9.76913154,0.003891,-0.000376,0.003793
14.848990000027698,14.848990000027698,0.0,0.0,1.9815488156270806,0.0,0.0,0.39697146,-0.25566822,9.76539393,0.001259,-0.00095,0.004592
14.868975000048522,14.868975000048522,0.0,0.0,1.9816382902828575,0.0,0.0,0.40445649,-0.26344755,9.77467419,0.003285,0.000318,0.004498
14.888960000011139,14.888960000011139,0.0,0.0,1.9817205294843605,0.0,0.0,0.40550616,-0.26989272,9.77077962,0.002543,-0.001024,0.0041
14.908946000039577,14.908946000039577,0.0,0.0,1.9818052703190974,0.0,0.0,0.39892365,-0.26270199,9.76300029,0.001203,-0.001218,0.004239
14.928931000002194,14.928931000002194,0.0,0.0,1.98187385933499,0.0,0.0,0.40461345,-0.25641378,9.76149936,0.001972,0.000237,0.003344
14.928931000002194,14.928931000002194,0.0,0.0,1.9818613953116317,0.0,0.0,0.40461345,-0.25641378,9.76149936,0.001972,0.000237,0.003344
14.928931000002194,14.928931000002194,0.0,0.0,1.9818515633573845,0.0,0.0,0.40461345,-0.25641378,9.76149936,0.001972,0.000237,0.003344
14.968901000043843,14.968901000043843,0.0,0.0,1.9819919488672575,0.0,0.0,0.39876669,-0.25282332,9.77377167,0.001375,0.001371,0.002846
15.008871000027284,15.008871000027284,0.0,0.0,1.9821483954904098,0.0,0.0,0.38874087,-0.2544714,9.7610481,0.004866,0.000483,0.004027
15.028856999997515,15.028856999997515,0.0,0.0,1.982199885392884,0.0,0.0,0.4107447,-0.26180928,9.77317326,0.004761,0.00048,0.002441
15.04884200001834,15.04884200001834,0.0,0.0,1.9822797601312923,0.0,0.0,0.39113451,-0.2630061,9.7866522,0.004924,0.000621,0.004035
15.068827000039164,15.068827000039164,0.0,0.0,1.982393235712224,0.0,0.0,0.40775265,-0.25880742,9.78485697,0.004725,0.000473,0.005906
15.08881200000178,15.08881200000178,0.0,0.0,1.9824849326137919,0.0,0.0,0.41942655,-0.26344755,9.78934014,0.003109,0.000407,0.004658
15.108797000022605,15.108797000022605,0.0,0.0,1.9825888828645333,0.0,0.0,0.40086603,-0.26150517,9.77407578,0.003059,0.000675,0.005338
15.12878200004343,15.12878200004343,0.0,0.0,1.9826637152036497,0.0,0.0,0.40430934,-0.2661453,9.77766624,0.002117,-0.000694,0.003679
15.148767000006046,15.148767000006046,0.0,0.0,1.9827450660477517,0.0,0.0,0.39548034,-0.25267617,9.78470001,0.0034,0.000328,0.004056
15.188737999997102,15.188737999997102,0.0,0.0,1.98294139208212,0.0,0.0,0.41089185,-0.26465418,9.77496849,0.003133,-0.000101,0.005685
15.208723000017926,15.208723000017926,0.0,0.0,1.983029281188191,0.0,0.0,0.39861954,-0.26629245,9.77287896,0.001536,-0.000708,0.004398
15.22870800003875,15.22870800003875,0.0,0.0,1.9831186956790923,0.0,0.0,0.39532338,-0.26195643,9.77751909,0.002777,0.000721,0.004478
15.248691999993753,15.248691999993753,0.0,0.0,1.9832196427203863,0.0,0.0,0.41134311,-0.24668226,9.792783450000002,0.002304,0.000105,0.00509
15.268677000014577,15.268677000014577,0.0,0.0,1.9832842585635966,0.0,0.0,0.39861954,-0.26225073,9.77287896,0.002865,-0.001393,0.003144
15.288662000035401,15.288662000035401,0.0,0.0,1.9833698070411536,0.0,0.0,0.39861954,-0.26225073,9.77587101,0.002569,-0.000441,0.004278
15.308648000005633,15.308648000005633,0.0,0.0,1.983447133813307,0.0,0.0,0.40176855,-0.25597233,9.77677353,0.002862,0.000245,0.00383
15.328633000026457,15.328633000026457,0.0,0.0,1.9835613521463484,0.0,0.0,0.39368511,-0.2576106,9.77182929,0.004965,0.001105,0.005857
15.348618000047281,15.348618000047281,0.0,0.0,1.9836560832933152,0.0,0.0,0.40236696,-0.24683922,9.77871591,0.004062,0.000153,0.004769
15.368603000009898,15.368603000009898,0.0,0.0,1.9837188471399472,0.0,0.0,0.41208867,-0.25820901,9.76345155,0.003437,-0.000515,0.002992
15.388588000030722,15.388588000030722,0.0,0.0,1.9837908863701479,0.0,0.0,0.38319822,-0.26344755,9.77706783,0.002533,-0.00021,0.003525
15.40857299999334,15.40857299999334,0.0,0.0,1.9838664434343336,0.0,0.0,0.4047606,-0.24833034,9.764942670000002,0.003821,0.001236,0.003731
15.428558000014164,15.428558000014164,0.0,0.0,1.9839606486943353,0.0,0.0,0.39996351,-0.26449722,9.77347737,0.00437,0.000142,0.004785
15.448544000042602,15.448544000042602,0.0,0.0,1.984035895367306,0.0,0.0,0.40954788,-0.24938001,9.77991273,0.002752,-0.001899,0.003707
15.46852900000522,15.46852900000522,0.0,0.0,1.984115923704672,0.0,0.0,0.40101318,-0.25282332,9.77751909,0.002947,-0.001965,0.003985
15.488514000026044,15.488514000026044,0.0,0.0,1.98422028913087,0.0,0.0,0.38993769,-0.26405577,9.77003406,0.002578,0.001619,0.005367
15.488514000026044,15.488514000026044,0.0,0.0,1.9842370045006525,0.0,0.0,0.38993769,-0.26405577,9.77003406,0.002578,0.001619,0.005367
15.488514000026044,15.488514000026044,0.0,0.0,1.9842502297975955,0.0,0.0,0.38993769,-0.26405577,9.77003406,0.002578,0.001619,0.005367
15.488514000026044,15.488514000026044,0.0,0.0,1.9842609547568353,0.0,0.0,0.38993769,-0.26405577,9.77003406,0.002578,0.001619,0.005367
15.488514000026044,15.488514000026044,0.0,0.0,1.9842698272009063,0.0,0.0,0.38993769,-0.26405577,9.77003406,0.002578,0.001619,0.005367
15.488514000026044,15.488514000026044,0.0,0.0,1.9842772889479257,0.0,0.0,0.38993769,-0.26405577,9.77003406,0.002578,0.001619,0.005367
15.488514000026044,15.488514000026044,0.0,0.0,1.9842836516667077,0.0,0.0,0.38993769,-0.26405577,9.77003406,0.002578,0.001619,0.005367
15.508499000046868,15.508499000046868,0.0,0.0,1.9843656862998076,0.0,0.0,0.4047606,-0.25657074,9.77467419,0.00376,-0.000287,0.003487
15.548469000030309,15.548469000030309,0.0,0.0,1.9845349897351445,0.0,0.0,0.41493357,-0.25701219,9.77766624,0.003362,-0.00075,0.003277
15.588440000021365,15.588440000021365,0.0,0.0,1.984720020476595,0.0,0.0,0.39098736,-0.25297047,9.77018121,0.002837,-0.000365,0.004848
15.628410000004806,15.628410000004806,0.0,0.0,1.984906060615086,0.0,0.0,0.39981636,-0.24743763,9.7841016,0.002839,0.000566,0.004798
15.688365000009071,15.688365000009071,0.0,0.0,1.9851214563135606,0.0,0.0,0.3905361,-0.25102809,9.77317326,0.001905,0.000951,0.001784
15.728336000000127,15.728336000000127,0.0,0.0,1.9852830603185776,0.0,0.0,0.39517623,-0.26360451,9.77871591,0.004116,0.000105,0.003997
15.768306000041775,15.768306000041775,0.0,0.0,1.9854579534816814,0.0,0.0,0.40581027,-0.2576106,9.77706783,0.004511,-0.000312,0.004551
15.788291000004392,15.788291000004392,0.0,0.0,1.9855182934843505,0.0,0.0,0.40101318,-0.2430918,9.77856876,0.00508,-0.000692,0.0032
15.808276000025216,15.808276000025216,0.0,0.0,1.9855750912865853,0.0,0.0,0.40296537,-0.2650956299999999,9.7667379,0.003769,0.000274,0.002986
15.82826100004604,15.82826100004604,0.0,0.0,1.9856553369343457,0.0,0.0,0.39472497,-0.24743763,9.76659075,0.003017,0.000747,0.004
15.848247000016272,15.848247000016272,0.0,0.0,1.9857280137502267,0.0,0.0,0.39203703,-0.26284914,9.77152518,0.002915,-0.00097,0.003652
15.868232000037096,15.868232000037096,0.0,0.0,1.985803545599511,0.0,0.0,0.40236696,-0.25566822,9.75865446,0.003229,-0.00105,0.003782
15.888216999999713,15.888216999999713,0.0,0.0,1.9859106713587558,0.0,0.0,0.3918898799999999,-0.25657074,9.77092677,0.002225,0.000438,0.00533
15.908202000020538,15.908202000020538,0.0,0.0,1.9860027647624232,0.0,0.0,0.40296537,-0.25836597,9.77706783,0.003033,-0.001408,0.004608
15.928187000041362,15.928187000041362,0.0,0.0,1.9861029389881768,0.0,0.0,0.39113451,-0.2601612,9.77856876,0.002517,0.000455,0.005028
15.948172000003979,15.948172000003979,0.0,0.0,1.9862019527678862,0.0,0.0,0.4076055,-0.2513322,9.7721334,0.002174,0.000863,0.004978
15.968157000024803,15.968157000024803,0.0,0.0,1.9862720284289885,0.0,0.0,0.40820391,-0.25117524,9.77377167,0.001999,0.000633,0.003467
15.988142999995034,15.988142999995034,0.0,0.0,1.9863605606292216,0.0,0.0,0.40371093,-0.26748927,9.77901021,0.003375,0.000876,0.004442
16.00812800001586,16.00812800001586,0.0,0.0,1.9864751924579513,0.0,0.0,0.41433516,-0.24818319,9.77572386,0.003044,0.001175,0.005841
16.028113000036683,16.028113000036683,0.0,0.0,1.9865291804717273,0.0,0.0,0.39952206,-0.25402014,9.76599234,0.003731,0.000951,0.002559
16.0480979999993,16.0480979999993,0.0,0.0,1.9866124211579983,0.0,0.0,0.38904498,-0.25521696,9.77677353,0.00309,0.001353,0.004161
16.068083000020124,16.068083000020124,0.0,0.0,1.986653000956033,0.0,0.0,0.40057173,-0.25791471,9.77976558,0.004168,0.000408,0.001819
16.08806800004095,16.08806800004095,0.0,0.0,1.9867319177838656,0.0,0.0,0.39457782,-0.26284914,9.77228055,0.00228,0.000365,0.003955
16.108053000003565,16.108053000003565,0.0,0.0,1.9868085410177105,0.0,0.0,0.39397941,-0.25372584,9.764491410000002,0.002163,0.000375,0.003827
16.128039000032004,16.128039000032004,0.0,0.0,1.9868758374850621,0.0,0.0,0.38979054,-0.26375166,9.7781175,0.004012,-0.00021,0.003307
16.14802399999462,16.14802399999462,0.0,0.0,1.986982176103992,0.0,0.0,0.39532338,-0.24608385,9.7721334,0.004626,0.000354,0.005502
16.168009000015445,16.168009000015445,0.0,0.0,1.9870723626854119,0.0,0.0,0.40026762,-0.26494848,9.75760479,0.00296,-0.001252,0.004572
16.207978999998886,16.207978999998886,0.0,0.0,1.987241389406135,0.0,0.0,0.3962259,-0.25387299,9.76823883,0.003253,-1.7e-05,0.004356
16.207978999998886,16.207978999998886,0.0,0.0,1.987245054680126,0.0,0.0,0.3962259,-0.25387299,9.76823883,0.003253,-1.7e-05,0.004356
16.22796400001971,16.22796400001971,0.0,0.0,1.9873413554893578,0.0,0.0,0.40730139,-0.25851312,9.780658290000002,0.003162,-0.001341,0.004925
16.24795000004815,16.24795000004815,0.0,0.0,1.9874189869227346,0.0,0.0,0.40430934,-0.25372584,9.77901021,0.00287,-0.00045,0.003822
16.28792000003159,16.28792000003159,0.0,0.0,1.9875979943196338,0.0,0.0,0.3930867,-0.27018702,9.77541975,0.001619,-0.000165,0.004772
16.307904999994207,16.307904999994207,0.0,0.0,1.9877032199522962,0.0,0.0,0.39742272,-0.26225073,9.77077962,0.001291,-9.5e-05,0.005321
16.32789000001503,16.32789000001503,0.0,0.0,1.987792585292909,0.0,0.0,0.39697146,-0.24428862,9.7695828,0.003176,-0.001272,0.004474
16.347875000035856,16.347875000035856,0.0,0.0,1.9878776319577245,0.0,0.0,0.40266126,-0.25611948,9.78859458,0.003326,0.001534,0.004241
16.367859999998473,16.367859999998473,0.0,0.0,1.9879463882917312,0.0,0.0,0.39428352,-0.24548544,9.78036399,0.004009,0.000318,0.003356
16.407831000047736,16.407831000047736,0.0,0.0,1.9880868275810624,0.0,0.0,0.40940073,-0.25626663,9.77632227,0.002144,4.6e-05,0.002777
16.407831000047736,16.407831000047736,0.0,0.0,1.9880644415843989,0.0,0.0,0.40940073,-0.25626663,9.77632227,0.002144,4.6e-05,0.002777
16.427816000010353,16.427816000010353,0.0,0.0,1.9881374160251601,0.0,0.0,0.39038895,-0.25057683,9.77692068,0.004651,-0.00029,0.00362
16.447801000031177,16.447801000031177,0.0,0.0,1.988212316876809,0.0,0.0,0.41389371,-0.25746345,9.77482134,0.00329,-0.001078,0.003734
16.487771000014618,16.487771000014618,0.0,0.0,1.9883572894657284,0.0,0.0,0.39143862,-0.26958861,9.78485697,0.003137,-0.001091,0.00341
16.507756000035442,16.507756000035442,0.0,0.0,1.9884532433360746,0.0,0.0,0.39352815,-0.25597233,9.77257485,0.003534,-0.00021,0.004844
16.527742000005674,16.527742000005674,0.0,0.0,1.9885562932858,0.0,0.0,0.39113451,-0.2604555,9.77092677,0.00315,-0.00101,0.005223
16.527742000005674,16.527742000005674,0.0,0.0,1.9885748882556822,0.0,0.0,0.39113451,-0.2604555,9.77092677,0.00315,-0.00101,0.005223
16.567712000047322,16.567712000047322,0.0,0.0,1.988771521881957,0.0,0.0,0.40086603,-0.27557271,9.77287896,0.001398,-0.001287,0.005704
16.58769700000994,16.58769700000994,0.0,0.0,1.9888502490452318,0.0,0.0,0.39816828,-0.25506981,9.7755669,0.004527,-0.000491,0.003895
16.607682000030763,16.607682000030763,0.0,0.0,1.98892279955008,0.0,0.0,0.39203703,-0.25207776,9.77362452,0.002432,0.000131,0.00356
16.62766699999338,16.62766699999338,0.0,0.0,1.9890250793234792,0.0,0.0,0.39832524,-0.25925868,9.76749327,0.001768,0.000427,0.005205
16.647652000014205,16.647652000014205,0.0,0.0,1.9890942606859898,0.0,0.0,0.40071888,-0.26121087,9.77182929,0.002735,-8.1e-05,0.003362
16.667638000042643,16.667638000042643,0.0,0.0,1.9891853064624136,0.0,0.0,0.40461345,-0.24729048,9.76764042,0.004901,0.000562,0.00459
16.68762300000526,16.68762300000526,0.0,0.0,1.989262309914828,0.0,0.0,0.39383226,-0.26420292,9.77587101,0.003652,-0.001381,0.003801
16.707608000026084,16.707608000026084,0.0,0.0,1.9893299581222958,0.0,0.0,0.4053590099999999,-0.25851312,9.78156081,0.003623,0.000661,0.003282
16.72759300004691,16.72759300004691,0.0,0.0,1.9894184743374854,0.0,0.0,0.40026762,-0.24803604,9.77960862,0.005304,-0.000164,0.00447
16.747578000009526,16.747578000009526,0.0,0.0,1.9894960530844301,0.0,0.0,0.39637305,-0.26344755,9.76972995,0.003196,0.000204,0.003847
16.76756300003035,16.76756300003035,0.0,0.0,1.9895617556166076,0.0,0.0,0.40999914,-0.25820901,9.77766624,0.001735,-0.000361,0.003179
16.787547999992967,16.787547999992967,0.0,0.0,1.9896273969598601,0.0,0.0,0.40086603,-0.25402014,9.77452704,0.003717,-0.000257,0.00319
16.807534000021406,16.807534000021406,0.0,0.0,1.989745729504012,0.0,0.0,0.40071888,-0.26764623,9.76659075,0.003951,-0.000647,0.006199
16.82751900004223,16.82751900004223,0.0,0.0,1.9898185445490109,0.0,0.0,0.3848463,-0.25416729,9.76749327,0.002741,-0.001863,0.003568
16.847504000004847,16.847504000004847,0.0,0.0,1.9898983439168108,0.0,0.0,0.39203703,-0.24908571,9.76749327,0.003684,0.000118,0.003977
16.86748900002567,16.86748900002567,0.0,0.0,1.9899822176382669,0.0,0.0,0.40804695,-0.24803604,9.76434426,0.001476,-0.001292,0.004212
16.887474000046495,16.887474000046495,0.0,0.0,1.990088336135181,0.0,0.0,0.40041477,-0.26225073,9.76764042,0.001694,0.000124,0.005482
16.927444000029936,16.927444000029936,0.0,0.0,1.99028501466465,0.0,0.0,0.4107447,-0.2513322,9.7781175,0.003433,-0.001091,0.005591
16.947430000000168,16.947430000000168,0.0,0.0,1.990390278670331,0.0,0.0,0.40461345,-0.25611948,9.77063247,0.002565,-0.000221,0.005301
16.947430000000168,16.947430000000168,0.0,0.0,1.9904020993093177,0.0,0.0,0.40461345,-0.25611948,9.77063247,0.002565,-0.000221,0.005301
16.967415000020992,16.967415000020992,0.0,0.0,1.9905043388356631,0.0,0.0,0.39682431,-0.25222491,9.76508982,0.00237,-0.001071,0.005197
17.007385000004433,17.007385000004433,0.0,0.0,1.9906868951847922,0.0,0.0,0.40266126,-0.2576106,9.77541975,0.004491,0.000421,0.004362
17.027370000025257,17.027370000025257,0.0,0.0,1.9907844215508668,0.0,0.0,0.40565331,-0.2430918,9.765246780000002,0.003802,-0.000274,0.004894
17.047355000046082,17.047355000046082,0.0,0.0,1.9908497739314477,0.0,0.0,0.40550616,-0.27363033,9.7692885,0.003292,-0.000294,0.003148
17.047355000046082,17.047355000046082,0.0,0.0,1.9908277947521427,0.0,0.0,0.40550616,-0.27363033,9.7692885,0.003292,-0.000294,0.003148
17.087326000037137,17.087326000037137,0.0,0.0,1.991003884567343,0.0,0.0,0.40985199,-0.24444558,9.7695828,0.004806,0.000778,0.004484
17.107310999999754,17.107310999999754,0.0,0.0,1.9910785579306118,0.0,0.0,0.39966921,-0.25252902,9.77482134,0.003791,-0.000584,0.003669
17.12729600002058,17.12729600002058,0.0,0.0,1.9911868835139899,0.0,0.0,0.3990708,-0.25521696,9.76464837,0.00455,-0.000566,0.005551
17.147281000041403,17.147281000041403,0.0,0.0,1.9912809634632334,0.0,0.0,0.38529756,-0.26210358,9.77706783,0.00334,-0.00054,0.004739
17.16726600000402,17.16726600000402,0.0,0.0,1.9913433069888384,0.0,0.0,0.40131729,-0.26061246,9.78574968,0.003757,-0.000824,0.002954
17.187251000024844,17.187251000024844,0.0,0.0,1.9914157969840751,0.0,0.0,0.39697146,-0.25312743,9.7838073,0.004453,-0.001149,0.003546
17.207236999995075,17.207236999995075,0.0,0.0,1.9915070565400033,0.0,0.0,0.39667716,-0.26360451,9.76195062,0.002862,-9.7e-05,0.004616
17.2272220000159,17.2272220000159,0.0,0.0,1.9915763274916642,0.0,0.0,0.40416219,-0.2630061,9.75940983,0.002925,-0.001231,0.003365
17.247207000036724,17.247207000036724,0.0,0.0,1.9916749371564695,0.0,0.0,0.40894947,-0.25671789,9.76568823,0.003438,-0.000106,0.005043
17.26719199999934,17.26719199999934,0.0,0.0,1.9917411039086819,0.0,0.0,0.40117014,-0.25791471,9.7752726,0.003602,-0.000327,0.003184
17.287177000020165,17.287177000020165,0.0,0.0,1.9918248584827278,0.0,0.0,0.40385808,-0.25701219,9.77152518,0.00214,-0.000116,0.004203
17.30716200004099,17.30716200004099,0.0,0.0,1.9919086427699781,0.0,0.0,0.39787398,-0.24608385,9.77377167,0.00214,-0.000116,0.004203
17.327147000003606,17.327147000003606,0.0,0.0,1.991976745621618,0.0,0.0,0.40985199,-0.2686959,9.78605379,0.003165,0.001484,0.003306
17.347133000032045,17.347133000032045,0.0,0.0,1.9920292066427692,0.0,0.0,0.40804695,-0.26150517,9.77512545,0.003227,-0.000234,0.002426
17.36711799999466,17.36711799999466,0.0,0.0,1.9921067450408358,0.0,0.0,0.39278259,-0.25866027,9.76209777,0.002842,-0.000286,0.00389
17.387103000015486,17.387103000015486,0.0,0.0,1.9921976467358071,0.0,0.0,0.40894947,-0.24743763,9.78230637,0.00488,0.00091,0.004654
17.40708800003631,17.40708800003631,0.0,0.0,1.99227254131217,0.0,0.0,0.40400523,-0.26121087,9.78934014,0.0036,0.000539,0.003721
17.44705800001975,17.44705800001975,0.0,0.0,1.9924266286119003,0.0,0.0,0.40101318,-0.24773193,9.77587101,0.004671,-0.001745,0.003805
17.44705800001975,17.44705800001975,0.0,0.0,1.992425226099268,0.0,0.0,0.40101318,-0.24773193,9.77587101,0.004671,-0.001745,0.003805
17.487029000010807,17.487029000010807,0.0,0.0,1.992562028611058,0.0,0.0,0.40236696,-0.27273762,9.77737194,0.003491,-0.000946,0.002913
17.487029000010807,17.487029000010807,0.0,0.0,1.9925484176470452,0.0,0.0,0.40236696,-0.27273762,9.77737194,0.003491,-0.000946,0.002913
17.50701400003163,17.50701400003163,0.0,0.0,1.992633580506448,0.0,0.0,0.39667716,-0.24578955,9.77572386,0.003017,-0.00065,0.00439
17.546984000015073,17.546984000015073,0.0,0.0,1.9928193813470223,0.0,0.0,0.39832524,-0.25581537,9.78440571,0.003094,-0.001521,0.005707
17.566969000035897,17.566969000035897,0.0,0.0,1.9928976120640778,0.0,0.0,0.4107447,-0.26344755,9.77108373,0.00098,0.000319,0.003906
17.586953999998514,17.586953999998514,0.0,0.0,1.9929825792435505,0.0,0.0,0.39443067,-0.25416729,9.77392863,0.001856,-0.000221,0.004275
17.606939000019338,17.606939000019338,0.0,0.0,1.9930561884335827,0.0,0.0,0.41104881,-0.26030835,9.77826465,0.001746,-3e-05,0.003648
17.626925000047777,17.626925000047777,0.0,0.0,1.9931482838868497,0.0,0.0,0.39502908,-0.25267617,9.7724277,0.00414,0.00173,0.004674
17.626925000047777,17.626925000047777,0.0,0.0,1.9931577848198563,0.0,0.0,0.39502908,-0.25267617,9.7724277,0.00414,0.00173,0.004674
17.646910000010394,17.646910000010394,0.0,0.0,1.9932368120020998,0.0,0.0,0.40804695,-0.25028253,9.78275763,0.002122,-0.00086,0.003907
17.686879999993835,17.686879999993835,0.0,0.0,1.9934047263457462,0.0,0.0,0.40999914,-0.25836597,9.7695828,0.00337,0.000187,0.004301
17.70686500001466,17.70686500001466,0.0,0.0,1.9934819438297415,0.0,0.0,0.40117014,-0.26913735,9.75102228,0.003743,0.000347,0.003832
17.726850000035483,17.726850000035483,0.0,0.0,1.9935470210755355,0.0,0.0,0.39727557,-0.26284914,9.77003406,0.00322,-0.000489,0.003157
17.7468349999981,17.7468349999981,0.0,0.0,1.993626848747434,0.0,0.0,0.40416219,-0.25297047,9.77960862,0.004045,0.001093,0.003997
17.76682100002654,17.76682100002654,0.0,0.0,1.9937235998064207,0.0,0.0,0.4019157,-0.26405577,9.77168214,0.003635,0.000899,0.004949
17.80679100000998,17.80679100000998,0.0,0.0,1.9938891280274555,0.0,0.0,0.40251411,-0.26554689,9.77437008,0.004793,-0.000288,0.004177
17.826776000030804,17.826776000030804,0.0,0.0,1.9939715808993235,0.0,0.0,0.40041477,-0.24683922,9.78919299,0.003628,0.000604,0.004126
17.84676099999342,17.84676099999342,0.0,0.0,1.9940561568639064,0.0,0.0,0.40041477,-0.25432425,9.78455286,0.005087,-0.000562,0.004237
17.84676099999342,17.84676099999342,0.0,0.0,1.9940578665473652,0.0,0.0,0.40041477,-0.25432425,9.78455286,0.005087,-0.000562,0.004237
17.88673100003507,17.88673100003507,0.0,0.0,1.9942213410916576,0.0,0.0,0.41449212,-0.23531247,9.76704201,0.002306,-0.002632,0.004024
17.9067170000053,17.9067170000053,0.0,0.0,1.9942927839354834,0.0,0.0,0.39488193,-0.2630061,9.78230637,0.002484,-0.000849,0.00353
17.926702000026125,17.926702000026125,0.0,0.0,1.9943703225433822,0.0,0.0,0.4132953,-0.2573163,9.77077962,0.002463,0.000145,0.003865
17.94668700004695,17.94668700004695,0.0,0.0,1.9944456341044923,0.0,0.0,0.40206285,-0.25492266,9.77976558,0.004236,-0.001177,0.003744
17.966672000009567,17.966672000009567,0.0,0.0,1.9945187313411452,0.0,0.0,0.40715424,-0.26689086,9.77197644,0.002459,-0.000564,0.003624
17.98665700003039,17.98665700003039,0.0,0.0,1.9946128409517208,0.0,0.0,0.40880232,-0.2513322,9.78021684,0.002833,-0.000871,0.004793
18.006641999993008,18.006641999993008,0.0,0.0,1.9946898168825538,0.0,0.0,0.40430934,-0.25312743,9.7695828,0.00293,-2.2e-05,0.003829
18.026627000013832,18.026627000013832,0.0,0.0,1.9947845952816783,0.0,0.0,0.40655583,-0.25896438,9.76733631,0.003136,0.000862,0.004828
18.04661300004227,18.04661300004227,0.0,0.0,1.9948684335999545,0.0,0.0,0.39742272,-0.27003987,9.76568823,0.003099,0.001956,0.004203
18.066598000004888,18.066598000004888,0.0,0.0,1.9949511678148717,0.0,0.0,0.40835106,-0.25925868,9.780511140000002,0.004042,-0.000952,0.00414
18.086583000025712,18.086583000025712,0.0,0.0,1.9950217647117565,0.0,0.0,0.39787398,-0.26180928,9.77901021,0.004702,0.00144,0.003454
18.106568000046536,18.106568000046536,0.0,0.0,1.9951075530411426,0.0,0.0,0.38185425,-0.27228636,9.77632227,0.00406,-0.000644,0.004325
18.126553000009153,18.126553000009153,0.0,0.0,1.9951620696118475,0.0,0.0,0.39952206,-0.26075961,9.77063247,0.00432,-0.001114,0.002545
18.146538000029977,18.146538000029977,0.0,0.0,1.9952229158827919,0.0,0.0,0.40026762,-0.2456424,9.76659075,0.004483,-0.00145,0.00293
18.166522999992594,18.166522999992594,0.0,0.0,1.9952968736182521,0.0,0.0,0.39921795,-0.26689086,9.76539393,0.003412,-0.00025,0.003693
18.206494000041857,18.206494000041857,0.0,0.0,1.9954459553777637,0.0,0.0,0.40251411,-0.26090676,9.77302611,0.003217,-0.001629,0.003711
18.226479000004474,18.226479000004474,0.0,0.0,1.9955214691648893,0.0,0.0,0.39772683,-0.2624076899999999,9.76568823,0.0025,-0.00103,0.00378
18.2464640000253,18.2464640000253,0.0,0.0,1.995608589299878,0.0,0.0,0.40221,-0.25237206,9.76240188,0.00227,-0.001055,0.004392
18.2464640000253,18.2464640000253,0.0,0.0,1.9956178107401374,0.0,0.0,0.40221,-0.25237206,9.76240188,0.00227,-0.001055,0.004392
18.28643400000874,18.28643400000874,0.0,0.0,1.995804417231004,0.0,0.0,0.39756987,-0.24339591,9.76898439,0.002135,0.00017,0.005551
18.306419000029564,18.306419000029564,0.0,0.0,1.9958776054734546,0.0,0.0,0.40101318,-0.25312743,9.77168214,0.002825,-0.000656,0.003621
18.326404999999795,18.326404999999795,0.0,0.0,1.9959866243820592,0.0,0.0,0.39607875,-0.25432425,9.76749327,0.002456,-0.000236,0.005586
18.34639000002062,18.34639000002062,0.0,0.0,1.9960677181594804,0.0,0.0,0.39876669,-0.24144372,9.78230637,0.002572,0.000538,0.004036
18.366375000041444,18.366375000041444,0.0,0.0,1.9961576901601727,0.0,0.0,0.39637305,-0.25626663,9.77692068,0.003679,-9.9e-05,0.00453
18.38636000000406,18.38636000000406,0.0,0.0,1.9962356625782993,0.0,0.0,0.39996351,-0.25806186,9.76060665,0.003693,-0.000987,0.003859
18.406345000024885,18.406345000024885,0.0,0.0,1.9962931236055539,0.0,0.0,0.3924882900000001,-0.26375166,9.77931432,0.002309,0.000321,0.002717
18.42633000004571,18.42633000004571,0.0,0.0,1.996372132542291,0.0,0.0,0.38560167,-0.26375166,9.75356307,0.004211,-6.1e-05,0.003945
18.446315000008326,18.446315000008326,0.0,0.0,1.9964688823058827,0.0,0.0,0.4090966200000001,-0.25716915,9.77317326,0.004225,0.001131,0.004945
18.466301000036765,18.466301000036765,0.0,0.0,1.9965389543232437,0.0,0.0,0.39802113,-0.24968412,9.78365034,0.003151,-0.000988,0.003425
18.48628599999938,18.48628599999938,0.0,0.0,1.996603307757379,0.0,0.0,0.41104881,-0.2576106,9.77048532,0.003717,0.001502,0.003112
18.506271000020206,18.506271000020206,0.0,0.0,1.9966789854286073,0.0,0.0,0.39682431,-0.25461855,9.79143948,0.004176,-0.002088,0.003769
18.52625600004103,18.52625600004103,0.0,0.0,1.9967389329488476,0.0,0.0,0.3962259,-0.25611948,9.76793472,0.004244,-0.000396,0.002877
18.546241000003647,18.546241000003647,0.0,0.0,1.9968186164014003,0.0,0.0,0.39952206,-0.26525259,9.7781175,0.003479,-0.000836,0.004018
18.56622600002447,18.56622600002447,0.0,0.0,1.9968854729179037,0.0,0.0,0.4076055,-0.26719497,9.76404996,0.002919,-0.001559,0.003282
18.606197000015527,18.606197000015527,0.0,0.0,1.9970263854775974,0.0,0.0,0.40849821,-0.25012557,9.78230637,0.002912,-0.001455,0.00331
