timestamp,accel_x,accel_y,accel_z,gyro_x,gyro_y,gyro_z,mag_x,mag_y,mag_z,gps_lat,gps_lon,gps_alt,gps_accuracy,gps_speed,gps_course,pressure,altitude,roll,pitch,yaw
831169.355441,-9.44715753,-0.16930098,-2.76924528,-0.004538,0.001869,0.002634,-122.117096,94.434753,-192.978745,60.187689,24.830135,12.099435,15.077761,-1.0,-1.0,100.570145,0.338219,-1.281396,0.013304,-1.311767
831169.415395,-9.436974750000001,-0.16525926000000002,-2.7520287299999997,-0.001473,0.003288,0.002229,-121.934998,94.45784,-192.928513,60.187689,24.830135,12.099435,15.077761,-1.0,-1.0,100.570145,0.338219,-1.281423,0.013293,-1.311773
831169.43538,-9.38578617,-0.12169305,-2.85351318,0.007921,-0.006021,0.0056,-122.044769,94.564041,-192.913132,60.187689,24.830135,12.099435,15.077761,-1.0,-1.0,100.570145,0.338219,-1.281426,0.013311,-1.311832
831169.455365,-9.43458111,-0.11975067000000002,-2.7849608999999997,0.000197,0.005352,0.00347,-122.103561,94.41362,-192.995605,60.187689,24.830135,12.099435,15.077761,-1.0,-1.0,100.570145,0.338219,-1.281444,0.013286,-1.311789
831169.475349,-9.45089514,-0.14265702,-2.79228897,0.004341,-0.005573,0.00401,-122.246567,94.346497,-192.699432,60.187689,24.830135,12.099435,15.077761,-1.0,-1.0,100.570145,0.338219,-1.281442,0.01329,-1.311812
831169.495334,-9.38832696,-0.12020193000000001,-2.83181346,0.005331,0.001739,0.005246,-122.126038,94.295395,-192.888428,60.187689,24.830135,12.099435,15.077761,-1.0,-1.0,100.570145,0.338219,-1.281443,0.013287,-1.311816
831169.535304,-9.449247060000001,-0.11480643,-2.7937899,0.007948,-0.00132,0.004951,-122.085052,94.375534,-192.693329,60.187689,24.830135,12.099435,15.077761,-1.0,-1.0,100.570145,0.338219,-1.281457,0.013269,-1.311802
831169.555288,-9.39820563,-0.15492933000000003,-2.8171377,-0.000941,0.001639,0.005543,-122.062744,94.305161,-192.666504,60.187689,24.830135,12.099435,15.077761,-1.0,-1.0,100.570145,0.338219,-1.281435,0.013272,-1.311782
831169.575273,-9.42410403,-0.13082616000000002,-2.80217745,0.005563,-0.002731,0.004083,-122.1651,94.278046,-192.779846,60.187689,24.830135,12.099435,15.077761,-1.0,-1.0,100.570145,0.338219,-1.28145,0.013275,-1.311795
831169.595258,-9.4425174,-0.12469491,-2.8003724100000005,0.004266,0.002085,0.003645,-122.065628,94.309357,-192.425812,60.187689,24.830135,12.099435,15.077761,-1.0,-1.0,100.570145,0.338219,-1.281456,0.013285,-1.311786
831169.615242,-9.40074642,-0.15387966,-2.82387717,0.000652,0.001477,0.003966,-122.263138,94.340561,-192.615341,60.187689,24.830135,12.099435,15.077761,-1.0,-1.0,100.570145,0.338219,-1.281426,0.013292,-1.311755
831169.635227,-9.41527503,-0.13053186,-2.82686922,0.007166,-0.004393,0.004788,-122.08139,94.419144,-192.756149,60.187689,24.830135,12.099435,15.077761,-1.0,-1.0,100.570145,0.338219,-1.281443,0.013304,-1.311778
831169.655212,-9.457183350000001,-0.13247424000000002,-2.78914977,-0.001578,0.005257,0.003929,-122.197159,94.289322,-192.726501,60.187689,24.830135,12.099435,15.077761,-1.0,-1.0,100.570145,0.338219,-1.281449,0.013309,-1.311759
831169.675197,-9.42425118,-0.14490351,-2.8129488300000003,0.005548,-0.005091,0.002521,-122.187164,94.422745,-192.690979,60.187689,24.830135,12.099435,15.077761,-1.0,-1.0,100.570145,0.338219,-1.28142,0.013307,-1.311777
831169.695181,-9.418414230000002,-0.13262139,-2.8089071100000003,0.003657,0.002843,0.005096,-122.178986,94.490005,-192.838089,60.187689,24.830135,12.099435,15.077761,-1.0,-1.0,100.570145,0.338219,-1.281435,0.013318,-1.31178
831169.695181,-9.418414230000002,-0.13262139,-2.8089071100000003,0.003657,0.002843,0.005096,-122.178986,94.490005,-192.838089,60.187689,24.830135,12.099435,15.077761,-1.0,-1.0,100.570145,0.338219,-1.281435,0.013318,-1.31178
831169.735151,-9.40703463,-0.12783411,-2.8130959800000004,0.007536,-0.001822,0.00381,-121.941635,94.305038,-192.532135,60.187689,24.830135,12.099435,15.077761,-1.0,-1.0,100.570145,0.338219,-1.281418,0.013298,-1.311781
831169.755136,-9.42680178,-0.14309847,-2.81235042,3.8e-05,0.003306,0.005077,-121.989578,94.415146,-192.613281,60.187689,24.830135,12.099435,15.077761,-1.0,-1.0,100.570145,0.338219,-1.281414,0.013303,-1.311753
831169.77512,-9.43922124,-0.14519781,-2.79124911,0.004955,-0.002672,0.003417,-121.938675,94.487289,-192.690247,60.187689,24.830135,12.099435,15.077761,-1.0,-1.0,100.570145,0.338219,-1.281414,0.013305,-1.31175
831169.795105,-9.417511710000001,-0.11810259,-2.8178930699999998,0.00347,0.001459,0.005916,-122.044357,94.4478,-192.706375,60.187689,24.830135,12.099435,15.077761,-1.0,-1.0,100.570145,0.338219,-1.281422,0.013317,-1.311758
831169.81509,-9.41602059,-0.14669874000000002,-2.81354724,0.001614,0.001142,0.005808,-122.256638,94.496628,-192.50769,60.187689,24.830135,12.099435,15.077761,-1.0,-1.0,100.570145,0.338219,-1.281413,0.013334,-1.311741
831169.835075,-9.441320580000001,-0.13785993,-2.7970860600000003,0.007923,-0.003773,0.004924,-122.012344,94.557602,-192.756088,60.187689,24.830135,12.099435,15.077761,-1.0,-1.0,100.570145,0.338219,-1.281401,0.013339,-1.311748
831169.855059,-9.41571648,-0.12888378,-2.8053166500000004,-0.001916,0.004473,0.003408,-121.940308,94.30101,-192.409103,60.187689,24.830135,12.099435,15.077761,-1.0,-1.0,100.570145,0.338219,-1.281396,0.013333,-1.311734
831169.875044,-9.41257728,-0.13965516,-2.8219347900000002,0.007136,-0.004133,0.005268,-122.122879,94.369339,-192.586334,60.187689,24.830135,12.099435,15.077761,-1.0,-1.0,100.570145,0.338219,-1.281398,0.013341,-1.311751
831169.895029,-9.449698320000001,-0.1417545,-2.80471824,0.002525,0.001298,0.004132,-122.056656,94.502548,-192.828201,60.187689,24.830135,12.099435,15.077761,-1.0,-1.0,100.570145,0.338219,-1.281395,0.013327,-1.311733
831169.915014,-9.42455529,-0.12513636,-2.8080144000000002,0.001865,0.000575,0.003184,-122.056656,94.502548,-192.828201,60.187689,24.830135,12.099435,15.077761,-1.0,-1.0,100.570145,0.338219,-1.281368,0.013339,-1.311731
831169.934998,-9.4137741,-0.11960352,-2.82717333,0.008396,-0.004957,0.002846,-121.916229,94.439911,-192.876877,60.187689,24.830135,12.099435,15.077761,-1.0,-1.0,100.570145,0.338219,-1.28138,0.013328,-1.311752
831169.954983,-9.42410403,-0.13397517,-2.80217745,-0.002995,0.003573,0.002353,-121.914474,94.403168,-192.455139,60.187689,24.830135,12.099435,15.077761,-1.0,-1.0,100.570145,0.338219,-1.281367,0.013335,-1.311732
831169.974968,-9.42589926,-0.12618603,-2.80307016,0.006215,-0.002497,0.004117,-121.916443,94.357468,-192.77121,60.187689,24.830135,12.099435,15.077761,-1.0,-1.0,100.570145,0.338219,-1.281348,0.013332,-1.311759
831169.994953,-9.42320151,-0.13172868000000001,-2.81624499,0.002914,-0.000206,0.00265,-121.945114,94.394791,-192.916916,60.187689,24.830135,12.099435,15.077761,-1.0,-1.0,100.570145,0.338219,-1.281355,0.013338,-1.311746
831170.014936,-9.43772031,-0.13801689,-2.79678195,0.002914,-0.000206,0.00265,-121.799942,94.352417,-192.842957,60.187689,24.830135,12.099435,15.077761,-1.0,-1.0,100.570145,0.338219,-1.281361,0.01336,-1.311752
831170.034922,-9.425448000000001,-0.14295132,-2.8231316100000003,0.001875,0.000675,0.004357,-121.823502,94.223846,-192.705307,60.187689,24.830135,12.099435,15.077761,-1.0,-1.0,100.570145,0.338219,-1.281345,0.013365,-1.311767
831170.054907,-9.42276006,-0.13412232000000002,-2.8116048600000005,0.000289,0.003318,0.003773,-121.973145,94.175644,-193.047836,60.187689,24.830135,12.099435,15.077761,-1.0,-1.0,100.570145,0.338219,-1.28136,0.013376,-1.311752
831170.074891,-9.43188336,-0.13501503,-2.80785744,0.006202,-0.003368,0.004207,-121.96257,94.22171,-192.778244,60.187689,24.830135,12.099435,15.077761,-1.0,-1.0,100.570145,0.338219,-1.281356,0.013357,-1.311738
831170.094876,-9.41931675,-0.13097331,-2.80965267,0.002508,0.001192,0.003853,-121.859802,94.11792,-192.656296,60.187689,24.830135,12.099435,15.077761,-1.0,-1.0,100.570145,0.338219,-1.281373,0.013369,-1.311735
831170.134846,-9.43204032,-0.12813822000000002,-2.8083087000000004,0.006926,-0.002735,0.00371,-122.251373,94.398254,-192.568481,60.187689,24.830135,12.099435,15.077761,-1.0,-1.0,100.570145,0.338219,-1.281384,0.013358,-1.31174
831170.15483,-9.417364560000001,-0.14923953,-2.79124911,-0.001062,0.003515,0.00329,-122.138824,94.145172,-192.732162,60.187689,24.830135,12.099435,15.077761,-1.0,-1.0,100.570145,0.338219,-1.281378,0.013365,-1.311741
831170.174815,-9.405543510000001,-0.14235291,-2.80980963,0.006139,-0.003944,0.004491,-122.112106,94.194183,-192.650681,60.187689,24.830135,12.099435,15.077761,-1.0,-1.0,100.570862,0.280087,-1.281366,0.013367,-1.311753
831170.1948,-9.43532667,-0.13337676,-2.80441413,0.003007,0.000524,0.004861,-122.136902,94.269791,-192.858047,60.187689,24.830135,12.099435,15.077761,-1.0,-1.0,100.570862,0.280087,-1.281378,0.013357,-1.311731
831170.1948,-9.43532667,-0.13337676,-2.80441413,0.003007,0.000524,0.004861,-122.136902,94.269791,-192.858047,60.187689,24.830135,12.099435,15.077761,-1.0,-1.0,100.570862,0.280087,-1.281378,0.013357,-1.311731
831170.214785,-9.42410403,-0.14235291,-2.8089071100000003,-0.000155,0.000522,0.003377,-122.202805,94.326935,-192.72644,60.187689,24.830135,12.099435,15.077761,-1.0,-1.0,100.570862,0.280087,-1.281373,0.013357,-1.311738
831170.234769,-9.41183172,-0.13546629000000002,-2.8196883,0.007641,-0.00275,0.003258,-122.230911,94.284698,-192.737381,60.187689,24.830135,12.099435,15.077761,-1.0,-1.0,100.570862,0.280087,-1.281375,0.013358,-1.311735
831170.274739,-9.43068654,-0.1332198,-2.80486539,0.00642,-0.004038,0.003568,-122.067093,94.301468,-192.896713,60.187689,24.830135,12.099435,15.077761,-1.0,-1.0,100.570862,0.280087,-1.281364,0.01335,-1.311731
831170.274739,-9.43068654,-0.1332198,-2.80486539,0.00642,-0.004038,0.003568,-122.067093,94.301468,-192.896713,60.187689,24.830135,12.099435,15.077761,-1.0,-1.0,100.570862,0.280087,-1.281364,0.01335,-1.311731
831170.294724,-9.421553430000001,-0.14160735,-2.82672207,0.0035,-0.0003,0.00407,-122.045624,94.197174,-192.799133,60.187689,24.830135,12.099435,15.077761,-1.0,-1.0,100.570862,0.280087,-1.281385,0.013356,-1.311718
831170.334693,-9.43907409,-0.13202298,-2.8116048600000005,0.007319,-0.003869,0.002402,-121.972183,94.335052,-193.059006,60.187689,24.830135,12.099435,15.077761,-1.0,-1.0,100.570862,0.280087,-1.281388,0.013372,-1.311715
831170.354678,-9.418414230000002,-0.14369688,-2.8080144000000002,-0.000325,0.00342,0.005373,-122.030365,94.401917,-192.964081,60.187689,24.830135,12.099435,15.077761,-1.0,-1.0,100.570862,0.280087,-1.281396,0.013376,-1.311715
831170.374663,-9.42724323,-0.13337676,-2.80816155,0.007504,-0.002166,0.006026,-122.196365,94.390854,-192.621597,60.187689,24.830135,12.099435,15.077761,-1.0,-1.0,100.570862,0.280087,-1.281387,0.013368,-1.311727
831170.394647,-9.421111980000001,-0.13636881,-2.799774,0.001878,0.000187,0.004318,-122.319046,94.391983,-192.822861,60.187689,24.830135,12.099435,15.077761,-1.0,-1.0,100.570862,0.280087,-1.281397,0.013379,-1.31171
831170.414632,-9.417668670000001,-0.13831119,-2.81878578,0.002519,0.00033,0.004856,-122.183868,94.461319,-192.415512,60.187689,24.830135,12.099435,15.077761,-1.0,-1.0,100.570862,0.280087,-1.281389,0.013385,-1.311715
831170.434617,-9.42484959,-0.13666311,-2.81280168,0.008358,-0.003052,0.004482,-122.084457,94.297195,-192.803818,60.187689,24.830135,12.099435,15.077761,-1.0,-1.0,100.570862,0.280087,-1.281396,0.013371,-1.311705
831170.454602,-9.43128495,-0.14280417,-2.8157937299999998,-0.001389,0.003728,0.003106,-122.045883,94.467148,-192.833679,60.187689,24.830135,12.099435,15.077761,-1.0,-1.0,100.570862,0.280087,-1.281397,0.013379,-1.311701
831170.474586,-9.418267080000001,-0.14070483,-2.81354724,0.007923,-0.00393,0.003077,-122.009689,94.574265,-192.854126,60.187689,24.830135,12.099435,15.077761,-1.0,-1.0,100.570862,0.280087,-1.28139,0.013386,-1.311722
831170.494571,-9.42365277,-0.12065319,-2.81653929,0.00253,-0.000369,0.005863,-122.203552,94.365707,-192.720856,60.187689,24.830135,12.099435,15.077761,-1.0,-1.0,100.570862,0.280087,-1.281405,0.013392,-1.3117
831170.514556,-9.43532667,-0.13501503,-2.80875996,-6.8e-05,0.001748,0.004155,-122.045959,94.215393,-192.718674,60.187689,24.830135,12.099435,15.077761,-1.0,-1.0,100.570862,0.280087,-1.281401,0.013406,-1.311696
831170.534541,-9.41243013,-0.1502892,-2.82073797,0.007588,-0.005139,0.004164,-122.100082,94.347214,-192.63678,60.187689,24.830135,12.099435,15.077761,-1.0,-1.0,100.570862,0.280087,-1.281403,0.013418,-1.311711
831170.554525,-9.433678590000001,-0.12484206,-2.79483957,-0.000632,0.002983,0.005822,-122.14566,94.326874,-192.856323,60.187689,24.830135,12.099435,15.077761,-1.0,-1.0,100.570862,0.280087,-1.281427,0.013416,-1.311697
831170.57451,-9.4226031,-0.13741848,-2.79857718,0.00451,-0.001965,0.004138,-122.079346,94.304062,-192.669403,60.187689,24.830135,12.099435,15.077761,-1.0,-1.0,100.570862,0.280087,-1.281414,0.013404,-1.311706
831170.594495,-9.42305436,-0.13756563000000002,-2.8279188900000003,0.003178,-0.000199,0.004371,-121.950562,94.386002,-192.413727,60.187689,24.830135,12.099435,15.077761,-1.0,-1.0,100.570862,0.280087,-1.281426,0.013413,-1.311698
831170.61448,-9.42709608,-0.13726152,-2.80606221,0.001427,0.000676,0.005704,-122.095474,94.371231,-192.447723,60.187689,24.830135,12.099435,15.077761,-1.0,-1.0,100.570862,0.280087,-1.281426,0.01342,-1.311692
831170.634464,-9.43068654,-0.12334113000000002,-2.8071118800000003,0.006661,-0.003776,0.004949,-122.095474,94.371231,-192.447723,60.187689,24.830135,12.099435,15.077761,-1.0,-1.0,100.570862,0.280087,-1.281422,0.013427,-1.311692
831170.654449,-9.416619,-0.13666311,-2.8180402200000003,-0.001198,0.004145,0.005013,-122.2453,94.492661,-192.441193,60.187689,24.830135,12.099435,15.077761,-1.0,-1.0,100.570862,0.280087,-1.281432,0.013434,-1.311683
831170.674434,-9.42379992,-0.12080034,-2.8205810100000006,0.006516,-0.003205,0.003953,-122.200058,94.499878,-192.29129,60.187689,24.830135,12.099435,15.077761,-1.0,-1.0,100.570862,0.280087,-1.281421,0.013439,-1.311703
831170.694419,-9.42874416,-0.13936086,-2.81849148,0.002029,-0.00104,0.003505,-122.061752,94.627182,-192.790939,60.187689,24.830135,12.099435,15.077761,-1.0,-1.0,100.570862,0.280087,-1.281417,0.013459,-1.311701
831170.714403,-9.4106349,-0.13801689,-2.8175889600000006,-0.001522,0.001054,0.003897,-122.049057,94.39325,-192.459671,60.187689,24.830135,12.099435,15.077761,-1.0,-1.0,100.570862,0.280087,-1.281405,0.01347,-1.311704
831170.734388,-9.43323714,-0.11616021000000001,-2.81369439,0.006666,-0.004258,0.00327,-122.019897,94.445389,-192.514847,60.187689,24.830135,12.099435,15.077761,-1.0,-1.0,100.570862,0.280087,-1.281403,0.013477,-1.311716
831170.754373,-9.43577793,-0.13097331,-2.7993325500000004,-0.001288,0.003353,0.002404,-122.041641,94.171112,-192.629822,60.187689,24.830135,12.099435,15.077761,-1.0,-1.0,100.570862,0.280087,-1.281397,0.013479,-1.311721
831170.774358,-9.4223088,-0.13142457,-2.8142928000000005,0.005851,-0.002145,0.002553,-121.989426,94.367935,-192.419739,60.187689,24.830135,12.099435,15.077761,-1.0,-1.0,100.570862,0.280087,-1.281383,0.013495,-1.311745
831170.794342,-9.417511710000001,-0.13067901,-2.8134000900000005,0.002052,0.000564,0.004444,-122.069656,94.417404,-192.745132,60.187689,24.830135,12.099435,15.077761,-1.0,-1.0,100.570862,0.280087,-1.281389,0.013518,-1.311747
831170.814327,-9.4279986,-0.13845834,-2.81280168,0.001244,0.001408,0.004686,-122.038116,94.318863,-192.668488,60.187689,24.830135,12.099435,15.077761,-1.0,-1.0,100.570862,0.280087,-1.281377,0.013527,-1.31175
831170.854297,-9.417668670000001,-0.13426947,-2.8168434,-0.001103,0.002441,0.004422,-122.0495,94.311386,-192.224152,60.187689,24.830135,12.099435,15.077761,-1.0,-1.0,100.570862,0.280087,-1.281379,0.01352,-1.311718
831170.874281,-9.43608204,-0.14010642,-2.81414565,0.005955,-0.003386,0.004026,-122.106491,93.99025,-192.666687,60.187689,24.830135,12.099435,15.077761,-1.0,-1.0,100.570862,0.280087,-1.281364,0.013529,-1.311739
831170.874281,-9.43608204,-0.14010642,-2.81414565,0.005955,-0.003386,0.004026,-122.106491,93.99025,-192.666687,60.187689,24.830135,12.099435,15.077761,-1.0,-1.0,100.570862,0.280087,-1.281364,0.013529,-1.311739
831170.894266,-9.42379992,-0.13517199,-2.81624499,0.003289,0.000527,0.005004,-121.973511,94.372223,-192.734451,60.187689,24.830135,12.099435,15.077761,-1.0,-1.0,100.570862,0.280087,-1.28137,0.013529,-1.311734
831170.934236,-9.42814575,-0.12139875000000001,-2.80845585,0.006887,-0.004157,0.003885,-121.906204,94.145126,-192.47438,60.187689,24.830135,12.099435,15.077761,-1.0,-1.0,100.570862,0.280087,-1.281372,0.01352,-1.311738
831170.95422,-9.42724323,-0.13831119,-2.78735454,0.000115,0.004551,0.003335,-121.873932,94.236877,-192.550049,60.187689,24.830135,12.099435,15.077761,-1.0,-1.0,100.570862,0.280087,-1.28137,0.013519,-1.311716
831170.974205,-9.425300850000001,-0.13936086,-2.81249757,0.005283,-0.003565,0.004313,-121.896698,94.220108,-192.690323,60.187689,24.830135,12.099435,15.077761,-1.0,-1.0,100.570862,0.280087,-1.281368,0.013535,-1.311719
831170.99419,-9.42784164,-0.12484206,-2.8142928000000005,0.00303,-0.000493,0.005653,-121.939331,94.222336,-192.30719,60.187689,24.830135,12.099435,15.077761,-1.0,-1.0,100.570862,0.280087,-1.281385,0.013542,-1.31172
831171.014175,-9.4311378,-0.14519781,-2.8118991600000003,0.000864,0.001506,0.003494,-121.796021,94.349564,-192.499054,60.187689,24.830135,12.099435,15.077761,-1.0,-1.0,100.570862,0.280087,-1.281386,0.013548,-1.311725
831171.014175,-9.4311378,-0.14519781,-2.8118991600000003,0.000864,0.001506,0.003494,-121.796021,94.349564,-192.499054,60.187689,24.830135,12.099435,15.077761,-1.0,-1.0,100.570862,0.280087,-1.281386,0.013548,-1.311725
831171.054144,-9.42649767,-0.13696722,-2.80725903,-0.000976,0.004103,0.005328,-122.037888,94.461411,-192.393356,60.187689,24.830135,12.099435,15.077761,-1.0,-1.0,100.570862,0.280087,-1.281395,0.013534,-1.311714
831171.074129,-9.414823770000002,-0.13621185,-2.81414565,0.00492,-0.004924,0.005258,-121.870346,94.396545,-192.540329,60.187689,24.830135,12.099435,15.077761,-1.0,-1.0,100.570862,0.280087,-1.281378,0.01353,-1.311719
831171.094114,-9.421857540000001,-0.22797459,-2.8104080400000004,0.003351,0.001401,0.001495,-121.821899,94.360077,-192.911957,60.187689,24.830135,12.099435,15.077761,-1.0,-1.0,100.570862,0.280087,-1.281422,0.013494,-1.311706
831171.114098,-9.330546060000001,0.08547453,-2.8758211200000003,0.000315,0.00053,0.011443,-121.851318,94.045059,-192.614365,60.187689,24.830135,12.099435,15.077761,-1.0,-1.0,100.570862,0.280087,-1.28141,0.013532,-1.31171
831171.134083,-9.47260467,-0.19250163000000003,-2.8253781,0.015387,-0.003179,0.008525,-122.010651,93.842499,-192.519974,60.187689,24.830135,12.099435,15.077761,-1.0,-1.0,100.570862,0.280087,-1.281411,0.013456,-1.311627
831171.154068,-9.45404415,-0.28186092,-2.71445643,-0.003395,0.00217,0.004246,-122.03862,94.28447,-192.829498,60.187689,24.830135,12.099435,15.077761,-1.0,-1.0,100.570862,0.280087,-1.281416,0.013416,-1.311495
831171.174053,-9.44745183,-0.11975067000000002,-2.8026189,0.00266,-0.003232,0.002247,-122.048004,94.165573,-192.603058,60.187689,24.830135,12.099435,15.077761,-1.0,-1.0,100.570862,0.280087,-1.281434,0.013429,-1.311563
831171.194037,-9.41078205,-0.04955031,-2.8488730500000004,0.004799,0.002021,0.004122,-122.232315,94.166397,-192.820114,60.187689,24.830135,12.099435,15.077761,-1.0,-1.0,100.570862,0.280087,-1.281447,0.013455,-1.311607
831171.214022,-9.41212602,-0.17992521,-2.81325294,0.004324,-0.00324,0.006104,-122.0047,94.146057,-192.982361,60.187689,24.830135,12.099435,15.077761,-1.0,-1.0,100.570862,0.280087,-1.281445,0.013468,-1.311595
831171.234007,-9.47589102,-0.10148445,-2.72912238,0.002932,0.013471,-0.001133,-122.112244,94.285645,-192.690521,60.187689,24.830135,12.099435,15.077761,-1.0,-1.0,100.570862,0.280087,-1.281418,0.013461,-1.311572
831171.253992,-9.4889187,0.01332198,-2.8615966200000003,-0.0034,-0.01073,0.005667,-121.902359,94.337296,-192.611694,60.187689,24.830135,12.099435,15.077761,-1.0,-1.0,100.571159,0.256306,-1.281392,0.013559,-1.311716
831171.273976,-9.3762018,-0.20297871000000003,-2.87926443,0.014979,0.00744,0.008999,-121.96608,94.231628,-192.57225,60.187689,24.830135,12.099435,15.077761,-1.0,-1.0,100.571159,0.256306,-1.281271,0.013539,-1.311677
831171.293961,-9.39236868,-0.18845991,-2.76116184,0.001885,0.005292,0.002967,-121.850357,94.390015,-192.762405,60.187689,24.830135,12.099435,15.077761,-1.0,-1.0,100.571159,0.256306,-1.281308,0.013492,-1.31155
831171.313946,-9.56615283,-0.13831119,-2.84348736,0.003206,-0.014161,0.008817,-122.030899,94.12204,-192.579559,60.187689,24.830135,12.099435,15.077761,-1.0,-1.0,100.571159,0.256306,-1.281374,0.013518,-1.311586
831171.333931,-9.30540303,-0.1764819,-2.94587433,0.008063,-0.005553,0.000353,-122.030899,94.12204,-192.579559,60.187689,24.830135,12.099435,15.077761,-1.0,-1.0,100.571159,0.256306,-1.281349,0.013505,-1.311542
831171.353916,-9.41647185,-0.29099403,-3.0009574800000003,0.053232,-0.010694,0.018179,-122.162857,94.123306,-192.693604,60.187689,24.830135,12.099435,15.077761,-1.0,-1.0,100.571159,0.256306,-1.281561,0.013587,-1.311428
831171.3739,-9.21753486,-0.60982884,-2.97041895,0.05748,-0.055701,0.01806,-122.495789,94.360291,-192.749298,60.187689,24.830135,12.099435,15.077761,-1.0,-1.0,100.571159,0.256306,-1.282079,0.013456,-1.310524
831171.393885,-9.617645520000002,-0.26853894,-2.73796119,0.031617,-0.014412,-0.005788,-123.866562,94.176102,-193.23555,60.187689,24.830135,12.099435,15.077761,-1.0,-1.0,100.571159,0.256306,-1.283145,0.013679,-1.309483
831171.41387,-9.76254903,-0.16585766999999998,-2.8488730500000004,0.075873,0.004441,0.041303,-125.722336,93.848389,-193.499054,60.187689,24.830135,12.099435,15.077761,-1.0,-1.0,100.571159,0.256306,-1.283004,0.013864,-1.30853
831171.433855,-8.83717173,-0.59949891,-3.1904670600000005,0.123048,-0.002556,0.013636,-126.909348,93.086792,-194.167709,60.187689,24.830135,12.099435,15.077761,-1.0,-1.0,100.571159,0.256306,-1.28256,0.013903,-1.307049
831171.453839,-9.27935748,-0.49906413000000005,-3.7857771,0.108115,-0.204867,0.003937,-127.46962,92.131897,-194.214737,60.187689,24.830135,12.099435,15.077761,-1.0,-1.0,100.571159,0.256306,-1.284799,0.014326,-1.304974
831171.473824,-9.24028425,0.06436341000000001,-3.2787864900000003,0.124699,-0.117534,0.027388,-126.342529,91.007248,-194.641647,60.187689,24.830135,12.099435,15.077761,-1.0,-1.0,100.571159,0.256306,-1.287722,0.014871,-1.302943
831171.493809,-9.79562835,0.36613863,-3.00994344,0.141113,-0.113165,0.064526,-123.793564,90.156326,-194.844009,60.187689,24.830135,12.099435,15.077761,-1.0,-1.0,100.571159,0.256306,-1.290213,0.014876,-1.300385
831171.513794,-9.44745183,0.02274939,-3.0874816800000002,0.107762,-0.098173,0.015036,-121.991379,89.955246,-194.556824,60.187689,24.830135,12.099435,15.077761,-1.0,-1.0,100.571159,0.256306,-1.292069,0.014736,-1.297395
831171.533778,-9.37006074,-0.19429686000000002,-2.58736788,0.107762,-0.098173,0.015036,-120.592972,90.227875,-193.809555,60.187689,24.830135,12.099435,15.077761,-1.0,-1.0,100.571159,0.256306,-1.294062,0.015012,-1.295392
831171.533778,-9.37006074,-0.19429686000000002,-2.58736788,0.107762,-0.098173,0.015036,-120.592972,90.227875,-193.809555,60.187689,24.830135,12.099435,15.077761,-1.0,-1.0,100.571159,0.256306,-1.294062,0.015012,-1.295392
831171.573748,-9.40733874,-0.04819653,-2.50518951,0.068886,-0.110731,0.032266,-119.610428,91.183777,-193.017899,60.187689,24.830135,12.099435,15.077761,-1.0,-1.0,100.571159,0.256306,-1.296773,0.015107,-1.292397
831171.613717,-9.44341011,-0.32602554,-2.64081276,0.013364,-0.201625,0.013647,-120.56926,92.631226,-192.536545,60.187689,24.830135,12.099435,15.077761,-1.0,-1.0,100.571159,0.256306,-1.302699,0.014822,-1.290061
831171.613717,-9.44341011,-0.32602554,-2.64081276,0.013364,-0.201625,0.013647,-120.56926,92.631226,-192.536545,60.187689,24.830135,12.099435,15.077761,-1.0,-1.0,100.571159,0.256306,-1.302699,0.014822,-1.290061
831171.653687,-9.327102750000002,-0.32901759,-2.5828749,-0.055205,-0.327756,-0.001818,-123.515503,93.782639,-192.587692,60.187689,24.830135,12.099435,15.077761,-1.0,-1.0,100.571159,0.256306,-1.312815,0.014403,-1.290369
831171.653687,-9.327102750000002,-0.32901759,-2.5828749,-0.055205,-0.327756,-0.001818,-123.515503,93.782639,-192.587692,60.187689,24.830135,12.099435,15.077761,-1.0,-1.0,100.571159,0.256306,-1.312815,0.014403,-1.290369
831171.693657,-9.437121900000001,-0.29668383,-2.56177359,-0.073102,-0.456334,0.003954,-126.918945,93.367645,-192.729126,60.187689,24.830135,12.099435,15.077761,-1.0,-1.0,100.571159,0.256306,-1.328486,0.013821,-1.293227
831171.693657,-9.437121900000001,-0.29668383,-2.56177359,-0.073102,-0.456334,0.003954,-126.918945,93.367645,-192.729126,60.187689,24.830135,12.099435,15.077761,-1.0,-1.0,100.571159,0.256306,-1.328486,0.013821,-1.293227
831171.733626,-9.298359450000001,-0.37841094,-2.70233127,-0.063073,-0.605901,0.006324,-127.060104,90.817993,-193.664963,60.187689,24.830135,12.099435,15.077761,-1.0,-1.0,100.571159,0.256306,-1.348635,0.013164,-1.296245
831171.733626,-9.298359450000001,-0.37841094,-2.70233127,-0.063073,-0.605901,0.006324,-127.060104,90.817993,-193.664963,60.187689,24.830135,12.099435,15.077761,-1.0,-1.0,100.571159,0.256306,-1.348635,0.013164,-1.296245
831171.773596,-9.31692978,-0.21824307,-2.4234624,-0.025432,-0.729692,0.020854,-123.706848,90.672455,-191.391083,60.187689,24.830135,12.099435,15.077761,-1.0,-1.0,100.571159,0.256306,-1.374426,0.012445,-1.2981
831171.773596,-9.31692978,-0.21824307,-2.4234624,-0.025432,-0.729692,0.020854,-123.706848,90.672455,-191.391083,60.187689,24.830135,12.099435,15.077761,-1.0,-1.0,100.571159,0.256306,-1.374426,0.012445,-1.2981
831171.813565,-9.34821387,-0.08277678,-2.13411645,0.004141,-0.87162,0.03285,-126.285553,93.955246,-188.03804,60.187689,24.830135,12.099435,15.077761,-1.0,-1.0,100.571159,0.256306,-1.405789,0.011435,-1.298773
831171.813565,-9.34821387,-0.08277678,-2.13411645,0.004141,-0.87162,0.03285,-126.285553,93.955246,-188.03804,60.187689,24.830135,12.099435,15.077761,-1.0,-1.0,100.571159,0.256306,-1.405789,0.011435,-1.298773
831171.853535,-9.25076133,0.30117681,-1.8646749900000001,0.057213,-1.049488,0.054518,-131.894241,92.609131,-187.397751,60.187689,24.830135,12.099435,15.077761,-1.0,-1.0,100.571159,0.256306,-1.442881,0.010026,-1.297618
831171.853535,-9.25076133,0.30117681,-1.8646749900000001,0.057213,-1.049488,0.054518,-131.894241,92.609131,-187.397751,60.187689,24.830135,12.099435,15.077761,-1.0,-1.0,100.571159,0.256306,-1.442881,0.010026,-1.297618
831171.893504,-9.30136131,0.02649681,-1.1906200800000002,0.040302,-1.249359,0.058554,-132.094604,91.170395,-185.687241,60.187689,24.830135,12.099435,15.077761,-1.0,-1.0,100.571159,0.256306,-1.487738,0.008014,-1.295111
831171.913489,-9.37650591,0.09504909,-0.8961827400000001,0.031734,-1.34781,0.059526,-131.281784,90.852585,-184.304657,60.187689,24.830135,12.099435,15.077761,-1.0,-1.0,100.571159,0.256306,-1.513061,0.006966,-1.294327
831171.933474,-9.3357846,0.16750575,-0.7625116800000001,0.028801,-1.441565,0.065251,-130.482468,90.875458,-182.52948,60.187689,24.830135,12.099435,15.077761,-1.0,-1.0,100.571159,0.256306,-1.540387,0.005878,-1.293729
831171.953459,-9.79009551,0.6709059,-0.2633004,0.048824,-1.469072,0.048365,-130.213547,90.812759,-181.16008,60.187689,24.830135,12.099435,15.077761,-1.0,-1.0,100.571159,0.256306,-1.569298,0.004731,-1.293052
831171.973443,-15.98092164,1.13912739,-0.22976981999999999,0.162125,-0.536678,0.012999,-129.87944,91.317276,-180.147552,60.187689,24.830135,12.099435,15.077761,-1.0,-1.0,100.571159,0.256306,-1.597101,0.004262,-1.292589
831171.993428,-10.936256670000002,-0.09176274,-0.1360647,0.157194,-0.35946,0.013949,-128.565323,91.174759,-179.184937,60.187689,24.830135,12.099435,15.077761,-1.0,-1.0,100.571159,0.256306,-1.614882,0.003242,-1.290747
831172.013413,-10.17883638,0.26480133,0.5688132300000001,0.119199,-0.408517,0.041511,-126.281937,92.428741,-178.036209,60.187689,24.830135,12.099435,15.077761,-1.0,-1.0,100.571159,0.256306,-1.625413,0.002001,-1.288212
831172.033398,-9.85011309,0.5140341900000001,0.75667473,0.080904,-0.263838,0.061202,-128.359558,94.898865,-176.559509,60.187689,24.830135,12.099435,15.077761,-1.0,-1.0,100.571159,0.256306,-1.632243,0.000773,-1.285923
831172.053382,-10.477315440000002,0.25970994000000003,0.8948387700000001,0.032644,-0.142942,0.015607,-128.359558,94.898865,-176.559509,60.187689,24.830135,12.099435,15.077761,-1.0,-1.0,100.571159,0.256306,-1.635974,-0.000136,-1.284381
831172.073367,-10.11910329,0.33470739,0.9232779600000001,0.00079,-0.094324,-0.002992,-133.967133,94.9142,-178.475616,60.187689,24.830135,12.099435,15.077761,-1.0,-1.0,100.571159,0.256306,-1.637527,-0.000204,-1.2839
831172.093351,-9.677074500000002,0.210915,0.77838426,-0.010855,-0.168486,0.016372,-131.535446,91.753036,-179.329346,60.187689,24.830135,12.099435,15.077761,-1.0,-1.0,100.571159,0.256306,-1.63933,-0.000153,-1.284042
831172.113337,-9.75865446,-0.09924777,0.7536826799999999,-0.026117,-0.23484,0.021543,-127.588303,92.020035,-177.775055,60.187689,24.830135,12.099435,15.077761,-1.0,-1.0,100.571159,0.256306,-1.642725,-0.000374,-1.284427
831172.133321,-9.72003249,-0.27812331,0.8069706000000001,-0.065132,-0.348732,0.02536,-130.723587,95.273483,-176.051132,60.187689,24.830135,12.099435,15.077761,-1.0,-1.0,100.571159,0.256306,-1.647753,-0.000574,-1.285184
831172.153306,-9.74997261,-0.14490351,0.69590178,-0.054139,-0.526121,0.033998,-134.188019,93.532715,-178.060669,60.187689,24.830135,12.099435,15.077761,-1.0,-1.0,100.571159,0.256306,-1.65537,-0.000784,-1.286596
831172.173291,-9.70776018,0.03907323000000001,0.51911577,0.002524,-0.636395,0.026813,-131.911209,91.582474,-178.72084,60.187689,24.830135,12.099435,15.077761,-1.0,-1.0,100.571159,0.256306,-1.666176,-0.001333,-1.287634
831172.21326,-9.599085,-0.30386475,1.07296875,0.030182,-0.681809,0.025392,-129.260208,95.128067,-174.667816,60.187689,24.830135,12.099435,15.077761,-1.0,-1.0,100.571159,0.256306,-1.691877,-0.002225,-1.287047
831172.21326,-9.599085,-0.30386475,1.07296875,0.030182,-0.681809,0.025392,-129.260208,95.128067,-174.667816,60.187689,24.830135,12.099435,15.077761,-1.0,-1.0,100.571159,0.256306,-1.691877,-0.002225,-1.287047
831172.25323,-9.62932923,0.01796211,0.96878655,0.038788,-0.85231,0.020723,-135.698685,95.522614,-174.446106,60.187689,24.830135,12.099435,15.077761,-1.0,-1.0,100.571159,0.256306,-1.721739,-0.003106,-1.286051
831172.25323,-9.62932923,0.01796211,0.96878655,0.038788,-0.85231,0.020723,-135.698685,95.522614,-174.446106,60.187689,24.830135,12.099435,15.077761,-1.0,-1.0,100.571159,0.256306,-1.721739,-0.003106,-1.286051
831172.2932,-9.55747098,-0.15088761,1.49898762,0.01465,-1.022789,0.031294,-134.694122,92.393265,-173.609207,60.187689,24.830135,12.099435,15.077761,-1.0,-1.0,100.571159,0.256306,-1.758724,-0.004101,-1.285134
831172.313185,-9.521252460000001,-0.19190322,1.7092944,-0.001702,-1.052909,0.02496,-131.437805,91.952881,-171.739334,60.187689,24.830135,12.099435,15.077761,-1.0,-1.0,100.571159,0.256306,-1.779439,-0.004679,-1.285115
831172.333169,-9.50508558,-0.30311919,1.92365271,-0.017875,-1.077951,0.019904,-129.256393,92.337524,-170.163406,60.187689,24.830135,12.099435,15.077761,-1.0,-1.0,100.571159,0.256306,-1.800709,-0.005009,-1.285403
831172.333169,-9.50508558,-0.30311919,1.92365271,-0.017875,-1.077951,0.019904,-129.256393,92.337524,-170.163406,60.187689,24.830135,12.099435,15.077761,-1.0,-1.0,100.571159,0.256306,-1.800709,-0.005009,-1.285403
831172.373139,-9.34701705,-0.11750418000000001,2.19369258,0.007367,-1.253687,0.028108,-128.881271,94.037964,-166.456543,60.187689,24.830135,12.099435,15.077761,-1.0,-1.0,100.571159,0.256306,-1.846528,-0.005689,-1.286115
831172.373139,-9.34701705,-0.11750418000000001,2.19369258,0.007367,-1.253687,0.028108,-128.881271,94.037964,-166.456543,60.187689,24.830135,12.099435,15.077761,-1.0,-1.0,100.571159,0.256306,-1.846528,-0.005689,-1.286115
831172.373139,-9.34701705,-0.11750418000000001,2.19369258,0.007367,-1.253687,0.028108,-128.881271,94.037964,-166.456543,60.187689,24.830135,12.099435,15.077761,-1.0,-1.0,100.571159,0.256306,-1.846528,-0.005689,-1.286115
831172.413108,-11.781103680000001,0.79305021,3.07999665,0.075941,-0.920346,0.015436,-130.115204,95.229263,-163.507248,60.187689,24.830135,12.099435,15.077761,-1.0,-1.0,100.571159,0.256306,-1.896015,-0.006642,-1.285823
831172.453078,-8.96904756,0.5843817,3.78053856,0.050739,-0.954587,-0.011371,-133.244965,96.748611,-162.267914,60.187689,24.830135,12.099435,15.077761,-1.0,-1.0,100.571159,0.256306,-1.936557,-0.007437,-1.283647
831172.453078,-8.96904756,0.5843817,3.78053856,0.050739,-0.954587,-0.011371,-133.244965,96.748611,-162.267914,60.187689,24.830135,12.099435,15.077761,-1.0,-1.0,100.571159,0.256306,-1.936557,-0.007437,-1.283647
831172.493048,-7.844438970000001,-0.5667237,4.27974984,0.151613,-0.853749,0.013204,-134.739548,95.396652,-161.732224,60.187689,24.830135,12.099435,15.077761,-1.0,-1.0,100.571159,0.256306,-1.975725,-0.00825,-1.281049
831172.513032,-8.905135410000002,-0.96654006,4.28229063,0.123161,-0.992258,-0.007366,-134.606522,94.731094,-160.523651,60.187689,24.830135,12.099435,15.077761,-1.0,-1.0,100.571159,0.256306,-1.995197,-0.009027,-1.279544
831172.533017,-8.82624339,-0.20911977,4.47823557,0.105967,-1.150431,0.017893,-134.914413,94.404465,-159.436142,60.187689,24.830135,12.099435,15.077761,-1.0,-1.0,100.571159,0.256306,-2.015664,-0.009606,-1.277945
831172.553002,-8.39679102,-0.08067744,4.48722153,0.095713,-1.076806,0.010176,-134.836716,94.182281,-158.170746,60.187689,24.830135,12.099435,15.077761,-1.0,-1.0,100.571159,0.256306,-2.036786,-0.010665,-1.276164
831172.572987,-8.62790481,-0.07739109000000001,4.8121974,0.053689,-1.216566,0.034418,-134.68335,94.262512,-157.112946,60.187689,24.830135,12.099435,15.077761,-1.0,-1.0,100.571159,0.256306,-2.059525,-0.011765,-1.274794
831172.592971,-8.164176300000001,-0.11810259,5.08327713,-0.019132,-1.262809,0.080131,-134.579361,94.130402,-155.707886,60.187689,24.830135,12.099435,15.077761,-1.0,-1.0,100.571159,0.256306,-2.083798,-0.012911,-1.274465
831172.612956,-8.32494258,0.021552570000000004,5.10977394,-0.037989,-1.287919,0.064801,-134.204346,94.313843,-153.908615,60.187689,24.830135,12.099435,15.077761,-1.0,-1.0,100.571159,0.256306,-2.109211,-0.013868,-1.275444
831172.632941,-8.45636715,0.25372584000000004,4.86532836,-0.009121,-1.270926,0.060204,-133.881638,94.400131,-152.814148,60.187689,24.830135,12.099435,15.077761,-1.0,-1.0,100.571159,0.256306,-2.135118,-0.014552,-1.276678
831172.652926,-8.04217914,0.38110869,5.02520193,0.011577,-1.29236,0.042871,-133.570328,94.517151,-151.31842,60.187689,24.830135,12.099435,15.077761,-1.0,-1.0,100.571159,0.256306,-2.160785,-0.015349,-1.277431
831172.672911,-8.232581430000002,0.52510968,5.10917553,0.067834,-1.304341,0.011714,-133.290573,94.317276,-150.019287,60.187689,24.830135,12.099435,15.077761,-1.0,-1.0,100.571159,0.256306,-2.1867,-0.016047,-1.27746
831172.692895,-7.81165395,0.62629983,5.18386887,0.138055,-1.266125,0.00572,-132.820557,94.016006,-149.020554,60.187689,24.830135,12.099435,15.077761,-1.0,-1.0,100.571159,0.256306,-2.212472,-0.017043,-1.276338
831172.71288,-7.763310270000001,0.32272938,5.64177024,0.212879,-1.224872,-0.025535,-132.031494,93.74559,-147.877701,60.187689,24.830135,12.099435,15.077761,-1.0,-1.0,100.571159,0.256306,-2.237544,-0.018783,-1.273942
831172.732865,-7.297472610000001,-0.02006145,6.10954047,0.239465,-1.216526,-0.029805,-131.343582,93.475861,-146.630035,60.187689,24.830135,12.099435,15.077761,-1.0,-1.0,100.571159,0.256306,-2.261828,-0.020977,-1.270201
831172.75285,-7.367084370000001,0.10882233000000001,6.18812838,0.235043,-1.208615,-0.008992,-130.310333,93.463226,-145.653427,60.187689,24.830135,12.099435,15.077761,-1.0,-1.0,100.571159,0.256306,-2.285853,-0.023579,-1.266242
831172.772835,-7.16530248,0.38544471,6.384073320000001,0.218403,-1.238521,-0.005825,-130.310333,93.463226,-145.653427,60.187689,24.830135,12.099435,15.077761,-1.0,-1.0,100.571159,0.256306,-2.309951,-0.026455,-1.262618
831172.792819,-6.89151519,0.32063004,6.51640041,0.210048,-1.279391,-0.004206,-129.416077,93.150726,-144.56604,60.187689,24.830135,12.099435,15.077761,-1.0,-1.0,100.571159,0.256306,-2.334666,-0.029293,-1.259283
831172.812804,-6.689439,0.13517199,6.68853648,0.20612,-1.275187,0.029326,-128.618362,93.252197,-143.322449,60.187689,24.830135,12.099435,15.077761,-1.0,-1.0,100.571159,0.256306,-2.359985,-0.032296,-1.256255
831172.812804,-6.689439,0.13517199,6.68853648,0.20612,-1.275187,0.029326,-128.618362,93.252197,-143.322449,60.187689,24.830135,12.099435,15.077761,-1.0,-1.0,100.571159,0.256306,-2.359985,-0.032296,-1.256255
831172.812804,-6.689439,0.13517199,6.68853648,0.20612,-1.275187,0.029326,-128.618362,93.252197,-143.322449,60.187689,24.830135,12.099435,15.077761,-1.0,-1.0,100.571159,0.256306,-2.359985,-0.032296,-1.256255
831172.872759,-6.42239118,0.47046798,7.12668051,0.202844,-1.269162,0.03081,-126.145416,93.378418,-139.169464,60.187689,24.830135,12.099435,15.077761,-1.0,-1.0,100.571159,0.256306,-2.436043,-0.04199,-1.248994
831172.912728,-5.72439987,0.66072312,7.4778490799999995,0.211089,-1.319082,0.041071,-124.285461,93.658951,-136.026382,60.187689,24.830135,12.099435,15.077761,-1.0,-1.0,100.571159,0.256306,-2.487765,-0.048908,-1.244545
831172.932713,-5.620207860000001,0.55864026,7.68756726,0.212527,-1.320338,0.054774,-122.860687,94.075302,-134.476791,60.187689,24.830135,12.099435,15.077761,-1.0,-1.0,100.571159,0.256306,-2.514054,-0.052694,-1.242729
831172.932713,-5.620207860000001,0.55864026,7.68756726,0.212527,-1.320338,0.054774,-122.860687,94.075302,-134.476791,60.187689,24.830135,12.099435,15.077761,-1.0,-1.0,100.571159,0.256306,-2.514054,-0.052694,-1.242729
831172.972682,-5.06606058,0.80187921,7.84084851,0.237034,-1.348479,0.070394,-120.492798,94.879639,-131.391541,60.187689,24.830135,12.099435,15.077761,-1.0,-1.0,100.571159,0.256306,-2.567021,-0.061064,-1.239818
831172.972682,-5.06606058,0.80187921,7.84084851,0.237034,-1.348479,0.070394,-120.492798,94.879639,-131.391541,60.187689,24.830135,12.099435,15.077761,-1.0,-1.0,100.571159,0.256306,-2.567021,-0.061064,-1.239818
831173.012652,-4.42674288,0.9398961000000001,7.951014810000001,0.283149,-1.47062,0.058711,-118.363342,96.579315,-127.685837,60.187689,24.830135,12.099435,15.077761,-1.0,-1.0,100.571159,0.256306,-2.622823,-0.070653,-1.236574
831173.012652,-4.42674288,0.9398961000000001,7.951014810000001,0.283149,-1.47062,0.058711,-118.363342,96.579315,-127.685837,60.187689,24.830135,12.099435,15.077761,-1.0,-1.0,100.571159,0.256306,-2.622823,-0.070653,-1.236574
831173.052622,-3.9222930600000003,1.00380825,8.37672957,0.323032,-1.517974,0.155086,-117.50946,98.845459,-124.108673,60.187689,24.830135,12.099435,15.077761,-1.0,-1.0,100.571159,0.256306,-2.682977,-0.082379,-1.233855
831173.052622,-3.9222930600000003,1.00380825,8.37672957,0.323032,-1.517974,0.155086,-117.50946,98.845459,-124.108673,60.187689,24.830135,12.099435,15.077761,-1.0,-1.0,100.571159,0.256306,-2.682977,-0.082379,-1.233855
831173.092591,-3.6922191300000002,0.8481333600000001,9.254803050000001,0.262558,-1.614825,0.073422,-117.734909,100.080917,-122.601318,60.187689,24.830135,12.099435,15.077761,-1.0,-1.0,100.571159,0.256306,-2.74493,-0.095861,-1.233671
831173.112576,-3.14286894,1.05500664,9.580975740000001,0.17077,-1.665675,0.044432,-117.234467,100.172745,-121.239868,60.187689,24.830135,12.099435,15.077761,-1.0,-1.0,100.571159,0.256306,-2.777572,-0.100754,-1.233081
831173.132561,-2.8518651000000004,1.3973462100000003,9.27261801,0.098091,-1.704567,0.043505,-116.251328,100.228287,-120.131485,60.187689,24.830135,12.099435,15.077761,-1.0,-1.0,100.571159,0.256306,-2.811487,-0.103902,-1.232811
831173.152546,-2.70292968,1.43760645,9.32800527,0.06374,-1.738586,0.078196,-115.077194,99.843887,-118.85498,60.187689,24.830135,12.099435,15.077761,-1.0,-1.0,100.571159,0.256306,-2.846132,-0.105911,-1.233191
831173.17253,-2.33679105,1.3103707500000001,9.51047127,0.049276,-1.720102,0.073186,-113.122971,99.482773,-117.552322,60.187689,24.830135,12.099435,15.077761,-1.0,-1.0,100.571159,0.256306,-2.880796,-0.107367,-1.234256
831173.192515,-2.2296168,1.7335447200000003,9.568556280000001,0.066929,-1.61572,0.032069,-110.283173,99.065399,-116.079803,60.187689,24.830135,12.099435,15.077761,-1.0,-1.0,100.571159,0.256306,-2.914957,-0.108433,-1.235184
831173.2125,-2.00103399,2.1802136400000003,9.69369264,0.120562,-1.515357,0.025876,-106.633209,99.44751,-113.655365,60.187689,24.830135,12.099435,15.077761,-1.0,-1.0,100.571159,0.256306,-2.947359,-0.109985,-1.235465
831173.232485,-1.37130066,1.8476055900000001,9.52574544,0.155702,-1.470099,-0.05995,-103.705032,100.66864,-111.612213,60.187689,24.830135,12.099435,15.077761,-1.0,-1.0,100.571159,0.256306,-2.977727,-0.112452,-1.235071
831173.25247,-4.6328706,-0.9695321100000001,15.44892534,-0.443057,-0.991847,-0.397344,-102.738037,100.651733,-111.091537,60.187689,24.830135,12.099435,15.077761,-1.0,-1.0,100.571159,0.256306,-3.006141,-0.113524,-1.232552
831173.272454,-0.8753757300000001,1.9363762800000002,14.225814540000002,-0.434951,-1.175778,-0.421848,-104.258286,97.535767,-111.294724,60.187689,24.830135,12.099435,15.077761,-1.0,-1.0,100.571159,0.256306,-3.028785,-0.093867,-1.225468
831173.292439,-1.55541474,0.23276187000000004,22.873339350000002,-0.597247,-1.78322,-0.414384,-103.764816,96.58638,-110.717499,60.187689,24.830135,12.099435,15.077761,-1.0,-1.0,100.571159,0.256306,-3.047193,-0.082962,-1.217603
831173.312424,-0.9128008800000001,0.85487283,10.408007790000001,-0.695919,-1.3073,-0.334134,-102.40947,95.916824,-110.190491,60.187689,24.830135,12.099435,15.077761,-1.0,-1.0,100.571159,0.256306,-3.067762,-0.074165,-1.211366
831173.332409,0.7276371300000001,2.0941407,3.0211660800000004,-0.410576,-0.901041,-0.219829,-100.512711,95.767944,-109.307327,60.187689,24.830135,12.099435,15.077761,-1.0,-1.0,100.571159,0.256306,-3.086714,-0.064179,-1.206308
831173.352394,0.1850166,1.18224234,7.73846154,-0.380523,-0.746263,-0.159284,-97.663879,95.465744,-107.558411,60.187689,24.830135,12.099435,15.077761,-1.0,-1.0,100.571159,0.256306,-3.102643,-0.056625,-1.202608
831173.372378,-0.40550616,1.49419053,8.25353559,-0.320479,-0.657715,-0.14933,-98.341339,96.996414,-106.791061,60.187689,24.830135,12.099435,15.077761,-1.0,-1.0,100.571159,0.256306,-3.117149,-0.049597,-1.199753
831173.392363,-0.32272938,1.3974933600000001,8.88357303,-0.281815,-0.566002,-0.107683,-101.557297,97.576019,-107.202545,60.187689,24.830135,12.099435,15.077761,-1.0,-1.0,100.571159,0.256306,-3.130068,-0.043491,-1.197084
831173.412348,0.020208600000000004,1.22565159,9.77766624,-0.262991,-0.50713,-0.044934,-101.202576,93.671249,-109.087296,60.187689,24.830135,12.099435,15.077761,-1.0,-1.0,100.571091,0.258949,-3.140637,-0.03798,-1.195104
831173.432333,0.0577809,1.2307429799999998,9.03835521,-0.216122,-0.458469,0.022002,-95.828461,94.899811,-106.377426,60.187689,24.830135,12.099435,15.077761,-1.0,-1.0,100.571091,0.258949,3.133087,-0.033279,-1.194502
831173.452318,0.17693316,0.90201969,9.51706359,-0.221368,-0.465322,0.077875,-100.517365,94.927887,-107.435837,60.187689,24.830135,12.099435,15.077761,-1.0,-1.0,100.571091,0.258949,3.124294,-0.028955,-1.194963
831173.472303,-1.77530589,2.7372058200000002,11.1577959,-0.052097,-0.244629,0.259413,-100.517365,94.927887,-107.435837,60.187689,24.830135,12.099435,15.077761,-1.0,-1.0,100.571091,0.258949,3.119125,-0.02674,-1.198433
831173.492287,0.5665765500000001,0.04221243000000001,9.68501079,-0.087163,-0.314723,0.288844,-96.024429,97.191513,-106.475586,60.187689,24.830135,12.099435,15.077761,-1.0,-1.0,100.571091,0.258949,3.12079,-0.027324,-1.204291
831173.532257,0.92777094,0.023504760000000003,9.481433670000001,-0.00973,-0.042058,0.590827,-100.646057,97.676605,-108.299957,60.187689,24.830135,12.099435,15.077761,-1.0,-1.0,100.571091,0.258949,3.119747,-0.026823,-1.22123
831173.532257,0.92777094,0.023504760000000003,9.481433670000001,-0.00973,-0.042058,0.590827,-100.646057,97.676605,-108.299957,60.187689,24.830135,12.099435,15.077761,-1.0,-1.0,100.571091,0.258949,3.119747,-0.026823,-1.22123
831173.572227,0.021552570000000004,-0.04699971,9.59520024,-0.034057,0.00175,0.57693,-96.853119,95.217392,-109.864731,60.187689,24.830135,12.099435,15.077761,-1.0,-1.0,100.571091,0.258949,3.118662,-0.02637,-1.244705
831173.572227,0.021552570000000004,-0.04699971,9.59520024,-0.034057,0.00175,0.57693,-96.853119,95.217392,-109.864731,60.187689,24.830135,12.099435,15.077761,-1.0,-1.0,100.571091,0.258949,3.118662,-0.02637,-1.244705
831173.612196,-0.36853227000000005,0.23560677000000002,9.67123755,-0.001609,0.036781,0.505801,-96.609253,99.688736,-108.038452,60.187689,24.830135,12.099435,15.077761,-1.0,-1.0,100.571091,0.258949,3.118126,-0.026082,-1.265813
831173.612196,-0.36853227000000005,0.23560677000000002,9.67123755,-0.001609,0.036781,0.505801,-96.609253,99.688736,-108.038452,60.187689,24.830135,12.099435,15.077761,-1.0,-1.0,100.571091,0.258949,3.118126,-0.026082,-1.265813
831173.652166,-0.25925868,-0.10148445,9.63546048,-0.020825,0.026625,0.418429,-102.394943,98.598709,-111.298904,60.187689,24.830135,12.099435,15.077761,-1.0,-1.0,100.571091,0.258949,3.118029,-0.026327,-1.28492
831173.652166,-0.25925868,-0.10148445,9.63546048,-0.020825,0.026625,0.418429,-102.394943,98.598709,-111.298904,60.187689,24.830135,12.099435,15.077761,-1.0,-1.0,100.571091,0.258949,3.118029,-0.026327,-1.28492
831173.692135,-0.2803698,-0.10253412,9.73306017,-0.002896,0.071244,0.290638,-98.674347,97.624634,-113.070816,60.187689,24.830135,12.099435,15.077761,-1.0,-1.0,100.571091,0.258949,3.118087,-0.026182,-1.299758
831173.692135,-0.2803698,-0.10253412,9.73306017,-0.002896,0.071244,0.290638,-98.674347,97.624634,-113.070816,60.187689,24.830135,12.099435,15.077761,-1.0,-1.0,100.571091,0.258949,3.118087,-0.026182,-1.299758
831173.732105,-0.5095412100000001,-0.24249339000000003,10.12988448,0.011432,-0.021772,0.173402,-98.193558,97.834778,-113.40239,60.187689,24.830135,12.099435,15.077761,-1.0,-1.0,100.571091,0.258949,3.118613,-0.026555,-1.310354
831173.732105,-0.5095412100000001,-0.24249339000000003,10.12988448,0.011432,-0.021772,0.173402,-98.193558,97.834778,-113.40239,60.187689,24.830135,12.099435,15.077761,-1.0,-1.0,100.571091,0.258949,3.118613,-0.026555,-1.310354
831173.772075,0.28485297000000004,-0.12544047,9.671983110000001,-0.010723,-0.000429,0.133689,-100.165131,99.264328,-113.976578,60.187689,24.830135,12.099435,15.077761,-1.0,-1.0,100.571091,0.258949,3.118698,-0.026615,-1.316474
831173.772075,0.28485297000000004,-0.12544047,9.671983110000001,-0.010723,-0.000429,0.133689,-100.165131,99.264328,-113.976578,60.187689,24.830135,12.099435,15.077761,-1.0,-1.0,100.571091,0.258949,3.118698,-0.026615,-1.316474
831173.812044,0.29084688000000003,-0.37347651000000004,9.55762794,0.000133,-0.007026,0.066314,-96.516006,101.655518,-110.857147,60.187689,24.830135,12.099435,15.077761,-1.0,-1.0,100.571091,0.258949,3.118236,-0.02633,-1.32059
831173.812044,0.29084688000000003,-0.37347651000000004,9.55762794,0.000133,-0.007026,0.066314,-96.516006,101.655518,-110.857147,60.187689,24.830135,12.099435,15.077761,-1.0,-1.0,100.571091,0.258949,3.118236,-0.02633,-1.32059
831173.852014,0.07110288000000001,-0.65967345,9.813139200000002,0.008753,0.004911,-0.002901,-94.577209,99.0952,-113.55574,60.187689,24.830135,12.099435,15.077761,-1.0,-1.0,100.571091,0.258949,3.118118,-0.026681,-1.321774
831173.852014,0.07110288000000001,-0.65967345,9.813139200000002,0.008753,0.004911,-0.002901,-94.577209,99.0952,-113.55574,60.187689,24.830135,12.099435,15.077761,-1.0,-1.0,100.571091,0.258949,3.118118,-0.026681,-1.321774
831173.891984,0.34248672,-0.769104,9.84967164,0.004922,-0.005024,0.047632,-96.487366,101.867447,-112.951401,60.187689,24.830135,12.099435,15.077761,-1.0,-1.0,100.571091,0.258949,3.118232,-0.026906,-1.321795
831173.911968,0.2402469,-0.59306355,9.75296466,0.011881,-0.012531,0.117632,-100.143753,101.164383,-114.293945,60.187689,24.830135,12.099435,15.077761,-1.0,-1.0,100.571091,0.258949,3.118064,-0.027001,-1.32296
831173.931953,0.17408826000000002,-0.48708612000000007,9.77302611,0.007863,-0.006179,0.161554,-101.429382,99.918442,-115.403427,60.187689,24.830135,12.099435,15.077761,-1.0,-1.0,100.571091,0.258949,3.117911,-0.027129,-1.325394
831173.951938,0.03577707,-0.31734369000000007,9.767493270000001,0.00585,-0.010855,0.184604,-100.432098,98.768768,-115.831116,60.187689,24.830135,12.099435,15.077761,-1.0,-1.0,100.571091,0.258949,3.11776,-0.027209,-1.32861
831173.971923,-0.016765290000000002,-0.25193061,9.739946790000001,0.004126,-0.007717,0.199103,-98.857422,98.166122,-116.069931,60.187689,24.830135,12.099435,15.077761,-1.0,-1.0,100.571091,0.258949,3.117558,-0.027234,-1.332269
831173.971923,-0.016765290000000002,-0.25193061,9.739946790000001,0.004126,-0.007717,0.199103,-98.857422,98.166122,-116.069931,60.187689,24.830135,12.099435,15.077761,-1.0,-1.0,100.571091,0.258949,3.117558,-0.027234,-1.332269
831174.011892,0.09205704,0.02544714,9.72722322,0.003976,0.009261,0.180257,-96.379791,98.140915,-115.676086,60.187689,24.830135,12.099435,15.077761,-1.0,-1.0,100.571091,0.258949,3.117585,-0.027222,-1.339944
831174.031877,0.21120930000000002,0.21435831,9.615850290000001,0.000793,-0.003095,0.18618,-95.674957,98.459595,-115.01004,60.187689,24.830135,12.099435,15.077761,-1.0,-1.0,100.571091,0.258949,3.117612,-0.027212,-1.343492
831174.051862,0.27977139,0.29938158000000004,9.59145282,0.004796,-0.003886,0.177872,-95.027649,98.975143,-114.49057,60.187689,24.830135,12.099435,15.077761,-1.0,-1.0,100.571091,0.258949,3.117525,-0.027175,-1.347125
831174.071846,0.10717425000000001,0.23905008000000003,9.696988800000002,-0.002479,-0.001702,0.14109,-94.666122,99.366333,-114.753021,60.187689,24.830135,12.099435,15.077761,-1.0,-1.0,100.571091,0.258949,3.11734,-0.027156,-1.350463
831174.091831,0.19429686000000002,0.16750575,9.668098350000001,0.000288,-0.005961,0.105449,-94.623032,99.402054,-114.526093,60.187689,24.830135,12.099435,15.077761,-1.0,-1.0,100.571091,0.258949,3.117375,-0.02708,-1.353093
831174.111816,0.35895771,0.15297714,9.78245352,0.000695,-0.000913,0.056846,-94.668503,99.436981,-114.429535,60.187689,24.830135,12.099435,15.077761,-1.0,-1.0,100.571091,0.258949,3.117409,-0.027051,-1.354969
831174.1318,0.34892208,0.21330864,9.75057102,-0.003504,0.001472,-0.006781,-94.957062,99.449905,-114.454483,60.187689,24.830135,12.099435,15.077761,-1.0,-1.0,100.571091,0.258949,3.117494,-0.027026,-1.355803
831174.151785,0.13801689,0.32602554,9.67527927,-0.004004,0.008737,-0.013149,-95.324188,99.378998,-114.574051,60.187689,24.830135,12.099435,15.077761,-1.0,-1.0,100.571091,0.258949,3.117615,-0.026947,-1.355531
831174.17177,0.12424365,0.34398765000000003,9.752366250000001,0.001333,-0.003245,0.006737,-95.680313,99.45697,-114.513153,60.187689,24.830135,12.099435,15.077761,-1.0,-1.0,100.571091,0.258949,3.117783,-0.026875,-1.355226
831174.21174,0.19429686000000002,0.26779338,9.76809168,0.005263,-0.002813,0.00347,-95.771545,99.518661,-114.784821,60.187689,24.830135,12.099435,15.077761,-1.0,-1.0,100.571091,0.258949,3.117828,-0.026913,-1.355431
831174.21174,0.19429686000000002,0.26779338,9.76809168,0.005263,-0.002813,0.00347,-95.771545,99.518661,-114.784821,60.187689,24.830135,12.099435,15.077761,-1.0,-1.0,100.571091,0.258949,3.117828,-0.026913,-1.355431
831174.251709,0.1155618,0.27707364,9.73904427,0.000932,0.003528,0.00137,-96.589966,99.558456,-115.048538,60.187689,24.830135,12.099435,15.077761,-1.0,-1.0,100.571091,0.258949,3.117876,-0.027032,-1.355418
831174.251709,0.1155618,0.27707364,9.73904427,0.000932,0.003528,0.00137,-96.589966,99.558456,-115.048538,60.187689,24.830135,12.099435,15.077761,-1.0,-1.0,100.571091,0.258949,3.117876,-0.027032,-1.355418
831174.291679,0.16061913,0.24369021,9.74428281,0.000682,-0.000652,-0.00054,-97.34082,99.476532,-115.047989,60.187689,24.830135,12.099435,15.077761,-1.0,-1.0,100.571091,0.258949,3.117961,-0.027076,-1.355174
831174.311664,0.18381978000000002,0.25657074,9.75671208,0.000304,-0.001567,0.004651,-97.744522,99.395447,-114.837051,60.187689,24.830135,12.099435,15.077761,-1.0,-1.0,100.571091,0.258949,3.117991,-0.02707,-1.355091
831174.331649,0.118701,0.25057683000000003,9.67857543,0.001826,-0.001914,0.00212,-97.83046,99.709946,-115.186066,60.187689,24.830135,12.099435,15.077761,-1.0,-1.0,100.571091,0.258949,3.117981,-0.027071,-1.355066
831174.351634,0.20821725000000002,0.21015963000000001,9.74248758,-9.4e-05,0.00395,0.005683,-98.406921,99.691818,-114.84523,60.187689,24.830135,12.099435,15.077761,-1.0,-1.0,100.571091,0.258949,3.118017,-0.027084,-1.355014
831174.371618,0.19279593,0.19025514000000002,9.74248758,0.002422,-0.003054,0.007776,-98.917145,99.554764,-114.729919,60.187689,24.830135,12.099435,15.077761,-1.0,-1.0,100.571091,0.258949,3.118051,-0.027075,-1.355035
831174.391603,0.1038879,0.20387142,9.72198468,0.002585,0.002043,0.002075,-99.093063,100.088196,-115.175125,60.187689,24.830135,12.099435,15.077761,-1.0,-1.0,100.571091,0.258949,3.11806,-0.02707,-1.355079
831174.411588,0.13247424000000002,0.22063671,9.744135660000001,0.002083,-0.000371,0.00021,-99.46637,100.299561,-115.096054,60.187689,24.830135,12.099435,15.077761,-1.0,-1.0,100.571091,0.258949,3.118074,-0.027054,-1.355034
831174.411588,0.13247424000000002,0.22063671,9.744135660000001,0.002083,-0.000371,0.00021,-99.46637,100.299561,-115.096054,60.187689,24.830135,12.099435,15.077761,-1.0,-1.0,100.571091,0.258949,3.118074,-0.027054,-1.355034
831174.451558,0.13067901,0.21015963000000001,9.74129076,-0.000274,0.000445,-0.007452,-100.662338,100.466217,-114.494812,60.187689,24.830135,12.099435,15.077761,-1.0,-1.0,100.571091,0.258949,3.118077,-0.027036,-1.354846
831174.471543,0.13831119,0.25012557,9.74219328,0.00173,0.001053,-0.01293,-101.0755,100.860001,-114.86026,60.187689,24.830135,12.099435,15.077761,-1.0,-1.0,100.571091,0.258949,3.118116,-0.026989,-1.354587
831174.491527,0.19893699,0.31569561,9.75461274,0.001346,-0.001985,-0.011037,-101.326782,101.122971,-114.755325,60.187689,24.830135,12.099435,15.077761,-1.0,-1.0,100.57074,0.290657,3.118133,-0.02696,-1.354251
831174.511512,0.1935513,0.37541889,9.73246176,0.00152,0.001035,-0.008796,-101.104996,101.335709,-114.240265,60.187689,24.830135,12.099435,15.077761,-1.0,-1.0,100.57074,0.290657,3.118149,-0.026921,-1.353972
831174.531497,0.1386153,0.40176855,9.73650348,0.000221,-0.00048,-0.013217,-101.139557,101.701035,-114.021729,60.187689,24.830135,12.099435,15.077761,-1.0,-1.0,100.57074,0.290657,3.118162,-0.026893,-1.353688
831174.551482,0.14354973000000001,0.45489951000000006,9.72901845,0.000777,0.002635,-0.026174,-101.057373,101.815796,-114.454681,60.187689,24.830135,12.099435,15.077761,-1.0,-1.0,100.57074,0.290657,3.118189,-0.026856,-1.353284
831174.571467,0.11331531000000002,0.47630493,9.76224492,0.001621,-0.000425,-0.040866,-100.98349,101.790817,-114.038727,60.187689,24.830135,12.099435,15.077761,-1.0,-1.0,100.57074,0.290657,3.118227,-0.026871,-1.352603
831174.591451,0.15043635,0.5215192200000001,9.74683341,-0.001488,0.001019,-0.036751,-100.884155,102.156937,-114.118683,60.187689,24.830135,12.099435,15.077761,-1.0,-1.0,100.57074,0.290657,3.118267,-0.026881,-1.351689
831174.611436,0.19609209,0.5878250100000001,9.73351143,0.001531,-0.004594,-0.016029,-100.849243,101.810196,-114.176682,60.187689,24.830135,12.099435,15.077761,-1.0,-1.0,100.57074,0.290657,3.118284,-0.026864,-1.350929
831174.631421,0.18367263,0.55983708,9.72572229,0.001525,8e-05,-0.006498,-101.055023,101.545029,-114.259842,60.187689,24.830135,12.099435,15.077761,-1.0,-1.0,100.57074,0.290657,3.118273,-0.026848,-1.350579
831174.651406,0.1038879,0.51193485,9.727370370000001,0.001467,0.001164,-0.021222,-100.979706,100.949142,-114.576035,60.187689,24.830135,12.099435,15.077761,-1.0,-1.0,100.57074,0.290657,3.118272,-0.026847,-1.350352
831174.671391,0.13651596,0.46582785000000004,9.715990770000001,0.004203,-4.2e-05,-0.049527,-100.528152,100.341492,-114.804871,60.187689,24.830135,12.099435,15.077761,-1.0,-1.0,100.57074,0.290657,3.118291,-0.026864,-1.349712
831174.691376,0.22737618,0.38036313000000005,9.75671208,0.003037,-0.000273,-0.065733,-99.874802,99.826324,-114.94072,60.187689,24.830135,12.099435,15.077761,-1.0,-1.0,100.57074,0.290657,3.118327,-0.026918,-1.348579
831174.711361,0.29474145,0.27228636,9.76224492,0.004071,-0.000334,-0.08502,-98.819336,99.171402,-115.042572,60.187689,24.830135,12.099435,15.077761,-1.0,-1.0,100.57074,0.290657,3.118392,-0.026975,-1.347121
831174.731345,0.21809592,0.16959528000000001,9.80550702,0.001569,-0.006607,-0.107413,-98.146042,98.762924,-115.203491,60.187689,24.830135,12.099435,15.077761,-1.0,-1.0,100.57074,0.290657,3.118508,-0.027066,-1.345245
831174.75133,0.23830452000000002,0.16794720000000002,9.78305193,-0.001568,-0.003845,-0.13395,-97.458664,98.471817,-115.434708,60.187689,24.830135,12.099435,15.077761,-1.0,-1.0,100.57074,0.290657,3.118581,-0.027139,-1.342902
831174.7913,0.14309847,0.07304526,9.7582032,-0.003311,-0.010556,-0.20538,-97.465515,98.023712,-115.671341,60.187689,24.830135,12.099435,15.077761,-1.0,-1.0,100.57074,0.290657,3.118603,-0.027223,-1.336401
831174.811285,0.11855385,0.08547453,9.6856092,0.002526,0.007681,-0.210392,-97.808167,98.256241,-115.629349,60.187689,24.830135,12.099435,15.077761,-1.0,-1.0,100.57074,0.290657,3.118724,-0.027307,-1.332207
831174.811285,0.11855385,0.08547453,9.6856092,0.002526,0.007681,-0.210392,-97.808167,98.256241,-115.629349,60.187689,24.830135,12.099435,15.077761,-1.0,-1.0,100.57074,0.290657,3.118724,-0.027307,-1.332207
831174.851254,0.15387966,0.15522363,9.73920123,0.008081,0.008576,-0.189748,-98.661102,98.477386,-115.741074,60.187689,24.830135,12.099435,15.077761,-1.0,-1.0,100.57074,0.290657,3.119296,-0.027495,-1.323658
831174.851254,0.15387966,0.15522363,9.73920123,0.008081,0.008576,-0.189748,-98.661102,98.477386,-115.741074,60.187689,24.830135,12.099435,15.077761,-1.0,-1.0,100.57074,0.290657,3.119296,-0.027495,-1.323658
831174.891224,0.048049379999999996,0.21735036,9.68979807,0.003535,0.004855,-0.097855,-98.828918,98.651108,-115.361069,60.187689,24.830135,12.099435,15.077761,-1.0,-1.0,100.57074,0.290657,3.119438,-0.027726,-1.317067
831174.911209,-0.09415638000000001,0.14235291,9.7929306,0.004368,0.003509,-0.027774,-99.084534,98.726456,-115.328232,60.187689,24.830135,12.099435,15.077761,-1.0,-1.0,100.57074,0.290657,3.119496,-0.027798,-1.31526
831174.931194,0.06615864,0.09864936,9.803113380000001,0.000839,-0.003511,0.043975,-98.997894,98.856888,-115.520508,60.187689,24.830135,12.099435,15.077761,-1.0,-1.0,100.57074,0.290657,3.119546,-0.027829,-1.314952
831174.951179,0.13367106,0.13457358,9.736199370000001,0.000152,-0.001637,0.051087,-98.816116,98.618057,-115.462143,60.187689,24.830135,12.099435,15.077761,-1.0,-1.0,100.57074,0.290657,3.11946,-0.027779,-1.315723
831174.951179,0.13367106,0.13457358,9.736199370000001,0.000152,-0.001637,0.051087,-98.816116,98.618057,-115.462143,60.187689,24.830135,12.099435,15.077761,-1.0,-1.0,100.57074,0.290657,3.11946,-0.027779,-1.315723
831174.991148,0.21061089,0.22632651000000004,9.74308599,-0.002061,-0.004789,0.029526,-98.586441,98.925049,-115.540192,60.187689,24.830135,12.099435,15.077761,-1.0,-1.0,100.57074,0.290657,3.119162,-0.027653,-1.317351
831175.011133,0.14325543000000002,0.23201631,9.72064071,0.001352,-0.005803,0.009372,-98.968719,98.644958,-115.666611,60.187689,24.830135,12.099435,15.077761,-1.0,-1.0,100.57074,0.290657,3.119111,-0.02759,-1.317769
831175.031118,0.10807677000000002,0.25042968,9.755368110000001,0.001829,-0.001168,0.003782,-99.329422,98.80687,-115.659531,60.187689,24.830135,12.099435,15.077761,-1.0,-1.0,100.57074,0.290657,3.119084,-0.027577,-1.317851
831175.051103,0.25552107,0.34069149000000004,9.73979964,0.001829,-0.001168,0.003782,-99.671188,98.958984,-115.797226,60.187689,24.830135,12.099435,15.077761,-1.0,-1.0,100.57074,0.290657,3.119093,-0.027558,-1.31789
831175.051103,0.25552107,0.34069149000000004,9.73979964,0.001829,-0.001168,0.003782,-99.671188,98.958984,-115.797226,60.187689,24.830135,12.099435,15.077761,-1.0,-1.0,100.57074,0.290657,3.119093,-0.027558,-1.31789
831175.091072,0.10792962,0.25312743,9.77960862,-0.000179,-0.000442,0.011476,-100.228622,99.030243,-115.657532,60.187689,24.830135,12.099435,15.077761,-1.0,-1.0,100.57074,0.290657,3.119073,-0.027501,-1.318361
831175.111057,0.14519781,0.29608542000000004,9.73380573,0.002409,-0.004116,0.017593,-100.304184,99.282867,-115.55336,60.187689,24.830135,12.099435,15.077761,-1.0,-1.0,100.57074,0.290657,3.119067,-0.027484,-1.318536
831175.131042,0.1329255,0.27018702,9.74174202,0.001751,-0.003311,0.034741,-100.543564,99.123306,-115.838531,60.187689,24.830135,12.099435,15.077761,-1.0,-1.0,100.57074,0.290657,3.119026,-0.027476,-1.318861
831175.151027,0.08038314,0.19594493999999998,9.77826465,0.000176,0.001921,0.047197,-100.671036,99.232376,-115.846375,60.187689,24.830135,12.099435,15.077761,-1.0,-1.0,100.57074,0.290657,3.118989,-0.027448,-1.31951
831175.171012,0.10088604,0.17887554,9.78859458,-0.003071,0.002721,0.055755,-100.840149,99.269211,-116.117386,60.187689,24.830135,12.099435,15.077761,-1.0,-1.0,100.57074,0.290657,3.11896,-0.027382,-1.32041
831175.190997,0.23052519,0.27003987,9.7926363,-0.00436,0.000397,0.053624,-100.872009,99.350967,-116.091873,60.187689,24.830135,12.099435,15.077761,-1.0,-1.0,100.57074,0.290657,3.118969,-0.027257,-1.321436
831175.210982,0.16794720000000002,0.36329373000000004,9.66929517,-0.000636,-6.2e-05,0.043414,-101.041107,99.485382,-116.029984,60.187689,24.830135,12.099435,15.077761,-1.0,-1.0,100.57074,0.290657,3.118942,-0.02713,-1.32237
831175.230966,0.21869433000000002,0.34219242000000005,9.6448977,0.003675,-0.000945,0.028252,-101.219788,99.599152,-116.082321,60.187689,24.830135,12.099435,15.077761,-1.0,-1.0,100.57074,0.290657,3.118933,-0.027064,-1.323125
831175.250951,0.20866851000000003,0.2576106,9.77273181,0.004471,0.010317,0.006011,-101.140717,99.703018,-115.833389,60.187689,24.830135,12.099435,15.077761,-1.0,-1.0,100.57074,0.290657,3.118913,-0.027032,-1.323513
831175.270936,0.12993345,0.30117681,9.807007950000001,0.005518,0.003894,-0.005405,-101.391724,99.846359,-115.968811,60.187689,24.830135,12.099435,15.077761,-1.0,-1.0,100.57074,0.290657,3.118907,-0.027037,-1.323462
831175.290921,0.17767872,0.32377905,9.8387433,0.001288,0.004777,0.003495,-101.475235,99.906845,-115.574234,60.187689,24.830135,12.099435,15.077761,-1.0,-1.0,100.57074,0.290657,3.118927,-0.027031,-1.323306
831175.310906,0.14086179000000001,0.29623257000000003,9.8652303,0.001393,-0.001852,0.010213,-101.392548,99.925598,-115.491653,60.187689,24.830135,12.099435,15.077761,-1.0,-1.0,100.57074,0.290657,3.118919,-0.027025,-1.323306
831175.330891,0.15223158,0.29637972,9.80655669,0.003312,0.000253,0.006233,-101.468872,100.262497,-115.413925,60.187689,24.830135,12.099435,15.077761,-1.0,-1.0,100.57074,0.290657,3.118914,-0.027015,-1.323423
831175.350876,0.16031502,0.29683098,9.78261048,0.001912,-1.2e-05,0.001411,-101.167206,100.32341,-115.433243,60.187689,24.830135,12.099435,15.077761,-1.0,-1.0,100.57074,0.290657,3.118912,-0.027006,-1.323442
831175.37086,0.15433092,0.29159244,9.79248915,0.003078,-0.002453,0.0032,-101.625763,100.398346,-115.686768,60.187689,24.830135,12.099435,15.077761,-1.0,-1.0,100.57074,0.290657,3.118926,-0.027008,-1.323385
831175.390845,0.14474655,0.3005784,9.77422293,1e-05,-0.000659,0.006059,-101.371506,100.389023,-115.52684,60.187689,24.830135,12.099435,15.077761,-1.0,-1.0,100.57074,0.290657,3.118916,-0.027003,-1.323382
831175.390845,0.14474655,0.3005784,9.77422293,1e-05,-0.000659,0.006059,-101.371506,100.389023,-115.52684,60.187689,24.830135,12.099435,15.077761,-1.0,-1.0,100.57074,0.290657,3.118916,-0.027003,-1.323382
831175.390845,0.14474655,0.3005784,9.77422293,1e-05,-0.000659,0.006059,-101.371506,100.389023,-115.52684,60.187689,24.830135,12.099435,15.077761,-1.0,-1.0,100.57074,0.290657,3.118916,-0.027003,-1.323382
831175.470785,0.15133887000000001,0.27317907,9.76195062,0.002668,-0.001071,0.004385,-101.602722,100.341843,-115.528107,60.187689,24.830135,12.099435,15.077761,-1.0,-1.0,100.57074,0.290657,3.118911,-0.026996,-1.323362
831175.49077,0.14923953,0.29503575000000004,9.749227050000002,0.001334,0.000559,0.00428,-101.500916,100.488129,-115.102921,60.187689,24.830135,12.099435,15.077761,-1.0,-1.0,100.57074,0.290657,3.118905,-0.026997,-1.32337
831175.510754,0.16151184,0.29278926000000005,9.768238830000001,0.001615,-0.003433,0.004759,-101.66716,100.489029,-115.078033,60.187689,24.830135,12.099435,15.077761,-1.0,-1.0,100.57074,0.290657,3.118924,-0.027007,-1.323358
831175.510754,0.16151184,0.29278926000000005,9.768238830000001,0.001615,-0.003433,0.004759,-101.66716,100.489029,-115.078033,60.187689,24.830135,12.099435,15.077761,-1.0,-1.0,100.57074,0.290657,3.118924,-0.027007,-1.323358
831175.550724,0.15732297,0.28725642,9.759556980000001,0.002842,-0.000872,0.004743,-101.293884,100.634476,-115.109314,60.187689,24.830135,12.099435,15.077761,-1.0,-1.0,100.57074,0.290657,3.118919,-0.026993,-1.323345
831175.570709,0.14414814,0.27348318,9.764795520000002,0.001409,-0.001352,0.004879,-101.402573,100.504074,-114.962875,60.187689,24.830135,12.099435,15.077761,-1.0,-1.0,100.570656,0.29594,3.118919,-0.027003,-1.323354
831175.570709,0.14414814,0.27348318,9.764795520000002,0.001409,-0.001352,0.004879,-101.402573,100.504074,-114.962875,60.187689,24.830135,12.099435,15.077761,-1.0,-1.0,100.570656,0.29594,3.118919,-0.027003,-1.323354
831175.570709,0.14414814,0.27348318,9.764795520000002,0.001409,-0.001352,0.004879,-101.402573,100.504074,-114.962875,60.187689,24.830135,12.099435,15.077761,-1.0,-1.0,100.570656,0.29594,3.118919,-0.027003,-1.323354
831175.630663,0.15358536,0.25356888,9.77946147,0.002075,-1.2e-05,0.004096,-101.661652,100.424332,-114.840271,60.187689,24.830135,12.099435,15.077761,-1.0,-1.0,100.570656,0.29594,3.118975,-0.027016,-1.323356
831175.650648,0.14639463000000003,0.26989272000000003,9.74967831,0.002541,-0.001309,0.003858,-101.464203,100.469406,-115.402786,60.187689,24.830135,12.099435,15.077761,-1.0,-1.0,100.570656,0.29594,3.119013,-0.027025,-1.323352
831175.670633,0.16002072,0.26121087000000004,9.755064,0.004413,-0.003247,0.005024,-101.634628,100.535202,-115.244766,60.187689,24.830135,12.099435,15.077761,-1.0,-1.0,100.570656,0.29594,3.119045,-0.027024,-1.323346
831175.690618,0.14490351,0.24608385000000002,9.796079610000001,0.002434,0.001264,0.005726,-101.320038,100.553543,-115.021057,60.187689,24.830135,12.099435,15.077761,-1.0,-1.0,100.570656,0.29594,3.119076,-0.02704,-1.323327
831175.710603,0.15701886,0.26240768999999997,9.767189160000001,0.00523,-0.002764,0.004265,-101.589691,100.450775,-115.102753,60.187689,24.830135,12.099435,15.077761,-1.0,-1.0,100.570656,0.29594,3.119097,-0.027046,-1.323316
831175.730588,0.16301277,0.27812331,9.7579089,0.002347,0.001366,0.003803,-101.432953,100.589218,-115.251404,60.187689,24.830135,12.099435,15.077761,-1.0,-1.0,100.570656,0.29594,3.119118,-0.027051,-1.323304
831175.750573,0.15657741,0.25866027,9.77077962,0.002357,-0.000684,0.004708,-101.430649,100.523315,-115.257019,60.187689,24.830135,12.099435,15.077761,-1.0,-1.0,100.570656,0.29594,3.119156,-0.027051,-1.323297
831175.770557,0.15163317,0.25102809000000004,9.755515260000001,0.003714,-0.001216,0.001953,-101.521683,100.564667,-115.173401,60.187689,24.830135,12.099435,15.077761,-1.0,-1.0,100.570656,0.29594,3.11918,-0.02705,-1.323282
831175.790542,0.15612615,0.28021284,9.752817510000002,0.00122,-0.000528,0.003692,-101.470459,100.608261,-115.242584,60.187689,24.830135,12.099435,15.077761,-1.0,-1.0,100.570656,0.29594,3.119197,-0.027057,-1.323281
831175.810527,0.17244018,0.2689902,9.78290478,0.001105,-0.002478,0.002887,-101.546616,100.676743,-115.136856,60.187689,24.830135,12.099435,15.077761,-1.0,-1.0,100.570656,0.29594,3.119221,-0.027063,-1.323276
831175.830512,0.14759145,0.2718351,9.764942670000002,0.001883,0.001172,0.003778,-101.665161,100.560303,-115.179535,60.187689,24.830135,12.099435,15.077761,-1.0,-1.0,100.570656,0.29594,3.119247,-0.027064,-1.323261
831175.850497,0.16361118,0.28814913000000003,9.75207195,0.002729,-0.000362,0.004895,-101.556702,100.672134,-115.156784,60.187689,24.830135,12.099435,15.077761,-1.0,-1.0,100.570656,0.29594,3.119278,-0.027072,-1.323248
831175.870482,0.13801689,0.26001405,9.77692068,0.002078,-0.001211,0.004251,-101.473099,100.595657,-115.394272,60.187689,24.830135,12.099435,15.077761,-1.0,-1.0,100.570656,0.29594,3.119296,-0.027084,-1.323249
831175.890467,0.16076628,0.2721294,9.75865446,0.001461,0.001026,0.002926,-101.385986,100.780731,-115.191238,60.187689,24.830135,12.099435,15.077761,-1.0,-1.0,100.570656,0.29594,3.119309,-0.027089,-1.323245
831175.910451,0.15342840000000002,0.28650105,9.764491410000002,0.003541,-0.001615,0.005005,-101.776306,100.658371,-115.294754,60.187689,24.830135,12.099435,15.077761,-1.0,-1.0,100.570656,0.29594,3.119335,-0.027089,-1.323233
831175.930436,0.14969079000000002,0.26839179,9.76913154,0.001104,0.002974,0.00514,-101.328796,100.629974,-114.869354,60.187689,24.830135,12.099435,15.077761,-1.0,-1.0,100.570656,0.29594,3.119344,-0.027097,-1.323227
831175.950421,0.15282999000000003,0.27243351000000005,9.76508982,0.002856,-0.000462,0.003656,-101.535141,100.634644,-115.098938,60.187689,24.830135,12.099435,15.077761,-1.0,-1.0,100.570656,0.29594,3.119359,-0.027089,-1.323232
831175.950421,0.15282999000000003,0.27243351000000005,9.76508982,0.002856,-0.000462,0.003656,-101.535141,100.634644,-115.098938,60.187689,24.830135,12.099435,15.077761,-1.0,-1.0,100.570656,0.29594,3.119359,-0.027089,-1.323232
831175.990391,0.15447807000000002,0.27078543,9.79189074,0.00067,0.001701,0.003544,-101.569534,100.552948,-115.148926,60.187689,24.830135,12.099435,15.077761,-1.0,-1.0,100.570656,0.29594,3.119396,-0.027093,-1.323222
831176.010376,0.15373251000000002,0.26808768000000005,9.765246780000002,0.002986,-0.001348,0.004628,-101.520645,100.657822,-115.128555,60.187689,24.830135,12.099435,15.077761,-1.0,-1.0,100.570656,0.29594,3.119425,-0.027096,-1.323209
831176.050346,0.15163317,0.26135802,9.77063247,0.0015,-0.000297,0.001723,-101.522537,100.557465,-115.403137,60.187689,24.830135,12.099435,15.077761,-1.0,-1.0,100.570656,0.29594,3.11951,-0.027082,-1.323179
831176.070331,0.16346403,0.2604555,9.76135221,0.003847,-0.002019,0.00489,-101.523544,100.559372,-115.256439,60.187689,24.830135,12.099435,15.077761,-1.0,-1.0,100.570656,0.29594,3.119559,-0.027092,-1.323166
831176.090316,0.16375833,0.26284914,9.7894971,0.00097,0.000733,0.003717,-101.704147,100.438431,-115.396255,60.187689,24.830135,12.099435,15.077761,-1.0,-1.0,100.570656,0.29594,3.119622,-0.027085,-1.323168
831176.110301,0.15237873000000002,0.26569404,9.76434426,0.004364,-0.002456,0.002866,-101.680038,100.438873,-115.218048,60.187689,24.830135,12.099435,15.077761,-1.0,-1.0,100.570656,0.29594,3.119698,-0.027056,-1.323161
831176.130286,0.15538058999999999,0.26794053,9.77976558,0.0009,-0.001264,0.005788,-101.389908,100.576569,-115.293655,60.187689,24.830135,12.099435,15.077761,-1.0,-1.0,100.570656,0.29594,3.11977,-0.027052,-1.323157
831176.150271,0.13037490000000002,0.26539974000000005,9.77601816,0.001365,-0.002072,0.004613,-101.414001,100.524078,-115.467438,60.187689,24.830135,12.099435,15.077761,-1.0,-1.0,100.570656,0.29594,3.119843,-0.027043,-1.323158
831176.170256,0.15373251000000002,0.26884305000000003,9.76988691,0.004021,-0.00057,0.005377,-101.527969,100.58252,-115.071655,60.187689,24.830135,12.099435,15.077761,-1.0,-1.0,100.570656,0.29594,3.119894,-0.027024,-1.323145
831176.190241,0.15822549000000002,0.26779338,9.77392863,0.001136,0.000528,0.004211,-101.53772,100.462524,-115.070236,60.187689,24.830135,12.099435,15.077761,-1.0,-1.0,100.570656,0.29594,3.119943,-0.027035,-1.323148
831176.210225,0.13666311,0.26869590000000004,9.771525180000001,0.003788,-0.002743,0.00413,-101.536682,100.528549,-115.13591,60.187689,24.830135,12.099435,15.077761,-1.0,-1.0,100.570656,0.29594,3.120025,-0.027032,-1.323129
831176.23021,0.15373251000000002,0.28261629000000005,9.74982546,0.002925,0.001531,0.0027,-101.628418,100.491821,-115.101074,60.187689,24.830135,12.099435,15.077761,-1.0,-1.0,100.570656,0.29594,3.120061,-0.027042,-1.323109
831176.250195,0.14414814,0.25416729000000005,9.76659075,0.002815,-0.000961,0.004418,-101.316849,100.690384,-115.140091,60.187689,24.830135,12.099435,15.077761,-1.0,-1.0,100.570656,0.29594,3.120141,-0.02706,-1.323089
831176.27018,0.15268284000000001,0.26704782,9.7490799,0.003451,-0.000869,0.004885,-101.382187,100.411407,-115.107437,60.187689,24.830135,12.099435,15.077761,-1.0,-1.0,100.570656,0.29594,3.1202,-0.027082,-1.323089
831176.290165,0.15612615,0.27587682,9.74817738,0.001785,0.000524,0.003817,-101.415939,100.452698,-115.164108,60.187689,24.830135,12.099435,15.077761,-1.0,-1.0,100.570656,0.29594,3.120248,-0.027089,-1.32308
831176.31015,0.15612615,0.26569404,9.76060665,0.003958,-0.002682,0.004454,-101.415939,100.452698,-115.164108,60.187689,24.830135,12.099435,15.077761,-1.0,-1.0,100.570656,0.29594,3.12027,-0.027077,-1.323073
831176.330135,0.13965516,0.25866027,9.767189160000001,0.002342,0.000932,0.004438,-101.581406,100.655075,-115.018463,60.187689,24.830135,12.099435,15.077761,-1.0,-1.0,100.570656,0.29594,3.120268,-0.027092,-1.323083
831176.350119,0.14010642,0.26869590000000004,9.74952135,0.00218,-0.000272,0.005711,-101.413086,100.578506,-115.069595,60.187689,24.830135,12.099435,15.077761,-1.0,-1.0,100.570656,0.29594,3.120287,-0.027101,-1.323061
831176.370104,0.15552774,0.2604555,9.751169430000001,0.00365,-0.000915,0.00481,-101.491776,100.64978,-115.197266,60.187689,24.830135,12.099435,15.077761,-1.0,-1.0,100.570656,0.29594,3.120296,-0.027095,-1.323056
831176.390089,0.14789556,0.26748927,9.76030254,0.001247,0.00043,0.002793,-101.39267,100.738174,-115.136185,60.187689,24.830135,12.099435,15.077761,-1.0,-1.0,100.570656,0.29594,3.120309,-0.027107,-1.32305
831176.410074,0.15328125,0.26748927,9.74683341,0.002825,-0.000123,0.005723,-101.380966,100.651474,-115.130798,60.187689,24.830135,12.099435,15.077761,-1.0,-1.0,100.570656,0.29594,3.120305,-0.027094,-1.323045
831176.430059,0.15956946,0.26150517,9.784101600000001,0.001996,0.001161,0.005071,-101.311264,100.784668,-114.900986,60.187689,24.830135,12.099435,15.077761,-1.0,-1.0,100.570656,0.29594,3.120313,-0.027095,-1.323054
831176.450044,0.15148602000000003,0.25806186000000003,9.75700638,0.003032,-0.000125,0.002768,-101.375351,100.812805,-114.981827,60.187689,24.830135,12.099435,15.077761,-1.0,-1.0,100.570656,0.29594,3.120324,-0.027091,-1.323044
831176.470029,0.15328125,0.28845324,9.7547697,0.005494,-0.00078,0.004059,-101.183502,100.912491,-114.946671,60.187689,24.830135,12.099435,15.077761,-1.0,-1.0,100.570656,0.29594,3.12032,-0.027089,-1.323037
831176.490014,0.14130324,0.26255484,9.78589683,0.001237,0.001425,0.00447,-101.232376,101.039566,-114.906189,60.187689,24.830135,12.099435,15.077761,-1.0,-1.0,100.570656,0.29594,3.12033,-0.027105,-1.323022
831176.509998,0.14534496,0.28021284,9.767934720000001,0.002846,-0.00383,0.002505,-101.17363,100.807999,-115.109894,60.187689,24.830135,12.099435,15.077761,-1.0,-1.0,100.570656,0.29594,3.12033,-0.027098,-1.323033
831176.529983,0.14864112000000002,0.26344755000000003,9.772133400000001,0.003368,0.000325,0.004398,-101.209991,100.788666,-115.056198,60.187689,24.830135,12.099435,15.077761,-1.0,-1.0,100.570656,0.29594,3.120346,-0.027084,-1.323023
831176.549968,0.14759145,0.27482715,9.7781175,0.001382,-0.000639,0.003855,-101.289627,100.881104,-115.314117,60.187689,24.830135,12.099435,15.077761,-1.0,-1.0,100.570656,0.29594,3.12036,-0.027071,-1.323031
831176.589938,0.15522363,0.28096821,9.77781339,0.001292,0.002461,0.00349,-101.33667,100.850555,-115.210648,60.187689,24.830135,12.099435,15.077761,-1.0,-1.0,100.570656,0.29594,3.120436,-0.027087,-1.323022
831176.609923,0.15253569,0.25701219000000003,9.775272600000001,0.004371,-0.002259,0.00489,-101.46048,100.821381,-115.171982,60.187689,24.830135,12.099435,15.077761,-1.0,-1.0,100.570656,0.29594,3.120506,-0.027082,-1.323032
831176.609923,0.15253569,0.25701219000000003,9.775272600000001,0.004371,-0.002259,0.00489,-101.46048,100.821381,-115.171982,60.187689,24.830135,12.099435,15.077761,-1.0,-1.0,100.570656,0.29594,3.120506,-0.027082,-1.323032
831176.649893,0.16346403,0.26389881000000004,9.78814332,0.00243,-0.001094,0.003567,-101.38887,100.807983,-115.441711,60.187689,24.830135,12.099435,15.077761,-1.0,-1.0,100.570457,0.314438,3.120617,-0.027095,-1.323021
831176.669877,0.15806852999999998,0.26465418,9.77362452,0.003255,-0.000847,0.005316,-101.587997,100.647614,-115.202698,60.187689,24.830135,12.099435,15.077761,-1.0,-1.0,100.570457,0.314438,3.120679,-0.027091,-1.323026
831176.669877,0.15806852999999998,0.26465418,9.77362452,0.003255,-0.000847,0.005316,-101.587997,100.647614,-115.202698,60.187689,24.830135,12.099435,15.077761,-1.0,-1.0,100.570457,0.314438,3.120679,-0.027091,-1.323026
831176.709847,0.16690734000000002,0.27677934,9.76764042,0.002804,-0.002045,0.005078,-101.418594,100.771896,-115.44548,60.187689,24.830135,12.099435,15.077761,-1.0,-1.0,100.570457,0.314438,3.120743,-0.027066,-1.323001
831176.729832,0.15358536,0.25536411,9.77377167,0.002115,-0.001156,0.002894,-101.364136,100.84549,-115.373672,60.187689,24.830135,12.099435,15.077761,-1.0,-1.0,100.570457,0.314438,3.12078,-0.027053,-1.323009
831176.749817,0.15462522000000004,0.26779338,9.78455286,0.002437,-8.3e-05,0.002653,-101.422073,100.785767,-115.430862,60.187689,24.830135,12.099435,15.077761,-1.0,-1.0,100.570457,0.314438,3.120799,-0.027042,-1.322996
831176.769802,0.15672456,0.26195643,9.755515260000001,0.003408,-0.002976,0.00452,-101.45166,100.716904,-114.992523,60.187689,24.830135,12.099435,15.077761,-1.0,-1.0,100.570457,0.314438,3.120837,-0.027047,-1.322985
831176.789787,0.15193728,0.27513126000000004,9.77976558,0.001992,0.000243,0.005592,-101.575272,100.94606,-115.15065,60.187689,24.830135,12.099435,15.077761,-1.0,-1.0,100.570457,0.314438,3.120881,-0.027034,-1.322982
831176.809772,0.15253569,0.27872172,9.75312162,0.002319,-0.001058,0.003002,-101.502518,100.680374,-115.46167,60.187689,24.830135,12.099435,15.077761,-1.0,-1.0,100.570457,0.314438,3.120905,-0.027021,-1.322982
831176.829757,0.14505066000000003,0.26689086,9.76539393,0.002893,-0.000466,0.004845,-101.343704,100.855896,-115.412415,60.187689,24.830135,12.099435,15.077761,-1.0,-1.0,100.570457,0.314438,3.120932,-0.027,-1.322968
831176.849741,0.14878827,0.27812331,9.74458692,0.002596,-0.000734,0.004828,-101.378723,100.834045,-115.291962,60.187689,24.830135,12.099435,15.077761,-1.0,-1.0,100.570457,0.314438,3.120967,-0.026998,-1.322971
831176.869726,0.16016787000000002,0.27482715,9.77347737,0.004514,0.000138,0.004916,-101.454727,100.649185,-115.370255,60.187689,24.830135,12.099435,15.077761,-1.0,-1.0,100.570457,0.314438,3.120987,-0.026995,-1.32297
831176.889711,0.15567489,0.25671789,9.771829290000001,0.000921,0.001212,0.003629,-101.289459,100.767639,-114.922287,60.187689,24.830135,12.099435,15.077761,-1.0,-1.0,100.570457,0.314438,3.121036,-0.027006,-1.322971
831176.909696,0.14759145,0.27572967000000004,9.74832453,0.004262,-0.001001,0.004519,-101.454651,100.877701,-115.196915,60.187689,24.830135,12.099435,15.077761,-1.0,-1.0,100.570457,0.314438,3.121061,-0.027001,-1.322958
831176.929681,0.16211025,0.27153099,9.77797035,0.002105,0.000893,0.00513,-101.398209,100.841095,-115.515152,60.187689,24.830135,12.099435,15.077761,-1.0,-1.0,100.570457,0.314438,3.121062,-0.026994,-1.32297
831176.949666,0.13711437,0.26525259,9.7664436,0.001973,1.4e-05,0.004386,-101.52037,100.666718,-115.319534,60.187689,24.830135,12.099435,15.077761,-1.0,-1.0,100.570457,0.314438,3.121066,-0.027001,-1.322977
831176.969651,0.15956946,0.27722079,9.755064,0.004779,-0.001434,0.00408,-101.320114,100.629471,-115.209503,60.187689,24.830135,12.099435,15.077761,-1.0,-1.0,100.570457,0.314438,3.121074,-0.027003,-1.322976
831176.989636,0.15687171,0.26629245,9.78829047,0.001355,0.000804,0.005225,-101.522903,100.785538,-115.03183,60.187689,24.830135,12.099435,15.077761,-1.0,-1.0,100.570457,0.314438,3.121089,-0.027001,-1.322964
831177.00962,0.15148602000000003,0.28515708,9.76120506,0.003736,-0.00086,0.004365,-101.570694,100.609848,-115.337662,60.187689,24.830135,12.099435,15.077761,-1.0,-1.0,100.570457,0.314438,3.121122,-0.02699,-1.322969
831177.029605,0.1505835,0.26539974000000005,9.76030254,0.002805,1e-05,0.004845,-101.570694,100.609848,-115.337662,60.187689,24.830135,12.099435,15.077761,-1.0,-1.0,100.570457,0.314438,3.121135,-0.026998,-1.32297
831177.04959,0.15971661,0.26494848000000004,9.787692060000001,0.000714,-0.002235,0.004302,-101.617065,100.761368,-115.232986,60.187689,24.830135,12.099435,15.077761,-1.0,-1.0,100.570457,0.314438,3.121159,-0.026995,-1.322951
831177.069575,0.15268284000000001,0.27932013,9.75880161,0.003599,-0.001559,0.003344,-101.527725,100.76828,-115.156754,60.187689,24.830135,12.099435,15.077761,-1.0,-1.0,100.570457,0.314438,3.121166,-0.026993,-1.322948
831177.08956,0.15582204,0.26958861,9.76090095,0.003699,0.001752,0.003459,-101.544495,100.683258,-115.207047,60.187689,24.830135,12.099435,15.077761,-1.0,-1.0,100.570457,0.314438,3.121185,-0.026983,-1.32294
831177.109545,0.14759145,0.26554689,9.78649524,0.002032,-0.001368,0.002617,-101.466797,100.576767,-115.041061,60.187689,24.830135,12.099435,15.077761,-1.0,-1.0,100.570457,0.314438,3.121202,-0.026984,-1.322928
831177.12953,0.1505835,0.26480133,9.75850731,0.003064,0.000386,0.00437,-101.39299,100.719971,-115.133987,60.187689,24.830135,12.099435,15.077761,-1.0,-1.0,100.570457,0.314438,3.121216,-0.026961,-1.322927
831177.149515,0.14579622,0.27437589,9.764942670000002,0.002758,0.000516,0.004073,-101.4646,100.83847,-114.981201,60.187689,24.830135,12.099435,15.077761,-1.0,-1.0,100.570457,0.314438,3.121238,-0.026963,-1.322908
831177.189484,0.15538058999999999,0.27258066000000003,9.76195062,0.002251,0.000536,0.004763,-101.601944,100.718765,-115.218353,60.187689,24.830135,12.099435,15.077761,-1.0,-1.0,100.570457,0.314438,3.121244,-0.026957,-1.32291
831177.209469,0.15642045000000002,0.27018702,9.755064,0.003687,-0.00016,0.003351,-101.652298,100.779312,-115.285721,60.187689,24.830135,12.099435,15.077761,-1.0,-1.0,100.570457,0.314438,3.121243,-0.026953,-1.322915
831177.209469,0.15642045000000002,0.27018702,9.755064,0.003687,-0.00016,0.003351,-101.652298,100.779312,-115.285721,60.187689,24.830135,12.099435,15.077761,-1.0,-1.0,100.570457,0.314438,3.121243,-0.026953,-1.322915
831177.249439,0.14354973000000001,0.28141947,9.755211150000001,0.001886,-0.000802,0.004198,-101.579926,100.531311,-115.257263,60.187689,24.830135,12.099435,15.077761,-1.0,-1.0,100.570457,0.314438,3.121284,-0.026936,-1.322907
831177.269424,0.15732297,0.27108954,9.77646942,0.003731,-0.00062,0.005814,-101.450134,100.64624,-115.212708,60.187689,24.830135,12.099435,15.077761,-1.0,-1.0,100.570457,0.314438,3.121295,-0.026902,-1.322901
831177.289409,0.14878827,0.26195643,9.771525180000001,0.003335,0.000908,0.00358,-101.444,100.74678,-115.449341,60.187689,24.830135,12.099435,15.077761,-1.0,-1.0,100.570457,0.314438,3.121314,-0.026897,-1.322914
831177.309394,0.16361118,0.2863539,9.75836016,0.003247,-0.000563,0.004072,-101.688019,100.598221,-115.257965,60.187689,24.830135,12.099435,15.077761,-1.0,-1.0,100.570457,0.314438,3.121336,-0.026886,-1.322896
831177.329379,0.14878827,0.26734212,9.77632227,0.003857,-0.000264,0.004268,-101.494156,100.596451,-115.228561,60.187689,24.830135,12.099435,15.077761,-1.0,-1.0,100.570457,0.314438,3.121367,-0.026884,-1.322885
831177.349363,0.15387966,0.27138384000000004,9.78934014,-8.4e-05,0.000233,0.003604,-101.662964,100.644028,-115.323288,60.187689,24.830135,12.099435,15.077761,-1.0,-1.0,100.570457,0.314438,3.121399,-0.026881,-1.322874
831177.369348,0.16181595000000001,0.26435007,9.772280550000001,0.004697,-0.00088,0.0041,-101.63623,100.620117,-115.330612,60.187689,24.830135,12.099435,15.077761,-1.0,-1.0,100.570457,0.314438,3.121421,-0.026868,-1.322866
831177.389333,0.15118191,0.26958861,9.77976558,0.002374,0.001584,0.004794,-101.461395,100.638504,-115.135834,60.187689,24.830135,12.099435,15.077761,-1.0,-1.0,100.570457,0.314438,3.121439,-0.026858,-1.32288
831177.409318,0.16016787000000002,0.2803698,9.77437008,0.003131,0.000861,0.004728,-101.501434,100.867966,-115.212433,60.187689,24.830135,12.099435,15.077761,-1.0,-1.0,100.570457,0.314438,3.121465,-0.026857,-1.322876
831177.429303,0.15986376000000002,0.26989272000000003,9.76464837,0.002038,1.1e-05,0.001616,-101.537872,100.921768,-115.434509,60.187689,24.830135,12.099435,15.077761,-1.0,-1.0,100.570457,0.314438,3.121501,-0.02685,-1.322873
831177.449288,0.14998509000000002,0.25956279,9.78529842,0.002207,-0.000254,0.003402,-101.461243,100.964142,-114.978592,60.187689,24.830135,12.099435,15.077761,-1.0,-1.0,100.570457,0.314438,3.12152,-0.026844,-1.32287
831177.469273,0.15342840000000002,0.26944146,9.77467419,0.004611,-0.001474,0.003856,-101.428268,100.922348,-115.595337,60.187689,24.830135,12.099435,15.077761,-1.0,-1.0,100.570457,0.314438,3.121525,-0.026834,-1.322864
831177.489258,0.15492933000000003,0.27317907,9.76224492,0.00306,0.001291,0.004537,-101.324478,100.871887,-115.238968,60.187689,24.830135,12.099435,15.077761,-1.0,-1.0,100.570457,0.314438,3.121538,-0.026824,-1.322857
831177.509243,0.15507648,0.28261629000000005,9.7812567,0.003382,-0.002209,0.003639,-101.359879,100.846069,-115.372101,60.187689,24.830135,12.099435,15.077761,-1.0,-1.0,100.570457,0.314438,3.12158,-0.026815,-1.322854
831177.529227,0.16930098,0.27841761000000004,9.775871010000001,0.001746,0.000966,0.005651,-101.467957,100.518616,-115.20343,60.187689,24.830135,12.099435,15.077761,-1.0,-1.0,100.570457,0.314438,3.121597,-0.026819,-1.322863
831177.549212,0.14340258,0.28665801,9.7465293,0.002966,0.001072,0.00473,-101.417007,100.869843,-115.26767,60.187689,24.830135,12.099435,15.077761,-1.0,-1.0,100.570457,0.314438,3.12162,-0.026818,-1.322857
831177.569197,0.16211025,0.26958861,9.772280550000001,0.004862,-0.001563,0.004578,-101.443054,100.835663,-115.266098,60.187689,24.830135,12.099435,15.077761,-1.0,-1.0,100.570457,0.314438,3.121652,-0.026809,-1.322843
831177.589182,0.14773860000000003,0.26674371,9.799974180000001,0.002256,0.00131,0.003261,-101.52356,100.785172,-115.394547,60.187689,24.830135,12.099435,15.077761,-1.0,-1.0,100.570457,0.314438,3.121675,-0.026817,-1.32283
831177.609167,0.15342840000000002,0.2775249,9.743537250000001,0.002173,-0.000689,0.003949,-101.507935,100.647522,-115.438217,60.187689,24.830135,12.099435,15.077761,-1.0,-1.0,100.570457,0.314438,3.121697,-0.026822,-1.322799
831177.629152,0.16121754000000002,0.28515708,9.76149936,0.004137,8.3e-05,0.003863,-101.589951,100.784576,-115.35939,60.187689,24.830135,12.099435,15.077761,-1.0,-1.0,100.570457,0.314438,3.121707,-0.026805,-1.322791
831177.649137,0.16121754000000002,0.27093258000000003,9.76913154,0.001054,0.000443,0.003812,-101.549698,100.717194,-115.265274,60.187689,24.830135,12.099435,15.077761,-1.0,-1.0,100.570457,0.314438,3.121711,-0.026801,-1.322796
831177.669122,0.15178032,0.27872172,9.74832453,0.002909,-0.002136,0.004078,-101.454453,101.110596,-115.09993,60.187689,24.830135,12.099435,15.077761,-1.0,-1.0,100.570457,0.314438,3.121725,-0.026789,-1.322767
831177.689107,0.15148602000000003,0.28216503000000004,9.75386718,0.003608,0.000899,0.00662,-101.455338,100.858505,-115.489975,60.187689,24.830135,12.099435,15.077761,-1.0,-1.0,100.570457,0.314438,3.121725,-0.026767,-1.322765
831177.709091,0.13950801,0.26195643,9.77257485,0.002101,9e-06,0.003614,-101.414246,100.951736,-115.307693,60.187689,24.830135,12.099435,15.077761,-1.0,-1.0,100.57032,0.325005,3.121722,-0.026769,-1.322762
831177.729076,0.16330707,0.2689902,9.76254903,0.002939,-0.000279,0.003846,-101.414246,100.951736,-115.307693,60.187689,24.830135,12.099435,15.077761,-1.0,-1.0,100.57032,0.325005,3.12172,-0.026771,-1.322752
831177.749061,0.14086179000000001,0.27857457,9.759851280000001,0.002538,0.001398,0.00503,-101.636169,100.785904,-115.868607,60.187689,24.830135,12.099435,15.077761,-1.0,-1.0,100.57032,0.325005,3.12173,-0.026768,-1.322743
831177.769046,0.15701886,0.25806186000000003,9.77886306,0.003231,-0.001226,0.003985,-101.423126,101.041931,-115.5793,60.187689,24.830135,12.099435,15.077761,-1.0,-1.0,100.57032,0.325005,3.121736,-0.026758,-1.322742
831177.809016,0.15328125,0.27827046,9.7812567,0.002835,-0.001314,0.004234,-101.433121,100.970047,-115.328049,60.187689,24.830135,12.099435,15.077761,-1.0,-1.0,100.57032,0.325005,3.121766,-0.026743,-1.322731
831177.829001,0.16406244,0.26135802,9.79398027,0.004335,-0.000352,0.004324,-101.443115,100.963303,-115.388702,60.187689,24.830135,12.099435,15.077761,-1.0,-1.0,100.57032,0.325005,3.121777,-0.026739,-1.322716
831177.848986,0.15268284000000001,0.26853894,9.7866522,0.001167,-0.000796,0.002692,-101.552841,100.885742,-115.119766,60.187689,24.830135,12.099435,15.077761,-1.0,-1.0,100.57032,0.325005,3.121807,-0.026757,-1.32271
831177.868971,0.14729715000000002,0.28620675,9.77003406,0.005697,-0.000852,0.004801,-101.568039,100.965363,-114.985886,60.187689,24.830135,12.099435,15.077761,-1.0,-1.0,100.57032,0.325005,3.121826,-0.026761,-1.322708
831177.888955,0.14849397,0.27722079,9.78874173,0.000536,5e-05,0.002341,-101.491608,100.919998,-115.143295,60.187689,24.830135,12.099435,15.077761,-1.0,-1.0,100.57032,0.325005,3.12184,-0.026783,-1.322694
831177.90894,0.16540641000000003,0.27363033000000003,9.76554108,0.001737,-0.001288,0.005193,-101.506363,101.034805,-115.376663,60.187689,24.830135,12.099435,15.077761,-1.0,-1.0,100.57032,0.325005,3.121846,-0.026772,-1.322678
831177.928925,0.14025357000000002,0.26614530000000003,9.80565417,0.002726,-0.000839,0.003767,-101.480774,100.908752,-115.266327,60.187689,24.830135,12.099435,15.077761,-1.0,-1.0,100.57032,0.325005,3.121849,-0.026772,-1.322687
831177.94891,0.13921371000000002,0.27572967000000004,9.76898439,0.002143,-0.00012,0.002491,-101.434631,100.887146,-115.247543,60.187689,24.830135,12.099435,15.077761,-1.0,-1.0,100.57032,0.325005,3.121868,-0.026774,-1.322687
831177.94891,0.13921371000000002,0.27572967000000004,9.76898439,0.002143,-0.00012,0.002491,-101.434631,100.887146,-115.247543,60.187689,24.830135,12.099435,15.077761,-1.0,-1.0,100.57032,0.325005,3.121868,-0.026774,-1.322687
831177.98888,0.14909238,0.26719497000000003,9.76988691,0.001939,0.000359,0.004352,-101.696335,100.763504,-115.618378,60.187689,24.830135,12.099435,15.077761,-1.0,-1.0,100.57032,0.325005,3.121897,-0.026775,-1.322667
831178.008865,0.15074046,0.26748927,9.7667379,0.002774,-0.001086,0.005331,-101.481079,100.877365,-115.477951,60.187689,24.830135,12.099435,15.077761,-1.0,-1.0,100.57032,0.325005,3.12191,-0.026772,-1.322658
831178.02885,0.16286562,0.26569404,9.76284333,0.00257,0.000369,0.004673,-101.628098,100.72966,-115.353256,60.187689,24.830135,12.099435,15.077761,-1.0,-1.0,100.57032,0.325005,3.121926,-0.026767,-1.322655
831178.048835,0.15492933000000003,0.26958861,9.767934720000001,0.000839,0.000646,0.004642,-101.519073,100.799561,-115.353134,60.187689,24.830135,12.099435,15.077761,-1.0,-1.0,100.57032,0.325005,3.121946,-0.026766,-1.322652
831178.068819,0.14190165000000002,0.2863539,9.74607804,0.004071,-0.000126,0.003591,-101.493332,100.899109,-115.852402,60.187689,24.830135,12.099435,15.077761,-1.0,-1.0,100.57032,0.325005,3.121963,-0.026761,-1.322651
831178.088804,0.15567489,0.26360451,9.771829290000001,0.002498,0.001614,0.003824,-101.504028,100.875549,-115.461197,60.187689,24.830135,12.099435,15.077761,-1.0,-1.0,100.57032,0.325005,3.121989,-0.026748,-1.322645
831178.108789,0.1502892,0.26884305000000003,9.7695828,0.003515,4.9e-05,0.004738,-101.441681,100.901031,-115.476166,60.187689,24.830135,12.099435,15.077761,-1.0,-1.0,100.57032,0.325005,3.122012,-0.026737,-1.322634
831178.128774,0.15462522000000004,0.26180928000000003,9.75776175,0.004365,0.000269,0.005935,-101.65419,100.850479,-115.329147,60.187689,24.830135,12.099435,15.077761,-1.0,-1.0,100.57032,0.325005,3.12202,-0.026742,-1.322624
831178.148759,0.14534496,0.2749743,9.77751909,0.003243,0.001231,0.00318,-101.654633,100.99382,-115.292618,60.187689,24.830135,12.099435,15.077761,-1.0,-1.0,100.57032,0.325005,3.122037,-0.026746,-1.322634
831178.168744,0.14400099,0.27063828,9.759851280000001,0.005267,-0.000818,0.004057,-101.610123,100.834457,-115.472641,60.187689,24.830135,12.099435,15.077761,-1.0,-1.0,100.57032,0.325005,3.122064,-0.026749,-1.322642
831178.188729,0.15178032,0.27767205,9.7607538,0.000588,0.001538,0.005637,-101.664642,100.800766,-115.548416,60.187689,24.830135,12.099435,15.077761,-1.0,-1.0,100.57032,0.325005,3.122072,-0.026732,-1.32263
831178.208714,0.15088761,0.26150517,9.77991273,0.00379,-0.000891,0.003762,-101.73645,100.81485,-115.600098,60.187689,24.830135,12.099435,15.077761,-1.0,-1.0,100.57032,0.325005,3.122091,-0.026723,-1.322637
831178.228699,0.14759145,0.26913735,9.77737194,0.004816,0.000435,0.004358,-101.453171,100.804855,-115.599182,60.187689,24.830135,12.099435,15.077761,-1.0,-1.0,100.57032,0.325005,3.122093,-0.026718,-1.322628
831178.248683,0.14818986,0.28470582,9.77721498,0.002702,0.000731,0.005222,-101.57872,100.832779,-115.18779,60.187689,24.830135,12.099435,15.077761,-1.0,-1.0,100.57032,0.325005,3.122113,-0.026724,-1.322609
831178.268668,0.14759145,0.26659656,9.80101404,0.004067,0.0001,0.003043,-101.38414,100.842896,-115.063293,60.187689,24.830135,12.099435,15.077761,-1.0,-1.0,100.57032,0.325005,3.122123,-0.026712,-1.322627
831178.288653,0.15387966,0.28081125,9.784101600000001,0.003458,0.001617,0.003802,-101.507095,100.966721,-115.211151,60.187689,24.830135,12.099435,15.077761,-1.0,-1.0,100.57032,0.325005,3.122137,-0.026721,-1.322626
831178.308638,0.16002072,0.26853894,9.77377167,0.001722,-0.002418,0.00413,-101.785553,100.881042,-115.284286,60.187689,24.830135,12.099435,15.077761,-1.0,-1.0,100.57032,0.325005,3.122164,-0.026718,-1.322629
831178.348608,0.16076628,0.26629245,9.78485697,0.001505,0.000394,0.004801,-101.62822,100.725342,-115.594818,60.187689,24.830135,12.099435,15.077761,-1.0,-1.0,100.57032,0.325005,3.122168,-0.026712,-1.32262
831178.368593,0.15133887000000001,0.27018702,9.771230880000001,0.003409,-0.002809,0.006268,-101.475693,100.922348,-115.389359,60.187689,24.830135,12.099435,15.077761,-1.0,-1.0,100.57032,0.325005,3.122169,-0.026711,-1.322613
831178.388578,0.15133887000000001,0.26449722000000003,9.77512545,0.001991,-0.000286,0.005384,-101.569305,100.711044,-115.251587,60.187689,24.830135,12.099435,15.077761,-1.0,-1.0,100.57032,0.325005,3.122179,-0.02671,-1.322608
831178.408563,0.13921371000000002,0.28021284,9.77302611,0.002275,-0.003241,0.004369,-101.526764,100.823212,-115.335419,60.187689,24.830135,12.099435,15.077761,-1.0,-1.0,100.57032,0.325005,3.122186,-0.026699,-1.322596
831178.408563,0.13921371000000002,0.28021284,9.77302611,0.002275,-0.003241,0.004369,-101.526764,100.823212,-115.335419,60.187689,24.830135,12.099435,15.077761,-1.0,-1.0,100.57032,0.325005,3.122186,-0.026699,-1.322596
831178.448532,0.15178032,0.25686504,9.763598700000001,0.002061,0.001139,0.003458,-101.383896,100.805496,-115.047089,60.187689,24.830135,12.099435,15.077761,-1.0,-1.0,100.57032,0.325005,3.122204,-0.02669,-1.322577
831178.468517,0.1474443,0.2803698,9.75716334,0.005753,-0.000215,0.002919,-101.300583,100.847977,-115.246277,60.187689,24.830135,12.099435,15.077761,-1.0,-1.0,100.57032,0.325005,3.122229,-0.026691,-1.322577
831178.488502,0.14070483,0.26989272000000003,9.787692060000001,0.003729,0.000667,0.002074,-101.572952,100.874908,-115.237137,60.187689,24.830135,12.099435,15.077761,-1.0,-1.0,100.57032,0.325005,3.122248,-0.026705,-1.322564
831178.508487,0.15701886,0.26884305000000003,9.78245352,0.002903,-0.000635,0.004515,-101.511185,101.059738,-115.380859,60.187689,24.830135,12.099435,15.077761,-1.0,-1.0,100.57032,0.325005,3.122274,-0.026715,-1.322545
831178.528472,0.14100894,0.26554689,9.76913154,0.004767,0.000171,0.005212,-101.52092,100.914963,-115.260895,60.187689,24.830135,12.099435,15.077761,-1.0,-1.0,100.57032,0.325005,3.122272,-0.026712,-1.322541
831178.548457,0.16165899,0.26808768000000005,9.77347737,0.000585,-0.000418,0.003432,-101.530182,100.943649,-115.10495,60.187689,24.830135,12.099435,15.077761,-1.0,-1.0,100.57032,0.325005,3.122283,-0.026717,-1.322531
831178.568442,0.13981212,0.2484873,9.78889869,0.003978,-0.000238,0.004249,-101.320648,100.968704,-115.234207,60.187689,24.830135,12.099435,15.077761,-1.0,-1.0,100.57032,0.325005,3.122298,-0.026714,-1.322526
831178.588427,0.15223158,0.26210358,9.77392863,0.002518,0.000931,0.004247,-101.494476,100.826981,-115.037003,60.187689,24.830135,12.099435,15.077761,-1.0,-1.0,100.57032,0.325005,3.122307,-0.02671,-1.322506
831178.608412,0.14983794,0.27602397,9.77032836,0.003116,0.000258,0.005469,-101.354477,100.872986,-115.393326,60.187689,24.830135,12.099435,15.077761,-1.0,-1.0,100.57032,0.325005,3.122313,-0.026702,-1.322512
831178.628396,0.16406244,0.27198225000000004,9.78904584,0.003572,-0.000275,0.004631,-101.712982,100.993988,-115.314423,60.187689,24.830135,12.099435,15.077761,-1.0,-1.0,100.57032,0.325005,3.122328,-0.026699,-1.322523
831178.648381,0.14699304000000002,0.26315325,9.78335604,0.000595,-0.000325,0.004826,-101.482498,101.106903,-115.269989,60.187689,24.830135,12.099435,15.077761,-1.0,-1.0,100.57032,0.325005,3.122333,-0.026706,-1.322511
831178.668366,0.15552774,0.28111536000000004,9.78036399,0.004492,-0.001904,0.003681,-101.41658,101.054596,-115.324631,60.187689,24.830135,12.099435,15.077761,-1.0,-1.0,100.57032,0.325005,3.12235,-0.026694,-1.322516
831178.688351,0.14789556,0.27453285,9.787093650000001,0.002898,0.000399,0.00453,-101.464218,100.855362,-115.066193,60.187689,24.830135,12.099435,15.077761,-1.0,-1.0,100.57032,0.325005,3.122352,-0.026696,-1.322518
831178.708336,0.15402681000000001,0.27123669,9.77048532,0.001616,-0.000981,0.004007,-101.56662,101.02623,-115.026169,60.187689,24.830135,12.099435,15.077761,-1.0,-1.0,100.57032,0.325005,3.122367,-0.026704,-1.322521
831178.728321,0.16450389,0.27857457,9.775723860000001,0.004086,-0.000985,0.003193,-101.379166,101.05217,-114.954193,60.187689,24.830135,12.099435,15.077761,-1.0,-1.0,100.57032,0.325005,3.122368,-0.026686,-1.322511
831178.748306,0.1562733,0.26719497000000003,9.78545538,0.001089,0.001379,0.003787,-101.460968,101.023758,-115.58551,60.187689,24.830135,12.099435,15.077761,-1.0,-1.0,100.57032,0.325005,3.122379,-0.026677,-1.322506
831178.768291,0.14773860000000003,0.26449722000000003,9.771682140000001,0.002516,-0.003505,0.006069,-101.402206,101.192902,-115.239639,60.187689,24.830135,12.099435,15.077761,-1.0,-1.0,100.57032,0.325005,3.122406,-0.026662,-1.322493
831178.788276,0.14714019,0.26764623000000004,9.76404996,0.002581,-0.000585,0.002851,-101.387482,100.969223,-115.278046,60.187689,24.830135,12.099435,15.077761,-1.0,-1.0,100.57029,0.327648,3.122407,-0.026647,-1.322501
831178.80826,0.14550192,0.27078543,9.78515127,0.003491,-0.000598,0.004152,-101.511185,100.9991,-115.187363,60.187689,24.830135,12.099435,15.077761,-1.0,-1.0,100.57029,0.327648,3.122424,-0.02664,-1.322505
831178.828245,0.15552774,0.26375166,9.78560253,0.003015,-0.001315,0.005019,-101.424606,101.051727,-115.104874,60.187682,24.830119,13.504908,16.153298,-1.0,-1.0,100.57029,0.327648,3.122427,-0.026638,-1.322494
831178.84823,0.15043635,0.27602397,9.74428281,0.003547,0.001597,0.003039,-101.239838,101.266998,-115.086685,60.187682,24.830119,13.504908,16.153298,-1.0,-1.0,100.57029,0.327648,3.122424,-0.026632,-1.322485
831178.868215,0.15328125,0.26494848000000004,9.78545538,0.001731,-0.000624,0.004634,-101.313065,100.984238,-115.426361,60.187682,24.830119,13.504908,16.153298,-1.0,-1.0,100.57029,0.327648,3.122429,-0.026626,-1.32248
831178.908185,0.16121754000000002,0.27692649,9.7348554,0.002615,0.001113,0.005125,-101.466064,101.155396,-115.473801,60.187682,24.830119,13.504908,16.153298,-1.0,-1.0,100.57029,0.327648,3.122401,-0.026612,-1.322485
831178.92817,0.16390548000000002,0.27886887000000005,9.77407578,0.004142,-0.000176,0.003775,-101.628098,101.063568,-115.34581,60.187682,24.830119,13.504908,16.153298,-1.0,-1.0,100.57029,0.327648,3.12239,-0.026598,-1.322464
831178.948155,0.1386153,0.26360451,9.771525180000001,0.001222,0.002517,0.004789,-101.546387,101.105957,-115.445557,60.187682,24.830119,13.504908,16.153298,-1.0,-1.0,100.57029,0.327648,3.122379,-0.026585,-1.322466
831178.96814,0.15342840000000002,0.27587682,9.76628664,0.003946,-0.00088,0.0042,-101.301544,101.221024,-115.345398,60.187682,24.830119,13.504908,16.153298,-1.0,-1.0,100.57029,0.327648,3.122369,-0.026586,-1.322466
831178.988125,0.16165899,0.28470582,9.76464837,0.00536,0.001668,0.00388,-101.585327,100.915894,-115.263489,60.187682,24.830119,13.504908,16.153298,-1.0,-1.0,100.57029,0.327648,3.122358,-0.02658,-1.322464
831178.988125,0.16165899,0.28470582,9.76464837,0.00536,0.001668,0.00388,-101.585327,100.915894,-115.263489,60.187682,24.830119,13.504908,16.153298,-1.0,-1.0,100.57029,0.327648,3.122358,-0.02658,-1.322464
831179.028094,0.15956946,0.28231218,9.77661657,0.002913,-0.001709,0.00493,-101.417206,101.042053,-115.550964,60.187682,24.830119,13.504908,16.153298,-1.0,-1.0,100.57029,0.327648,3.12235,-0.026579,-1.322424
831179.048079,0.15163317,0.28201788,9.75207195,0.003439,0.001465,0.003935,-101.496552,100.958939,-115.32811,60.187682,24.830119,13.504908,16.153298,-1.0,-1.0,100.57029,0.327648,3.122351,-0.026577,-1.322431
831179.068064,0.14205861,0.25521696000000005,9.79697232,0.004832,-0.001407,0.005931,-101.446396,101.126389,-115.418518,60.187682,24.830119,13.504908,16.153298,-1.0,-1.0,100.57029,0.327648,3.122362,-0.026578,-1.322425
831179.088049,0.1591182,0.2573163,9.79024266,0.002618,5.3e-05,0.004164,-101.392731,101.014038,-115.701721,60.187682,24.830119,13.504908,16.153298,-1.0,-1.0,100.57029,0.327648,3.122366,-0.026607,-1.322421
831179.108034,0.15837263999999998,0.28381311,9.7490799,0.001138,0.001322,0.003604,-101.59285,100.900513,-115.427429,60.187682,24.830119,13.504908,16.153298,-1.0,-1.0,100.57029,0.327648,3.122368,-0.026584,-1.322428
831179.128019,0.16091343000000002,0.27018702,9.7866522,0.004706,-0.001964,0.004264,-101.488174,100.943634,-115.490814,60.187682,24.830119,13.504908,16.153298,-1.0,-1.0,100.57029,0.327648,3.122368,-0.026581,-1.322432
831179.148004,0.15223158,0.25791471,9.799974180000001,0.001687,0.001473,0.003336,-101.488174,100.943634,-115.490814,60.187682,24.830119,13.504908,16.153298,-1.0,-1.0,100.57029,0.327648,3.122363,-0.026584,-1.32243
831179.167989,0.15701886,0.27647523,9.77347737,0.003314,-0.000331,0.004267,-101.487274,101.068909,-115.546326,60.187682,24.830119,13.504908,16.153298,-1.0,-1.0,100.57029,0.327648,3.122352,-0.026577,-1.322414
831179.187973,0.15088761,0.27482715,9.78889869,0.003288,-0.000166,0.004698,-101.638992,100.877975,-115.599823,60.187682,24.830119,13.504908,16.153298,-1.0,-1.0,100.57029,0.327648,3.122349,-0.026564,-1.322409
831179.207958,0.16375833,0.26748927,9.80101404,0.001684,0.000737,0.003994,-101.427429,101.001175,-115.397827,60.187682,24.830119,13.504908,16.153298,-1.0,-1.0,100.57029,0.327648,3.122344,-0.026555,-1.322417
831179.227943,0.14954364,0.265851,9.77092677,0.004043,-0.002901,0.004284,-101.472046,101.139282,-115.311295,60.187682,24.830119,13.504908,16.153298,-1.0,-1.0,100.57029,0.327648,3.122341,-0.026546,-1.322417
831179.227943,0.14954364,0.265851,9.77092677,0.004043,-0.002901,0.004284,-101.472046,101.139282,-115.311295,60.187682,24.830119,13.504908,16.153298,-1.0,-1.0,100.57029,0.327648,3.122341,-0.026546,-1.322417
831179.267913,0.15462522000000004,0.2630061,9.78934014,0.003275,-0.002723,0.004291,-101.402802,101.183258,-115.210602,60.187682,24.830119,13.504908,16.153298,-1.0,-1.0,100.57029,0.327648,3.122355,-0.026531,-1.322423
831179.287898,0.15806852999999998,0.28336185,9.76584519,0.004124,0.000249,0.004183,-101.459717,100.986847,-115.511688,60.187682,24.830119,13.504908,16.153298,-1.0,-1.0,100.57029,0.327648,3.122356,-0.02654,-1.322433
831179.307883,0.14923953,0.27377748,9.76733631,0.001854,0.000818,0.004153,-101.363144,101.085068,-115.21521,60.187682,24.830119,13.504908,16.153298,-1.0,-1.0,100.57029,0.327648,3.122374,-0.026555,-1.322417
831179.327868,0.14983794,0.26748927,9.771525180000001,0.004864,-0.001498,0.003834,-101.379913,101.140198,-115.416824,60.187682,24.830119,13.504908,16.153298,-1.0,-1.0,100.57029,0.327648,3.12239,-0.026552,-1.322408
831179.347853,0.14490351,0.27228636,9.75776175,0.002303,0.001922,0.003351,-101.303833,101.198868,-115.29631,60.187682,24.830119,13.504908,16.153298,-1.0,-1.0,100.57029,0.327648,3.122394,-0.02655,-1.3224
831179.367838,0.15462522000000004,0.27363033000000003,9.77751909,0.004631,-0.00274,0.00459,-101.335968,101.244019,-115.354523,60.187682,24.830119,13.504908,16.153298,-1.0,-1.0,100.57029,0.327648,3.122407,-0.026543,-1.322395
831179.387822,0.15717582000000002,0.28530423000000005,9.76374585,0.002517,0.001092,0.003931,-101.329636,101.35762,-115.388214,60.187682,24.830119,13.504908,16.153298,-1.0,-1.0,100.57029,0.327648,3.122416,-0.026543,-1.322383
831179.407807,0.15074046,0.25416729000000005,9.77856876,0.002415,0.000928,0.003975,-101.488708,101.091202,-115.198227,60.187682,24.830119,13.504908,16.153298,-1.0,-1.0,100.57029,0.327648,3.122421,-0.026519,-1.322382
831179.427792,0.14429529,0.26121087000000004,9.77512545,0.003651,-0.003068,0.003118,-101.294708,101.068481,-115.307419,60.187682,24.830119,13.504908,16.153298,-1.0,-1.0,100.57029,0.327648,3.122437,-0.026518,-1.322389
831179.447777,0.14610033,0.28096821,9.747726120000001,0.001999,0.000897,0.002739,-101.509232,101.077225,-115.273376,60.187682,24.830119,13.504908,16.153298,-1.0,-1.0,100.57029,0.327648,3.122449,-0.026522,-1.322372
831179.467762,0.1474443,0.26644941,9.77601816,0.005092,-0.001617,0.004295,-101.360443,101.170273,-115.431976,60.187682,24.830119,13.504908,16.153298,-1.0,-1.0,100.57029,0.327648,3.122455,-0.026529,-1.322366
831179.487747,0.15118191,0.26704782,9.79457868,0.003798,-8.3e-05,0.002767,-101.326828,101.095154,-115.417374,60.187682,24.830119,13.504908,16.153298,-1.0,-1.0,100.57029,0.327648,3.122447,-0.026537,-1.322361
831179.527717,0.15552774,0.27333603,9.76434426,0.004508,-0.001396,0.004729,-101.481277,101.13942,-115.482468,60.187682,24.830119,13.504908,16.153298,-1.0,-1.0,100.57029,0.327648,3.122449,-0.02654,-1.322355
831179.547702,0.16256151,0.25940583,9.802966230000001,0.001182,0.001205,0.003383,-101.329849,101.42543,-115.459137,60.187682,24.830119,13.504908,16.153298,-1.0,-1.0,100.57029,0.327648,3.122458,-0.026537,-1.322359
831179.547702,0.16256151,0.25940583,9.802966230000001,0.001182,0.001205,0.003383,-101.329849,101.42543,-115.459137,60.187682,24.830119,13.504908,16.153298,-1.0,-1.0,100.57029,0.327648,3.122458,-0.026537,-1.322359
831179.587671,0.15806852999999998,0.27677934,9.77018121,0.003414,-0.000481,0.005638,-101.365952,101.094009,-115.383575,60.187682,24.830119,13.504908,16.153298,-1.0,-1.0,100.57029,0.327648,3.122457,-0.026524,-1.322351
831179.607656,0.14295132,0.26869590000000004,9.78919299,0.002817,-0.001047,0.003661,-101.351486,101.178665,-115.601624,60.187682,24.830119,13.504908,16.153298,-1.0,-1.0,100.57029,0.327648,3.122452,-0.026522,-1.322364
831179.627641,0.14115609,0.27018702,9.78919299,0.004241,-0.001541,0.004593,-101.582703,101.207001,-115.347839,60.187682,24.830119,13.504908,16.153298,-1.0,-1.0,100.57029,0.327648,3.122454,-0.026513,-1.322364
831179.647626,0.15328125,0.26913735,9.76913154,0.002321,0.002403,0.003789,-101.277817,101.26268,-115.283539,60.187682,24.830119,13.504908,16.153298,-1.0,-1.0,100.57029,0.327648,3.122464,-0.026494,-1.322349
831179.667611,0.17214588000000003,0.27243351000000005,9.76149936,0.003649,-0.000368,0.003985,-101.412811,101.121857,-115.45549,60.187682,24.830119,13.504908,16.153298,-1.0,-1.0,100.57029,0.327648,3.122471,-0.026484,-1.322343
831179.687596,0.15418377,0.26599815,9.784405710000001,0.00286,0.000664,0.005162,-101.41806,101.085144,-115.890091,60.187682,24.830119,13.504908,16.153298,-1.0,-1.0,100.57029,0.327648,3.122487,-0.026486,-1.322348
831179.707581,0.14325543000000002,0.27138384000000004,9.7695828,0.001951,0.001229,0.004489,-101.588776,101.078796,-115.863434,60.187682,24.830119,13.504908,16.153298,-1.0,-1.0,100.57029,0.327648,3.122502,-0.026482,-1.322344
831179.727566,0.14579622,0.27662238,9.78515127,0.005411,-0.002006,0.005887,-101.262238,101.232697,-115.72435,60.187682,24.830119,13.504908,16.153298,-1.0,-1.0,100.57029,0.327648,3.122517,-0.026474,-1.322333
831179.747551,0.15717582000000002,0.26375166,9.78529842,0.00285,0.001478,0.005385,-101.399933,101.172104,-115.806442,60.187682,24.830119,13.504908,16.153298,-1.0,-1.0,100.57029,0.327648,3.12252,-0.026486,-1.322331
831179.767535,0.13816404,0.25851312000000004,9.76508982,0.003801,-0.002162,0.003007,-101.424911,101.261688,-115.622559,60.187682,24.830119,13.504908,16.153298,-1.0,-1.0,100.57029,0.327648,3.122526,-0.026486,-1.322329
831179.78752,0.14309847,0.27273762,9.77032836,0.003238,0.000957,0.00523,-101.331024,101.130753,-115.6978,60.187682,24.830119,13.504908,16.153298,-1.0,-1.0,100.57029,0.327648,3.122529,-0.026495,-1.322326
831179.807505,0.15402681000000001,0.26509562999999997,9.79248915,0.001362,0.000177,0.004823,-101.404861,101.285583,-115.605606,60.187682,24.830119,13.504908,16.153298,-1.0,-1.0,100.57029,0.327648,3.122554,-0.02649,-1.32233
831179.82749,0.15701886,0.27018702,9.77407578,0.00372,-0.002839,0.003029,-101.308212,101.192474,-115.344376,60.187682,24.830119,13.504908,16.153298,-1.0,-1.0,100.57029,0.327648,3.122564,-0.026476,-1.322333
831179.847475,0.14833701000000002,0.2806641,9.77257485,0.001978,0.001153,0.00584,-101.343765,100.930161,-115.474625,60.187682,24.830119,13.504908,16.153298,-1.0,-1.0,100.57029,0.327648,3.122574,-0.026465,-1.322314
831179.86746,0.14400099,0.27408159,9.77797035,0.004568,-0.001011,0.003884,-101.343765,100.930161,-115.474625,60.187682,24.830119,13.504908,16.153298,-1.0,-1.0,100.570045,0.348785,3.122589,-0.026443,-1.322319
831179.887445,0.16930098,0.26748927,9.783208890000001,0.004487,-0.000714,0.002579,-101.547119,100.861572,-115.584732,60.187682,24.830119,13.504908,16.153298,-1.0,-1.0,100.570045,0.348785,3.122587,-0.026434,-1.322291
831179.90743,0.14669874000000002,0.27153099,9.76764042,0.002487,0.000522,0.005622,-101.388519,101.206757,-115.593826,60.187682,24.830119,13.504908,16.153298,-1.0,-1.0,100.570045,0.348785,3.1226,-0.026444,-1.322276
831179.9474,0.13636881,0.27123669,9.76659075,0.002785,0.001821,0.004054,-101.340363,101.202423,-115.862854,60.187682,24.830119,13.504908,16.153298,-1.0,-1.0,100.570045,0.348785,3.122606,-0.02645,-1.322285
831179.967385,0.15492933000000003,0.27961443,9.772280550000001,0.006007,-0.001784,0.003532,-101.380997,101.261353,-115.65535,60.187682,24.830119,13.504908,16.153298,-1.0,-1.0,100.570045,0.348785,3.122629,-0.026454,-1.322284
831179.987369,0.15193728,0.25791471,9.783503190000001,0.004419,-0.000152,0.004184,-101.443649,101.19458,-115.684601,60.187682,24.830119,13.504908,16.153298,-1.0,-1.0,100.570045,0.348785,3.122634,-0.026448,-1.322295
831180.007354,0.13682007,0.26629245,9.751169430000001,0.002916,0.00045,0.003494,-101.408936,101.154861,-115.728668,60.187682,24.830119,13.504908,16.153298,-1.0,-1.0,100.570045,0.348785,3.12264,-0.026447,-1.322291
831180.027339,0.15253569,0.26629245,9.78170796,0.005503,-0.00088,0.004944,-101.297913,101.185959,-115.339645,60.187682,24.830119,13.504908,16.153298,-1.0,-1.0,100.570045,0.348785,3.122664,-0.026442,-1.322303
831180.047324,0.15193728,0.26420292,9.7929306,0.002864,0.00185,0.003963,-101.313324,101.216125,-115.210968,60.187682,24.830119,13.504908,16.153298,-1.0,-1.0,100.570045,0.348785,3.122678,-0.026449,-1.322303
831180.067308,0.15118191,0.2630061,9.78889869,0.003888,-0.001283,0.004705,-101.449722,101.184799,-115.127945,60.187682,24.830119,13.504908,16.153298,-1.0,-1.0,100.570045,0.348785,3.122693,-0.026455,-1.322313
831180.087293,0.14729715000000002,0.27482715,9.76988691,0.004175,-0.000619,0.004195,-101.314682,101.127563,-115.195236,60.187682,24.830119,13.504908,16.153298,-1.0,-1.0,100.570045,0.348785,3.122705,-0.026455,-1.322321
831180.107278,0.15402681000000001,0.26180928000000003,9.79353882,0.002937,6.4e-05,0.004841,-101.575836,101.206085,-115.519302,60.187682,24.830119,13.504908,16.153298,-1.0,-1.0,100.570045,0.348785,3.122703,-0.026469,-1.322308
831180.127263,0.14010642,0.27513126000000004,9.79084107,0.004992,-0.00201,0.00423,-101.382309,101.076782,-115.304489,60.187682,24.830119,13.504908,16.153298,-1.0,-1.0,100.570045,0.348785,3.122702,-0.026473,-1.322315
831180.147248,0.1588239,0.28051695,9.76269618,0.000835,0.001297,0.002712,-101.428223,101.291077,-115.454666,60.187682,24.830119,13.504908,16.153298,-1.0,-1.0,100.570045,0.348785,3.122692,-0.026473,-1.322307
831180.167233,0.16151184,0.25911153,9.795775500000001,0.002809,-0.002086,0.003518,-101.337509,101.3181,-115.048935,60.187682,24.830119,13.504908,16.153298,-1.0,-1.0,100.570045,0.348785,3.122711,-0.026466,-1.322318
831180.187217,0.14564907000000002,0.26344755000000003,9.78141366,0.002371,-0.001806,0.00415,-101.339401,101.351105,-115.028381,60.187682,24.830119,13.504908,16.153298,-1.0,-1.0,100.570045,0.348785,3.122719,-0.026471,-1.322317
831180.207202,0.15582204,0.27632808,9.75805605,0.002211,0.001079,0.00421,-101.522278,101.199982,-115.534851,60.187682,24.830119,13.504908,16.153298,-1.0,-1.0,100.570045,0.348785,3.122723,-0.026464,-1.322322
831180.227187,0.16525926000000002,0.26449722000000003,9.79203789,0.003573,-0.001538,0.003826,-101.417999,101.293533,-115.625488,60.187682,24.830119,13.504908,16.153298,-1.0,-1.0,100.570045,0.348785,3.122733,-0.026468,-1.322323
831180.247172,0.15282999000000003,0.25312743,9.78215922,0.002577,0.002188,0.00578,-101.517899,101.233047,-115.54071,60.187682,24.830119,13.504908,16.153298,-1.0,-1.0,100.570045,0.348785,3.122738,-0.026465,-1.322331
831180.267157,0.1505835,0.26689086,9.7607538,0.003631,0.001041,0.00338,-101.49324,101.189209,-115.70549,60.187682,24.830119,13.504908,16.153298,-1.0,-1.0,100.570045,0.348785,3.122746,-0.026443,-1.32232
831180.287142,0.13950801,0.26674371,9.78919299,0.004761,-0.002086,0.004508,-101.465912,101.298752,-115.453171,60.187682,24.830119,13.504908,16.153298,-1.0,-1.0,100.570045,0.348785,3.122743,-0.026433,-1.322315
831180.307127,0.14773860000000003,0.25970994000000003,9.76898439,0.002227,0.002286,0.003286,-101.491425,101.286362,-115.287231,60.187682,24.830119,13.504908,16.153298,-1.0,-1.0,100.570045,0.348785,3.122738,-0.026427,-1.322311
831180.347097,0.13801689,0.26674371,9.7724277,0.002231,0.001104,0.004109,-101.709473,101.116837,-115.489151,60.187682,24.830119,13.504908,16.153298,-1.0,-1.0,100.570045,0.348785,3.122751,-0.026416,-1.322301
831180.347097,0.13801689,0.26674371,9.7724277,0.002231,0.001104,0.004109,-101.709473,101.116837,-115.489151,60.187682,24.830119,13.504908,16.153298,-1.0,-1.0,100.570045,0.348785,3.122751,-0.026416,-1.322301
831180.387067,0.13801689,0.27513126000000004,9.77362452,0.004531,-0.001172,0.003359,-101.682373,101.055801,-115.351791,60.187682,24.830119,13.504908,16.153298,-1.0,-1.0,100.570045,0.348785,3.122798,-0.026395,-1.322278
831180.407051,0.15297714,0.2630061,9.79189074,0.001603,-0.000777,0.004442,-101.486908,101.357529,-115.299927,60.187682,24.830119,13.504908,16.153298,-1.0,-1.0,100.570045,0.348785,3.122817,-0.026394,-1.322254
831180.427036,0.15074046,0.26734212,9.78036399,0.005205,-0.000257,0.004006,-101.487625,101.207916,-115.431641,60.187682,24.830119,13.504908,16.153298,-1.0,-1.0,100.570045,0.348785,3.122823,-0.026395,-1.322261
831180.447021,0.14654178,0.27333603,9.77347737,0.002767,0.001548,0.002952,-101.461578,101.140945,-115.462357,60.187682,24.830119,13.504908,16.153298,-1.0,-1.0,100.570045,0.348785,3.122826,-0.026412,-1.322248
831180.467006,0.16406244,0.26973576,9.79338186,0.003049,-0.001773,0.004845,-101.593124,101.040695,-115.254639,60.187682,24.830119,13.504908,16.153298,-1.0,-1.0,100.570045,0.348785,3.122856,-0.026413,-1.322232
831180.486991,0.13981212,0.2601612,9.77512545,0.004417,-0.000175,0.004792,-101.376999,101.255661,-115.419388,60.187682,24.830119,13.504908,16.153298,-1.0,-1.0,100.570045,0.348785,3.122859,-0.026416,-1.32225
831180.506976,0.14474655,0.27602397,9.767493270000001,0.000158,0.000742,0.00443,-101.292404,101.317215,-115.402451,60.187682,24.830119,13.504908,16.153298,-1.0,-1.0,100.570045,0.348785,3.122878,-0.026415,-1.322241
831180.506976,0.14474655,0.27602397,9.767493270000001,0.000158,0.000742,0.00443,-101.292404,101.317215,-115.402451,60.187682,24.830119,13.504908,16.153298,-1.0,-1.0,100.570045,0.348785,3.122878,-0.026415,-1.322241
831180.546946,0.14429529,0.29144529,9.76090095,0.003637,0.00137,0.003372,-101.411102,101.464432,-115.562714,60.187682,24.830119,13.504908,16.153298,-1.0,-1.0,100.570045,0.348785,3.122903,-0.026387,-1.32221
831180.566931,0.14564907000000002,0.26061246,9.7929306,0.003862,-0.001154,0.003567,-101.411102,101.464432,-115.562714,60.187682,24.830119,13.504908,16.153298,-1.0,-1.0,100.570045,0.348785,3.122915,-0.026395,-1.322205
831180.586916,0.15387966,0.26135802,9.7869465,0.004182,-0.001232,0.005341,-101.41922,101.236481,-115.30455,60.187682,24.830119,13.504908,16.153298,-1.0,-1.0,100.570045,0.348785,3.122932,-0.026395,-1.322186
831180.606901,0.15552774,0.26764623000000004,9.76164651,0.002673,0.000283,0.004976,-101.445801,101.161652,-115.476288,60.187682,24.830119,13.504908,16.153298,-1.0,-1.0,100.570045,0.348785,3.122934,-0.02639,-1.322181
831180.626885,0.13711437,0.27288477000000005,9.77886306,0.00546,-0.003332,0.003683,-101.330399,101.143707,-115.412643,60.187682,24.830119,13.504908,16.153298,-1.0,-1.0,100.570045,0.348785,3.122952,-0.026384,-1.322186
831180.64687,0.13995927,0.26135802,9.79517709,0.002392,0.000131,0.003874,-101.474762,101.093475,-115.62294,60.187682,24.830119,13.504908,16.153298,-1.0,-1.0,100.570045,0.348785,3.122955,-0.026394,-1.322187
831180.666855,0.16016787000000002,0.27408159,9.76733631,0.001995,0.000909,0.004519,-101.422836,101.229111,-115.4729,60.187682,24.830119,13.504908,16.153298,-1.0,-1.0,100.570045,0.348785,3.12297,-0.026389,-1.322193
831180.68684,0.14280417,0.27572967000000004,9.767934720000001,0.0048,-0.001453,0.003961,-101.217957,101.423401,-115.522079,60.187682,24.830119,13.504908,16.153298,-1.0,-1.0,100.570045,0.348785,3.122975,-0.026372,-1.322211
831180.706825,0.15163317,0.25836597,9.78649524,0.000786,0.001203,0.002735,-101.477371,101.135651,-115.669357,60.187682,24.830119,13.504908,16.153298,-1.0,-1.0,100.570045,0.348785,3.122986,-0.026365,-1.322208
831180.72681,0.15822549000000002,0.26569404,9.79443153,0.003853,-0.001703,0.003739,-101.281494,101.351288,-115.901337,60.187682,24.830119,13.504908,16.153298,-1.0,-1.0,100.570045,0.348785,3.123004,-0.026355,-1.322212
831180.746795,0.14400099,0.28051695,9.76554108,0.00289,0.001328,0.00496,-101.509125,101.208389,-115.511154,60.187682,24.830119,13.504908,16.153298,-1.0,-1.0,100.570045,0.348785,3.123002,-0.026348,-1.322207
831180.76678,0.15133887000000001,0.2630061,9.79203789,0.003372,0.000458,0.004222,-101.454575,101.233444,-115.584915,60.187682,24.830119,13.504908,16.153298,-1.0,-1.0,100.570045,0.348785,3.123024,-0.026344,-1.322196
831180.786765,0.14969079000000002,0.25492266,9.77617512,0.005159,-0.001624,0.00308,-101.57489,101.438156,-115.496902,60.187682,24.830119,13.504908,16.153298,-1.0,-1.0,100.570045,0.348785,3.123028,-0.02635,-1.322168
831180.80675,0.15103476000000002,0.27542556,9.77362452,0.003202,0.001686,0.003504,-101.549973,101.204407,-115.640701,60.187682,24.830119,13.504908,16.153298,-1.0,-1.0,100.570045,0.348785,3.123031,-0.026346,-1.322158
831180.826735,0.1505835,0.2604555,9.78290478,0.002658,-0.001611,0.005172,-101.465332,101.278824,-115.56041,60.187682,24.830119,13.504908,16.153298,-1.0,-1.0,100.570045,0.348785,3.123052,-0.02634,-1.322164
831180.866705,0.15118191,0.27078543,9.78620094,0.002994,0.000242,0.005083,-101.335602,101.293579,-115.366089,60.187682,24.830119,13.504908,16.153298,-1.0,-1.0,100.570045,0.348785,3.123067,-0.026325,-1.322146
831180.886689,0.14669874000000002,0.26869590000000004,9.78230637,0.002461,-0.000992,0.00513,-101.572449,101.173172,-115.257095,60.187682,24.830119,13.504908,16.153298,-1.0,-1.0,100.570045,0.348785,3.123077,-0.026331,-1.32213
831180.906674,0.1474443,0.26030835,9.77632227,0.002792,0.001197,0.004313,-101.497421,101.063278,-115.272736,60.187682,24.830119,13.504908,16.153298,-1.0,-1.0,100.570045,0.348785,3.123074,-0.026335,-1.322146
831180.926659,0.15237873000000002,0.27557271000000005,9.77347737,0.00498,-0.000232,0.004635,-101.561615,101.093765,-115.493286,60.187682,24.830119,13.504908,16.153298,-1.0,-1.0,100.570045,0.348785,3.123094,-0.026341,-1.322145
