timestamp,accel_x,accel_y,accel_z,gyro_x,gyro_y,gyro_z,mag_x,mag_y,mag_z,gps_lat,gps_lon,gps_alt,gps_accuracy,gps_speed,gps_course,pressure,altitude,roll,pitch,yaw
840298.765836,-9.4197582,0.15567489,-2.87941158,0.004234,0.000349,0.00366,-118.973694,97.375031,-196.081284,60.187659,24.830156,13.055676,21.838598,-1.0,-1.0,100.605576,-0.354069,-1.273929,-0.015529,-0.755842
840298.785822,-9.42035661,0.14849397,-2.84393862,0.002214,0.00098,0.002819,-118.83992,97.320145,-196.094894,60.187659,24.830156,13.055676,21.838598,-1.0,-1.0,100.605576,-0.354069,-1.273942,-0.015538,-0.755842
840298.805809,-9.39506643,0.14220576000000001,-2.87072973,0.004323,-0.001772,0.004707,-119.055237,97.317764,-196.509705,60.187659,24.830156,13.055676,21.838598,-1.0,-1.0,100.605576,-0.354069,-1.27392,-0.015538,-0.755831
840298.825795,-9.41901264,0.15282999000000003,-2.8542685500000005,0.005627,-2.3e-05,0.003981,-118.93721,97.471161,-196.554428,60.187659,24.830156,13.055676,21.838598,-1.0,-1.0,100.605576,-0.354069,-1.273931,-0.015536,-0.755844
840298.845782,-9.4109292,0.15942231,-2.8657953000000003,0.001641,-0.000844,0.003981,-118.816681,97.366287,-196.346817,60.187659,24.830156,13.055676,21.838598,-1.0,-1.0,100.605576,-0.354069,-1.273935,-0.01555,-0.755824
840298.865769,-9.379341,0.16031502,-2.87522271,0.002813,-0.00342,0.004099,-119.034485,97.215775,-195.99585,60.187659,24.830156,13.055676,21.838598,-1.0,-1.0,100.605576,-0.354069,-1.273925,-0.015564,-0.755834
840298.885755,-9.41047794,0.15866694,-2.8518651000000004,0.00491,-0.000641,0.003321,-118.913116,97.185715,-196.354904,60.187659,24.830156,13.055676,21.838598,-1.0,-1.0,100.605576,-0.354069,-1.273951,-0.015551,-0.755859
840298.905742,-9.414372510000002,0.14325543000000002,-2.86938576,0.001553,-4.2e-05,0.001332,-119.07399,97.280289,-195.641281,60.187659,24.830156,13.055676,21.838598,-1.0,-1.0,100.605576,-0.354069,-1.273961,-0.015561,-0.755838
840298.925728,-9.39146616,0.14100894,-2.87926443,0.002064,-0.000211,0.003965,-118.948349,97.008621,-196.041046,60.187659,24.830156,13.055676,21.838598,-1.0,-1.0,100.605576,-0.354069,-1.273966,-0.015556,-0.755859
840298.945715,-9.405092250000001,0.14220576000000001,-2.8660896,0.002206,0.00086,0.006118,-119.20546,97.050797,-195.772827,60.187659,24.830156,13.055676,21.838598,-1.0,-1.0,100.605576,-0.354069,-1.273977,-0.015558,-0.75589
840298.965701,-9.3992553,0.15986376000000002,-2.8544157,0.003469,0.000998,0.003428,-118.94754,97.235901,-196.143967,60.187659,24.830156,13.055676,21.838598,-1.0,-1.0,100.605576,-0.354069,-1.27397,-0.015575,-0.755884
840298.965701,-9.3992553,0.15986376000000002,-2.8544157,0.003469,0.000998,0.003428,-118.94754,97.235901,-196.143967,60.187659,24.830156,13.055676,21.838598,-1.0,-1.0,100.605576,-0.354069,-1.27397,-0.015575,-0.755884
840299.005675,-9.41272443,0.1414602,-2.84992272,0.004132,-7.8e-05,0.004931,-119.29628,97.046158,-196.167496,60.187659,24.830156,13.055676,21.838598,-1.0,-1.0,100.605576,-0.354069,-1.274001,-0.015578,-0.755907
840299.025661,-9.41587344,0.14669874000000002,-2.86414722,0.003806,-0.002114,0.004545,-119.219574,97.013107,-196.199387,60.187659,24.830156,13.055676,21.838598,-1.0,-1.0,100.605576,-0.354069,-1.274008,-0.015603,-0.755884
840299.045648,-9.401354640000001,0.14086179000000001,-2.8801571400000006,0.002931,-0.002367,0.00647,-119.193237,97.120209,-196.073471,60.187659,24.830156,13.055676,21.838598,-1.0,-1.0,100.605576,-0.354069,-1.274006,-0.015601,-0.75589
840299.045648,-9.401354640000001,0.14086179000000001,-2.8801571400000006,0.002931,-0.002367,0.00647,-119.193237,97.120209,-196.073471,60.187659,24.830156,13.055676,21.838598,-1.0,-1.0,100.605576,-0.354069,-1.274006,-0.015601,-0.75589
840299.105608,-9.40868271,0.13876245,-2.86279344,0.002823,-0.000232,0.004809,-119.227859,97.017609,-196.172623,60.187659,24.830156,13.055676,21.838598,-1.0,-1.0,100.605576,-0.354069,-1.274015,-0.015612,-0.755886
840299.105608,-9.40868271,0.13876245,-2.86279344,0.002823,-0.000232,0.004809,-119.227859,97.017609,-196.172623,60.187659,24.830156,13.055676,21.838598,-1.0,-1.0,100.605576,-0.354069,-1.274015,-0.015612,-0.755886
840299.145581,-9.418110120000001,0.15193728,-2.86339185,0.003912,7.4e-05,0.002206,-119.010681,96.923996,-196.084122,60.187659,24.830156,13.055676,21.838598,-1.0,-1.0,100.605576,-0.354069,-1.274018,-0.015613,-0.755874
840299.165567,-9.397460070000001,0.14564907000000002,-2.87641953,0.002733,0.001585,0.003515,-119.087997,97.079132,-195.852905,60.187659,24.830156,13.055676,21.838598,-1.0,-1.0,100.605576,-0.354069,-1.274023,-0.015597,-0.755887
840299.185554,-9.40000086,0.15043635,-2.8678848300000004,0.00247,0.001185,0.003617,-118.963516,96.903137,-196.107117,60.187659,24.830156,13.055676,21.838598,-1.0,-1.0,100.605576,-0.354069,-1.274014,-0.015583,-0.755889
840299.20554,-9.39177027,0.1474443,-2.86414722,0.004026,-0.002463,0.003728,-119.100647,97.012939,-195.925659,60.187659,24.830156,13.055676,21.838598,-1.0,-1.0,100.605576,-0.354069,-1.274014,-0.015579,-0.755904
840299.225527,-9.410036490000001,0.14669874000000002,-2.88225648,0.004146,-0.001184,0.004103,-119.241196,97.006805,-196.050598,60.187659,24.830156,13.055676,21.838598,-1.0,-1.0,100.605576,-0.354069,-1.274024,-0.015581,-0.755906
840299.245514,-9.402100200000001,0.14550192,-2.8689345,0.004146,-0.001184,0.004103,-119.241196,97.006805,-196.050598,60.187659,24.830156,13.055676,21.838598,-1.0,-1.0,100.605576,-0.354069,-1.274035,-0.015581,-0.755912
840299.2655,-9.41033079,0.14579622,-2.8666880100000003,0.00245,-0.000687,0.002613,-119.173889,96.807358,-195.649734,60.187659,24.830156,13.055676,21.838598,-1.0,-1.0,100.605576,-0.354069,-1.274033,-0.015575,-0.755911
840299.285487,-9.462726,0.18022932,-2.8433402100000005,0.004511,0.00397,0.003766,-118.973145,97.025558,-195.610336,60.187659,24.830156,13.055676,21.838598,-1.0,-1.0,100.605576,-0.354069,-1.274041,-0.015569,-0.755931
840299.305473,-9.350460360000001,0.16810416,-2.89498005,0.002186,0.001122,0.00294,-118.989899,96.952652,-195.891052,60.187659,24.830156,13.055676,21.838598,-1.0,-1.0,100.605576,-0.354069,-1.273997,-0.015554,-0.75591
840299.32546,-9.35673876,0.10552617,-2.88599409,0.004155,0.001888,0.006268,-119.060013,96.82515,-195.799194,60.187659,24.830156,13.055676,21.838598,-1.0,-1.0,100.605621,-0.359352,-1.273929,-0.015547,-0.755887
840299.345447,-9.397607220000001,0.05089428,-2.82387717,-0.006625,-0.002115,0.003612,-118.812485,96.794342,-195.693802,60.187659,24.830156,13.055676,21.838598,-1.0,-1.0,100.605621,-0.359352,-1.273935,-0.015575,-0.755866
840299.365433,-9.36601902,0.16061913,-2.87791065,-0.007687,-0.005571,0.001945,-118.813232,97.053131,-195.284805,60.187659,24.830156,13.055676,21.838598,-1.0,-1.0,100.605621,-0.359352,-1.273992,-0.015619,-0.755993
840299.38542,-9.521703720000001,0.20702043,-2.81954115,-0.002567,0.002255,0.000482,-118.519302,97.184372,-195.473862,60.187659,24.830156,13.055676,21.838598,-1.0,-1.0,100.605621,-0.359352,-1.274127,-0.015636,-0.756228
840299.405406,-9.433982700000001,0.17394111,-2.8306166400000006,-0.000402,0.006414,0.003007,-118.36058,97.129578,-195.811478,60.187659,24.830156,13.055676,21.838598,-1.0,-1.0,100.605621,-0.359352,-1.274166,-0.015642,-0.756415
840299.425393,-9.29117853,0.15268284000000001,-2.95680267,-0.004126,-0.007041,-0.000329,-118.363632,97.098358,-195.548569,60.187659,24.830156,13.055676,21.838598,-1.0,-1.0,100.605621,-0.359352,-1.274037,-0.015634,-0.756517
840299.445379,-9.4718493,0.18186759,-2.83346154,0.003656,0.001892,0.003987,-118.227005,97.202408,-195.311081,60.187659,24.830156,13.055676,21.838598,-1.0,-1.0,100.605621,-0.359352,-1.274108,-0.015611,-0.756672
840299.465366,-9.41152761,0.18995103,-2.8436345100000002,0.004658,0.001225,0.003755,-118.272858,97.19957,-195.594162,60.187659,24.830156,13.055676,21.838598,-1.0,-1.0,100.605621,-0.359352,-1.274116,-0.01561,-0.756709
840299.485353,-9.286538400000001,0.17917965,-2.97041895,0.005213,-0.007055,0.0023,-118.151825,97.033295,-195.730316,60.187659,24.830156,13.055676,21.838598,-1.0,-1.0,100.605621,-0.359352,-1.274029,-0.015618,-0.756688
840299.505339,-9.43847568,0.19114785,-2.84812749,0.005213,-0.007055,0.0023,-118.480148,97.124268,-195.765121,60.187659,24.830156,13.055676,21.838598,-1.0,-1.0,100.605621,-0.359352,-1.274133,-0.015574,-0.756687
840299.525326,-9.47514546,0.12349809,-2.79857718,0.0112,0.005441,0.008857,-118.428329,97.038834,-195.447189,60.187659,24.830156,13.055676,21.838598,-1.0,-1.0,100.605621,-0.359352,-1.274239,-0.015638,-0.756493
840299.545312,-9.36856962,0.07888221,-2.89093833,0.003125,-0.002608,0.002657,-118.702057,96.881042,-195.792191,60.187659,24.830156,13.055676,21.838598,-1.0,-1.0,100.605621,-0.359352,-1.27416,-0.01569,-0.756265
840299.565299,-9.47095659,0.16390548000000002,-2.8256724,0.007249,0.002987,0.006434,-118.47966,96.965042,-195.655579,60.187659,24.830156,13.055676,21.838598,-1.0,-1.0,100.605621,-0.359352,-1.27421,-0.015672,-0.756262
840299.585286,-9.397155960000001,0.15986376000000002,-2.87851887,0.004434,-0.001821,0.003231,-118.563705,97.014282,-195.742035,60.187659,24.830156,13.055676,21.838598,-1.0,-1.0,100.605621,-0.359352,-1.2742,-0.015651,-0.756226
840299.605272,-9.390426300000001,0.17109621000000003,-2.89692243,0.004691,-0.003898,0.002145,-118.734131,96.935516,-195.581024,60.187659,24.830156,13.055676,21.838598,-1.0,-1.0,100.605621,-0.359352,-1.27418,-0.015661,-0.756185
840299.625259,-9.4106349,0.14086179000000001,-2.87611542,0.015168,-0.004077,0.012718,-118.59314,97.26445,-195.719315,60.187659,24.830156,13.055676,21.838598,-1.0,-1.0,100.605621,-0.359352,-1.2742,-0.015594,-0.756195
840299.645245,-9.39655755,0.1300806,-2.79169056,0.003947,0.006977,0.003656,-118.664383,97.175735,-195.811859,60.187659,24.830156,13.055676,21.838598,-1.0,-1.0,100.605621,-0.359352,-1.274203,-0.015628,-0.756008
840299.685218,-9.317822490000001,0.09744273000000002,-2.9298546,-0.001286,-0.011935,0.011607,-118.414581,97.278427,-195.753601,60.187659,24.830156,13.055676,21.838598,-1.0,-1.0,100.605621,-0.359352,-1.274197,-0.01568,-0.75601
840299.685218,-9.317822490000001,0.09744273000000002,-2.9298546,-0.001286,-0.011935,0.011607,-118.414581,97.278427,-195.753601,60.187659,24.830156,13.055676,21.838598,-1.0,-1.0,100.605621,-0.359352,-1.274197,-0.01568,-0.75601
840299.705205,-9.50313339,0.29713509,-2.8210322700000003,-0.003117,0.001298,-0.002407,-118.217346,97.148483,-195.825668,60.187659,24.830156,13.055676,21.838598,-1.0,-1.0,100.605621,-0.359352,-1.274359,-0.015841,-0.756081
840299.725192,-9.51945723,0.34308513,-2.82641796,0.005573,0.003521,-0.003263,-118.3367,97.239166,-195.655197,60.187659,24.830156,13.055676,21.838598,-1.0,-1.0,100.605621,-0.359352,-1.274452,-0.015819,-0.756215
840299.745178,-9.2575008,0.13621185,-3.0350864700000004,0.026887,0.004192,0.014423,-118.758606,96.849152,-195.602036,60.187659,24.830156,13.055676,21.838598,-1.0,-1.0,100.605621,-0.359352,-1.274402,-0.015691,-0.756336
840299.785151,-9.57483468,0.39143862,-3.0918177,0.044757,-0.00312,0.004756,-119.129486,97.013367,-196.259445,60.187659,24.830156,13.055676,21.838598,-1.0,-1.0,100.605621,-0.359352,-1.274501,-0.015718,-0.755379
840299.805138,-9.433982700000001,0.50190903,-2.89827621,0.062853,-0.004873,0.028342,-119.547699,97.377335,-196.318558,60.187659,24.830156,13.055676,21.838598,-1.0,-1.0,100.605621,-0.359352,-1.27482,-0.015596,-0.754711
840299.825124,-9.41511807,0.44233290000000003,-2.9433335400000002,0.081034,-0.013093,0.033939,-120.786102,97.445312,-196.837479,60.187659,24.830156,13.055676,21.838598,-1.0,-1.0,100.605621,-0.359352,-1.275055,-0.015593,-0.75359
840299.845111,-9.23654664,0.24473988000000002,-2.96892783,0.085841,-0.032722,0.025858,-122.147156,97.926086,-196.677155,60.187659,24.830156,13.055676,21.838598,-1.0,-1.0,100.605621,-0.359352,-1.275169,-0.015682,-0.752021
840299.865098,-9.421857540000001,-0.09490194,-2.98134729,0.056226,-0.046067,0.020167,-122.887543,98.398117,-197.044891,60.187659,24.830156,13.055676,21.838598,-1.0,-1.0,100.605621,-0.359352,-1.275591,-0.015727,-0.750313
840299.885084,-9.43563078,-0.25521696000000005,-2.7677443500000005,0.028193,-0.055087,0.010114,-123.296646,98.856293,-197.201706,60.187659,24.830156,13.055676,21.838598,-1.0,-1.0,100.605621,-0.359352,-1.276398,-0.015677,-0.749018
840299.905071,-9.42784164,-0.182466,-2.71311246,0.018094,-0.051551,0.013345,-123.15921,98.960815,-197.450912,60.187659,24.830156,13.055676,21.838598,-1.0,-1.0,100.605621,-0.359352,-1.277361,-0.015682,-0.748329
840299.925057,-9.37006074,-0.03592422,-2.8369048500000003,-0.003456,-0.089597,0.009864,-123.156128,98.975174,-197.610397,60.187659,24.830156,13.055676,21.838598,-1.0,-1.0,100.605621,-0.359352,-1.278246,-0.015666,-0.747947
840299.945044,-9.234594450000001,-0.016461180000000002,-2.94557022,-0.048679,-0.145042,-0.014473,-122.698456,99.236145,-197.538422,60.187659,24.830156,13.055676,21.838598,-1.0,-1.0,100.605621,-0.359352,-1.279761,-0.015822,-0.747892
840299.965031,-9.27725814,-0.00434583,-2.88929025,-0.106101,-0.228753,-0.025796,-122.698456,99.236145,-197.538422,60.187659,24.830156,13.055676,21.838598,-1.0,-1.0,100.605621,-0.359352,-1.282279,-0.015796,-0.748688
840299.985017,-9.47050533,0.22063671,-2.8398969000000003,-0.126793,-0.230119,-0.011187,-122.251923,99.117371,-197.494659,60.187659,24.830156,13.055676,21.838598,-1.0,-1.0,100.605621,-0.359352,-1.286457,-0.015763,-0.750599
840300.005004,-9.231308100000001,0.46822149,-2.5415649900000004,-0.076506,-0.246188,0.004269,-122.200897,99.391708,-197.419235,60.187659,24.830156,13.055676,21.838598,-1.0,-1.0,100.605621,-0.359352,-1.291312,-0.016014,-0.753226
840300.02499,-9.433384290000001,0.16974243,-2.7412475400000003,-0.04465,-0.225767,0.005929,-122.163849,99.978714,-197.056824,60.187659,24.830156,13.055676,21.838598,-1.0,-1.0,100.605621,-0.359352,-1.295861,-0.016324,-0.75515
840300.044977,-9.47858877,0.17438256000000002,-2.7178997400000005,-0.013569,-0.206372,0.007314,-121.918015,100.644974,-197.0354,60.187659,24.830156,13.055676,21.838598,-1.0,-1.0,100.605621,-0.359352,-1.300412,-0.01665,-0.756168
840300.064963,-9.462274740000002,0.12169305,-2.53453122,0.00758,-0.210932,0.021747,-121.998764,100.74678,-196.264069,60.187659,24.830156,13.055676,21.838598,-1.0,-1.0,100.605621,-0.359352,-1.304772,-0.016847,-0.756793
840300.08495,-9.3503034,-0.018413370000000002,-2.7039793500000004,-0.015973,-0.247643,0.011505,-121.861267,100.813934,-196.101547,60.187659,24.830156,13.055676,21.838598,-1.0,-1.0,100.605621,-0.359352,-1.309073,-0.017193,-0.756672
840300.104937,-9.16095078,0.01437165,-2.86594245,-0.038234,-0.358236,0.015088,-121.426987,100.806015,-195.629929,60.187659,24.830156,13.055676,21.838598,-1.0,-1.0,100.605621,-0.359352,-1.313765,-0.017466,-0.75691
840300.124923,-9.10197306,0.0928026,-3.0178699200000003,-0.058846,-0.48432,0.012031,-121.109924,100.661819,-195.522049,60.187659,24.830156,13.055676,21.838598,-1.0,-1.0,100.605621,-0.359352,-1.320177,-0.017831,-0.757525
840300.14491,-9.0582597,0.22737618,-3.0078441000000002,-0.065302,-0.637844,0.017226,-120.568176,101.332733,-195.067169,60.187659,24.830156,13.055676,21.838598,-1.0,-1.0,100.605621,-0.359352,-1.329033,-0.018263,-0.758605
840300.164896,-9.08191161,0.33755229000000003,-2.9325523500000004,-0.055047,-0.760169,0.028131,-120.551758,101.471451,-194.448944,60.187659,24.830156,13.055676,21.838598,-1.0,-1.0,100.605621,-0.359352,-1.340797,-0.018837,-0.75986
840300.184883,-9.131314770000001,0.35057015999999996,-2.8086128100000005,-0.016005,-0.863836,0.048901,-121.169449,101.635376,-194.024338,60.187659,24.830156,13.055676,21.838598,-1.0,-1.0,100.605621,-0.359352,-1.355228,-0.01954,-0.760984
840300.20487,-9.134758080000001,0.25416729000000005,-2.6289819000000003,0.014325,-0.973562,0.061779,-121.725815,101.902618,-193.158539,60.187659,24.830156,13.055676,21.838598,-1.0,-1.0,100.605621,-0.359352,-1.371854,-0.020434,-0.761411
840300.224856,-9.266035500000001,0.16974243,-2.18560914,0.038866,-1.043073,0.073279,-122.473709,102.160233,-192.122437,60.187659,24.830156,13.055676,21.838598,-1.0,-1.0,100.605621,-0.359352,-1.39063,-0.021468,-0.761177
840300.244843,-9.56615283,0.19414971,-1.62501669,0.068281,-1.03926,0.08123,-122.912827,102.356049,-191.001938,60.187659,24.830156,13.055676,21.838598,-1.0,-1.0,100.605621,-0.359352,-1.411137,-0.022677,-0.760431
840300.264829,-9.57872925,0.20357712,-1.3506408,0.08716,-1.04888,0.091894,-123.283112,102.515106,-190.331238,60.187659,24.830156,13.055676,21.838598,-1.0,-1.0,100.605621,-0.359352,-1.431961,-0.023977,-0.759143
840300.284816,-9.39835278,0.08412075,-1.32863697,0.07284,-1.101709,0.093488,-123.327835,102.620667,-189.204285,60.187659,24.830156,13.055676,21.838598,-1.0,-1.0,100.605621,-0.359352,-1.452765,-0.025478,-0.757346
840300.304802,-9.453141630000001,0.1474443,-0.88510725,0.043448,-1.161585,0.090147,-123.107361,103.111404,-188.500153,60.187659,24.830156,13.055676,21.838598,-1.0,-1.0,100.605621,-0.359352,-1.474341,-0.027082,-0.755654
840300.324789,-9.53546715,0.21495672000000002,-0.58394025,0.011071,-1.214999,0.095095,-122.784241,103.361984,-187.198074,60.187659,24.830156,13.055676,21.838598,-1.0,-1.0,100.605621,-0.359352,-1.497185,-0.028753,-0.754501
840300.324789,-9.53546715,0.21495672000000002,-0.58394025,0.011071,-1.214999,0.095095,-122.784241,103.361984,-187.198074,60.187659,24.830156,13.055676,21.838598,-1.0,-1.0,100.605621,-0.359352,-1.497185,-0.028753,-0.754501
840300.344776,-9.63261558,0.43274853,-0.5373819900000001,0.003636,-1.263248,0.093304,-122.914078,103.53186,-185.515945,60.187659,24.830156,13.055676,21.838598,-1.0,-1.0,100.605621,-0.359352,-1.521079,-0.030485,-0.754015
840300.384749,-8.28436842,0.6225524100000001,2.13366519,0.020969,-0.545657,0.133512,-125.120148,103.062698,-183.952698,60.187659,24.830156,13.055676,21.838598,-1.0,-1.0,100.605621,-0.359352,-1.569341,-0.029967,-0.755067
840300.404735,-8.040825360000001,0.69500907,2.86474563,0.101915,-0.419607,0.127344,-128.300186,103.088745,-183.769791,60.187659,24.830156,13.055676,21.838598,-1.0,-1.0,100.605621,-0.359352,-1.5881,-0.03025,-0.756666
840300.424722,-9.53172954,1.30049208,2.03501583,0.200422,-0.253691,0.035788,-122.05423,104.936966,-181.827499,60.187659,24.830156,13.055676,21.838598,-1.0,-1.0,100.605621,-0.359352,-1.598346,-0.033258,-0.755324
840300.464695,-9.64115028,0.89019864,0.47586348000000006,0.373637,-0.048232,-0.016064,-126.959427,102.963364,-183.588455,60.187659,24.830156,13.055676,21.838598,-1.0,-1.0,100.605621,-0.359352,-1.606287,-0.034521,-0.745718
840300.484682,-9.74698056,0.39996351,0.50444982,0.356756,-0.017326,-0.013762,-123.569977,106.558258,-180.685928,60.187659,24.830156,13.055676,21.838598,-1.0,-1.0,100.605621,-0.359352,-1.607556,-0.034408,-0.738279
840300.504668,-9.71913978,0.33904341000000005,0.28829628,0.330938,0.002085,0.004969,-130.212784,105.379395,-182.578491,60.187659,24.830156,13.055676,21.838598,-1.0,-1.0,100.605621,-0.359352,-1.607518,-0.034296,-0.731051
840300.524655,-9.88948062,0.33200964,0.20926692000000002,0.288511,-0.031644,0.011799,-122.952576,105.644714,-181.582733,60.187659,24.830156,13.055676,21.838598,-1.0,-1.0,100.605621,-0.359352,-1.607192,-0.034357,-0.72429
840300.544641,-9.922864050000001,0.53678358,0.21075804,0.256982,-0.117445,0.005515,-132.00061,107.453537,-183.178894,60.187659,24.830156,13.055676,21.838598,-1.0,-1.0,100.605621,-0.359352,-1.607379,-0.034707,-0.718383
840300.564628,-9.971511840000002,0.38964339,0.20821725000000002,0.222481,-0.17522,0.006342,-124.949783,103.036545,-182.853668,60.187659,24.830156,13.055676,21.838598,-1.0,-1.0,100.605621,-0.359352,-1.60906,-0.034911,-0.713184
840300.584615,-9.92690577,0.11960352,0.36015453000000003,0.202724,-0.267068,0.014974,-126.75322,108.344238,-181.552795,60.187659,24.830156,13.055676,21.838598,-1.0,-1.0,100.605621,-0.359352,-1.61219,-0.035156,-0.708683
840300.604601,-9.866878380000001,-0.19833858000000001,0.58902183,0.174938,-0.396981,0.008921,-130.895889,105.800903,-183.555237,60.187659,24.830156,13.055676,21.838598,-1.0,-1.0,100.605621,-0.359352,-1.617003,-0.03545,-0.704645
840300.624588,-10.02450546,-0.8542744200000001,1.62262305,0.005554,-0.530001,0.013179,-128.106018,103.066467,-183.531387,60.187659,24.830156,13.055676,21.838598,-1.0,-1.0,100.605621,-0.359352,-1.624245,-0.036036,-0.701146
840300.644574,-9.74728467,-0.5375291400000001,1.01713023,-0.069643,-0.581249,0.017713,-128.337982,103.226593,-183.387421,60.187659,24.830156,13.055676,21.838598,-1.0,-1.0,100.605621,-0.359352,-1.634098,-0.036365,-0.699919
840300.664561,-9.639649350000001,-0.79364862,1.0121958,-0.138517,-0.623088,0.048956,-129.443161,103.681488,-182.367767,60.187659,24.830156,13.055676,21.838598,-1.0,-1.0,100.605621,-0.359352,-1.646081,-0.036563,-0.701102
840300.684548,-9.61196553,-0.4716648,0.92222829,-0.186011,-0.738485,0.056339,-129.443161,103.681488,-182.367767,60.187659,24.830156,13.055676,21.838598,-1.0,-1.0,100.605621,-0.359352,-1.658724,-0.037213,-0.703718
840300.704534,-9.817485030000002,-0.22976981999999999,0.6780868200000001,-0.18634,-0.830829,0.03922,-131.35347,105.66095,-181.244232,60.187659,24.830156,13.055676,21.838598,-1.0,-1.0,100.605621,-0.359352,-1.672856,-0.037802,-0.707227
840300.724521,-9.84622833,-0.0047872800000000005,0.8102667600000001,-0.142788,-0.856739,0.01941,-130.780304,108.423477,-178.786987,60.187659,24.830156,13.055676,21.838598,-1.0,-1.0,100.605621,-0.359352,-1.688985,-0.03827,-0.711124
840300.744507,-9.680517810000001,-0.019306080000000003,0.8855585100000001,-0.104668,-0.908635,0.026013,-126.59169,108.112427,-176.964508,60.187659,24.830156,13.055676,21.838598,-1.0,-1.0,100.605621,-0.359352,-1.706,-0.038239,-0.714301
840300.764494,-9.73336428,0.13127742,0.7562234700000001,-0.069717,-1.006927,0.022671,-124.371994,104.460205,-176.705719,60.187659,24.830156,13.055676,21.838598,-1.0,-1.0,100.605621,-0.359352,-1.723856,-0.038288,-0.716665
840300.78448,-9.596397060000001,0.31374342,1.1859799500000001,-0.033296,-1.076629,0.011362,-131.296005,103.644791,-177.235321,60.187659,24.830156,13.055676,21.838598,-1.0,-1.0,100.605621,-0.359352,-1.743446,-0.038451,-0.718383
840300.804467,-9.56346489,0.33081282000000006,1.75734378,0.011996,-1.125737,0.006257,-133.240601,107.700684,-175.180389,60.187659,24.830156,13.055676,21.838598,-1.0,-1.0,100.605621,-0.359352,-1.764597,-0.038446,-0.71935
840300.824454,-9.39102471,0.13172868000000001,1.6328058300000001,0.023085,-1.178791,0.016896,-125.321426,107.600235,-173.034164,60.187659,24.830156,13.055676,21.838598,-1.0,-1.0,100.605621,-0.359352,-1.786817,-0.038501,-0.71946
840300.84444,-9.437426010000001,0.13591755,1.93517946,0.024862,-1.229289,0.006297,-127.577942,103.879074,-173.906082,60.187659,24.830156,13.055676,21.838598,-1.0,-1.0,100.605621,-0.359352,-1.810082,-0.038756,-0.719097
840300.864427,-9.34731135,0.39697146000000005,2.33559423,0.031206,-1.236036,-0.005944,-132.314102,106.455063,-171.264175,60.187659,24.830156,13.055676,21.838598,-1.0,-1.0,100.605621,-0.359352,-1.83437,-0.039013,-0.718769
840300.884413,-9.8159841,0.30012714,2.49141627,0.055899,-1.128775,0.038524,-126.163559,107.143066,-168.394455,60.187659,24.830156,13.055676,21.838598,-1.0,-1.0,100.605621,-0.359352,-1.859026,-0.039063,-0.718227
840300.9044,-9.05586606,0.03128409,2.60547714,0.102696,-1.059048,0.029906,-127.341217,102.304153,-169.946381,60.187659,24.830156,13.055676,21.838598,-1.0,-1.0,100.605621,-0.359352,-1.882091,-0.039547,-0.717379
840300.9044,-9.05586606,0.03128409,2.60547714,0.102696,-1.059048,0.029906,-127.341217,102.304153,-169.946381,60.187659,24.830156,13.055676,21.838598,-1.0,-1.0,100.605621,-0.359352,-1.882091,-0.039547,-0.717379
840300.9044,-9.05586606,0.03128409,2.60547714,0.102696,-1.059048,0.029906,-127.341217,102.304153,-169.946381,60.187659,24.830156,13.055676,21.838598,-1.0,-1.0,100.605621,-0.359352,-1.882091,-0.039547,-0.717379
840300.944373,-9.11739438,0.29563416000000003,5.34867687,-0.060665,-0.733409,-0.024277,-130.767166,108.051041,-166.895691,60.187659,24.830156,13.055676,21.838598,-1.0,-1.0,100.605621,-0.359352,-1.921074,-0.040331,-0.714504
840300.984346,-10.201438620000001,0.0056898,3.39897861,-0.084911,-0.72198,0.005889,-126.717545,103.221329,-165.514725,60.187659,24.830156,13.055676,21.838598,-1.0,-1.0,100.605621,-0.359352,-1.954504,-0.040758,-0.715786
840301.004333,-8.518032810000001,0.43858548,4.28424282,-0.131307,-0.788598,0.085438,-133.201889,103.287796,-166.195969,60.187659,24.830156,13.055676,21.838598,-1.0,-1.0,100.605621,-0.359352,-1.969137,-0.040725,-0.717064
840301.024319,-7.77737781,0.27198225000000004,4.24667052,-0.186933,-0.917049,0.124734,-133.109024,106.538971,-163.98407,60.187659,24.830156,13.055676,21.838598,-1.0,-1.0,100.605621,-0.359352,-1.98597,-0.041273,-0.72044
840301.044306,-9.63426366,0.36958194,4.21343424,-0.159661,-0.802178,0.082328,-128.153183,107.187103,-162.137497,60.187659,24.830156,13.055676,21.838598,-1.0,-1.0,100.605621,-0.359352,-2.003896,-0.041614,-0.724667
840301.084279,-8.71502742,0.47196891,4.20266286,-0.062704,-0.815725,0.060857,-131.123184,103.362579,-162.385849,60.187659,24.830156,13.055676,21.838598,-1.0,-1.0,100.605621,-0.359352,-2.038916,-0.042026,-0.73239
840301.084279,-8.71502742,0.47196891,4.20266286,-0.062704,-0.815725,0.060857,-131.123184,103.362579,-162.385849,60.187659,24.830156,13.055676,21.838598,-1.0,-1.0,100.605621,-0.359352,-2.038916,-0.042026,-0.73239
840301.124252,-8.47597734,0.07484049000000001,4.500386550000001,0.041156,-0.713793,-0.00619,-128.591858,108.04686,-157.461868,60.187659,24.830156,13.055676,21.838598,-1.0,-1.0,100.605621,-0.359352,-2.071083,-0.042231,-0.735159
840301.144239,-8.629405740000001,0.04355640000000001,4.66430184,0.083873,-0.620575,-0.016803,-126.712509,103.565323,-157.483719,60.187659,24.830156,13.055676,21.838598,-1.0,-1.0,100.605621,-0.359352,-2.085643,-0.042393,-0.734628
840301.164225,-8.27030088,-0.12693159,4.73540472,0.12766,-0.591556,0.016085,-134.064774,103.971466,-158.265121,60.187659,24.830156,13.055676,21.838598,-1.0,-1.0,100.605621,-0.359352,-2.098521,-0.042728,-0.73327
840301.184212,-9.98154747,0.95261967,5.55015465,0.136072,-0.443115,-0.038983,-131.694458,107.764191,-156.213043,60.187659,24.830156,13.055676,21.838598,-1.0,-1.0,100.605621,-0.359352,-2.110156,-0.043616,-0.731461
840301.204199,-7.0477983,1.8904164300000001,5.273983530000001,0.16374,-0.458661,0.034481,-126.489441,106.888702,-154.936249,60.187659,24.830156,13.055676,21.838598,-1.0,-1.0,100.605621,-0.359352,-2.119219,-0.045193,-0.729086
840301.224185,-8.11567566,1.00815408,5.74894449,0.139754,-0.537935,-0.041997,-127.667053,103.508987,-155.515213,60.187659,24.830156,13.055676,21.838598,-1.0,-1.0,100.605621,-0.359352,-2.128414,-0.046941,-0.726617
840301.224185,-8.11567566,1.00815408,5.74894449,0.139754,-0.537935,-0.041997,-127.667053,103.508987,-155.515213,60.187659,24.830156,13.055676,21.838598,-1.0,-1.0,100.605621,-0.359352,-2.128414,-0.046941,-0.726617
840301.224185,-8.11567566,1.00815408,5.74894449,0.139754,-0.537935,-0.041997,-127.667053,103.508987,-155.515213,60.187659,24.830156,13.055676,21.838598,-1.0,-1.0,100.605621,-0.359352,-2.128414,-0.046941,-0.726617
840301.244172,-7.919583570000001,1.19930193,5.92901685,0.138175,-0.646708,-0.025098,-131.356216,103.08667,-155.860046,60.187659,24.830156,13.055676,21.838598,-1.0,-1.0,100.605621,-0.359352,-2.137989,-0.047862,-0.723667
840301.304132,-7.82528004,0.6740451,5.391634860000001,0.032784,-0.678691,0.03531,-130.477737,105.807083,-151.310822,60.187659,24.830156,13.055676,21.838598,-1.0,-1.0,100.605621,-0.359352,-2.175057,-0.051584,-0.718188
840301.324118,-7.84593009,0.72569475,5.7232030499999995,0.016023,-0.726411,0.055039,-128.566071,105.457001,-150.415771,60.187659,24.830156,13.055676,21.838598,-1.0,-1.0,100.605621,-0.359352,-2.188528,-0.052409,-0.717811
840301.344105,-7.781713830000001,0.39173292000000004,5.77753083,-0.02368,-0.773067,0.060304,-126.897583,104.413742,-149.398407,60.187659,24.830156,13.055676,21.838598,-1.0,-1.0,100.605621,-0.359352,-2.202662,-0.05345,-0.718042
840301.364091,-7.7742288,0.46044216,5.8844107800000005,-0.043008,-0.792385,0.069644,-125.877274,102.904663,-148.631836,60.187659,24.830156,13.055676,21.838598,-1.0,-1.0,100.605621,-0.359352,-2.217746,-0.054096,-0.718886
840301.384078,-7.707775860000001,0.42930522000000004,5.9405436,-0.053312,-0.767222,0.082889,-125.560928,101.051422,-149.098404,60.187659,24.830156,13.055676,21.838598,-1.0,-1.0,100.605621,-0.359352,-2.233493,-0.054629,-0.720268
840301.404064,-7.7646542400000005,0.35850645000000003,6.09068565,-0.054164,-0.755222,0.017081,-125.560928,101.051422,-149.098404,60.187659,24.830156,13.055676,21.838598,-1.0,-1.0,100.605621,-0.359352,-2.249221,-0.055156,-0.722016
840301.424051,-7.33011048,0.52510968,5.42786319,-0.005818,-0.90577,0.08971,-126.079208,99.58522,-147.445694,60.187659,24.830156,13.055676,21.838598,-1.0,-1.0,100.605621,-0.359352,-2.265318,-0.05508,-0.724
840301.444038,-7.7710896,0.35939916000000005,6.38706537,0.041417,-0.804211,0.02128,-127.888519,98.829391,-147.310822,60.187659,24.830156,13.055676,21.838598,-1.0,-1.0,100.605621,-0.359352,-2.282267,-0.055633,-0.724944
840301.464024,-7.040009160000001,0.42990363000000004,6.362520750000001,0.058736,-0.851395,-0.001256,-129.781464,99.396805,-146.623352,60.187659,24.830156,13.055676,21.838598,-1.0,-1.0,100.605255,-0.327644,-2.298423,-0.057086,-0.725174
840301.484011,-6.987466800000001,0.59366196,6.32270196,0.116783,-0.777889,0.054221,-131.084579,101.015594,-145.82811,60.187659,24.830156,13.055676,21.838598,-1.0,-1.0,100.605255,-0.327644,-2.315225,-0.057542,-0.724032
840301.503997,-7.50195225,0.30446316,6.14277675,0.171248,-0.716174,-0.058143,-129.893799,102.706238,-144.215408,60.187659,24.830156,13.055676,21.838598,-1.0,-1.0,100.605255,-0.327644,-2.330754,-0.059766,-0.723181
840301.523984,-6.69766959,0.58737375,6.665492790000001,0.206656,-0.650609,0.03165,-127.261414,103.371338,-142.573593,60.187659,24.830156,13.055676,21.838598,-1.0,-1.0,100.605255,-0.327644,-2.345554,-0.061388,-0.720529
840301.543971,-6.4991838600000005,0.10896948000000001,7.134312690000001,0.181662,-0.679371,0.010538,-123.82663,102.396942,-141.600998,60.187659,24.830156,13.055676,21.838598,-1.0,-1.0,100.605255,-0.327644,-2.359561,-0.063943,-0.717954
840301.563957,-6.9907629600000005,0.16495515000000002,7.22981304,0.168356,-0.640762,0.020901,-123.45105,100.427414,-141.103165,60.187659,24.830156,13.055676,21.838598,-1.0,-1.0,100.605255,-0.327644,-2.373266,-0.066774,-0.71558
840301.583944,-6.66025425,0.20851155000000002,7.28729964,0.169306,-0.634933,0.043644,-127.900375,99.49295,-142.342438,60.187659,24.830156,13.055676,21.838598,-1.0,-1.0,100.605255,-0.327644,-2.386488,-0.069254,-0.713499
840301.60393,-6.080659830000001,0.5924651400000001,8.11747089,0.166277,-0.771185,0.018851,-130.462845,101.416245,-141.700623,60.187659,24.830156,13.055676,21.838598,-1.0,-1.0,100.605255,-0.327644,-2.399171,-0.071897,-0.711731
840301.60393,-6.080659830000001,0.5924651400000001,8.11747089,0.166277,-0.771185,0.018851,-130.462845,101.416245,-141.700623,60.187659,24.830156,13.055676,21.838598,-1.0,-1.0,100.605255,-0.327644,-2.399171,-0.071897,-0.711731
840301.643903,-5.8101687,1.87440651,5.85642285,0.324915,-0.764856,0.237829,-128.845261,102.696091,-139.426758,60.187659,24.830156,13.055676,21.838598,-1.0,-1.0,100.605255,-0.327644,-2.428438,-0.080029,-0.70885
840301.66389,-5.848339410000001,2.15088174,7.8661386900000005,0.266698,-0.873909,0.289236,-128.805267,102.509888,-139.525513,60.187659,24.830156,13.055676,21.838598,-1.0,-1.0,100.605255,-0.327644,-2.443849,-0.087288,-0.708939
840301.683877,-7.122187530000001,1.5081109200000002,6.671025630000001,0.364013,-0.857324,0.17917,-128.230301,102.284317,-139.224747,60.187659,24.830156,13.055676,21.838598,-1.0,-1.0,100.605255,-0.327644,-2.46102,-0.095067,-0.709461
840301.703863,-6.33722076,0.9381008700000001,8.16911073,0.25678,-1.008211,0.077243,-127.304153,102.349319,-138.301041,60.187659,24.830156,13.055676,21.838598,-1.0,-1.0,100.605255,-0.327644,-2.477732,-0.10299,-0.708677
840301.72385,-6.09472737,0.8186445,7.36513218,0.25909,-1.026546,0.071385,-126.848007,102.988022,-137.544983,60.187659,24.830156,13.055676,21.838598,-1.0,-1.0,100.605255,-0.327644,-2.496648,-0.108708,-0.706653
840301.743836,-4.95259812,0.51477975,8.48375667,0.134854,-1.179663,0.138717,-126.793503,103.827637,-136.478073,60.187659,24.830156,13.055676,21.838598,-1.0,-1.0,100.605255,-0.327644,-2.51662,-0.113675,-0.704749
840301.783809,-5.160521070000001,1.16757639,8.45801523,-0.038266,-1.366678,0.205751,-125.422119,104.551956,-134.095871,60.187659,24.830156,13.055676,21.838598,-1.0,-1.0,100.605255,-0.327644,-2.564258,-0.120724,-0.706594
840301.803796,-4.72402512,1.3503465000000001,7.80536574,-0.043931,-1.413984,0.225537,-124.720215,105.130005,-132.553421,60.187659,24.830156,13.055676,21.838598,-1.0,-1.0,100.605255,-0.327644,-2.591238,-0.122642,-0.710116
840301.823783,-4.59678942,1.28747421,8.25877413,-0.042655,-1.486383,0.229086,-123.664612,105.663147,-131.105331,60.187659,24.830156,13.055676,21.838598,-1.0,-1.0,100.605255,-0.327644,-2.619866,-0.123819,-0.714395
840301.843769,-4.37824224,1.29645036,8.113429170000002,0.00036,-1.524117,0.220176,-122.863235,105.959656,-129.938904,60.187659,24.830156,13.055676,21.838598,-1.0,-1.0,100.605255,-0.327644,-2.64958,-0.125195,-0.718822
840301.863756,-4.06165392,1.38447549,8.31595662,0.040487,-1.540027,0.210401,-121.752106,106.19725,-128.211121,60.187659,24.830156,13.055676,21.838598,-1.0,-1.0,100.605255,-0.327644,-2.680305,-0.126926,-0.722883
840301.883742,-3.77275923,1.5386494500000003,8.7747507,0.069429,-1.554184,0.174155,-120.613495,106.762955,-126.770035,60.187659,24.830156,13.055676,21.838598,-1.0,-1.0,100.605255,-0.327644,-2.711622,-0.129008,-0.726493
840301.903729,-3.51604134,1.21232961,9.09434088,0.066431,-1.603939,0.118085,-119.548569,107.21608,-125.084473,60.187659,24.830156,13.055676,21.838598,-1.0,-1.0,100.605255,-0.327644,-2.742976,-0.131574,-0.729412
840301.923716,-3.0710106900000005,1.14212925,9.314830440000001,0.024929,-1.619817,0.111623,-118.126495,107.914337,-123.280411,60.187659,24.830156,13.055676,21.838598,-1.0,-1.0,100.605255,-0.327644,-2.774745,-0.133698,-0.731378
840301.943702,-2.8003724100000005,1.2976471800000002,9.281751120000001,0.009081,-1.59144,0.119108,-116.156662,108.368668,-122.009399,60.187659,24.830156,13.055676,21.838598,-1.0,-1.0,100.605255,-0.327644,-2.80696,-0.135201,-0.733134
840301.963689,-2.80771029,1.3448038500000001,9.647732790000001,-0.012555,-1.538411,0.105922,-114.337646,109.015656,-120.656052,60.187659,24.830156,13.055676,21.838598,-1.0,-1.0,100.605255,-0.327644,-2.839098,-0.136058,-0.735208
840301.983675,-2.9166895800000003,1.4693418,9.76898439,-0.02298,-1.447116,0.068178,-112.325516,109.154083,-118.745316,60.187659,24.830156,13.055676,21.838598,-1.0,-1.0,100.605255,-0.327644,-2.870597,-0.136401,-0.737327
840302.003662,-2.70142875,1.4533318800000001,9.93693159,-0.040843,-1.3385,0.045969,-109.880249,108.932999,-117.611008,60.187659,24.830156,13.055676,21.838598,-1.0,-1.0,100.605255,-0.327644,-2.900489,-0.136273,-0.73892
840302.023648,-1.97843175,1.30049208,9.950410530000001,-0.062643,-1.280836,0.031117,-108.255997,107.851318,-116.930313,60.187659,24.830156,13.055676,21.838598,-1.0,-1.0,100.605255,-0.327644,-2.928089,-0.135712,-0.740003
840302.043635,-1.35333855,1.3540841099999998,9.97270866,-0.084827,-1.251566,0.034331,-107.315445,107.117081,-117.058472,60.187659,24.830156,13.055676,21.838598,-1.0,-1.0,100.605255,-0.327644,-2.954199,-0.134572,-0.740802
840302.063622,-1.1455725600000002,1.5497249400000002,9.76733631,-0.1098,-1.115227,-0.011204,-106.671707,106.608047,-117.303467,60.187659,24.830156,13.055676,21.838598,-1.0,-1.0,100.605255,-0.327644,-2.979423,-0.132936,-0.741605
840302.083608,-5.09405832,-1.7754530400000001,20.692664640000004,-1.280966,-1.258443,-0.459949,-110.004578,106.955414,-116.361343,60.187659,24.830156,13.055676,21.838598,-1.0,-1.0,100.605255,-0.327644,-3.00246,-0.130998,-0.742112
840302.103595,3.9360663,2.6517312900000003,-6.048924480000001,0.042677,-0.063994,-0.03964,-108.385742,107.433823,-113.63942,60.187659,24.830156,13.055676,21.838598,-1.0,-1.0,100.605255,-0.327644,-3.019654,-0.115711,-0.737244
840302.123581,-1.6567520400000002,1.32280002,21.22257141,-0.796166,-1.027799,-0.158565,-108.385742,107.433823,-113.63942,60.187659,24.830156,13.055676,21.838598,-1.0,-1.0,100.605255,-0.327644,-3.038503,-0.10049,-0.734853
840302.143568,0.5653699200000001,1.8738081000000002,4.86338598,-0.34177,-0.507222,-0.031659,-105.363449,106.142487,-111.378998,60.187659,24.830156,13.055676,21.838598,-1.0,-1.0,100.605255,-0.327644,-3.056722,-0.089359,-0.733052
840302.163554,-0.34772526,1.0139910300000001,9.680517810000001,-0.294212,-0.427645,-0.041435,-103.490784,104.948334,-110.580124,60.187659,24.830156,13.055676,21.838598,-1.0,-1.0,100.605255,-0.327644,-3.068147,-0.081668,-0.732374
840302.183541,0.17782587000000002,1.30947804,8.857831590000002,-0.200673,-0.315968,0.049004,-102.500183,103.85849,-109.761688,60.187659,24.830156,13.055676,21.838598,-1.0,-1.0,100.605255,-0.327644,-3.078993,-0.074988,-0.731888
840302.203528,-0.22543380000000002,1.0418318100000001,10.601549280000002,-0.211787,-0.341008,0.102962,-102.402985,104.017914,-109.54245,60.187659,24.830156,13.055676,21.838598,-1.0,-1.0,100.605255,-0.327644,-3.087657,-0.069794,-0.732478
840302.223514,-0.42272271,0.8481333600000001,10.553205600000002,-0.230966,-0.383444,0.131637,-103.277908,104.542664,-109.520279,60.187659,24.830156,13.055676,21.838598,-1.0,-1.0,100.605255,-0.327644,-3.095822,-0.06504,-0.734224
840302.243501,-0.37841094,0.7985928600000001,9.22337181,-0.217965,-0.368407,0.133995,-104.822632,104.637756,-109.337387,60.187659,24.830156,13.055676,21.838598,-1.0,-1.0,100.605255,-0.327644,-3.102987,-0.060899,-0.736841
840302.263487,-0.30565998000000005,0.70039476,9.84008727,-0.262301,-0.422488,0.127614,-106.072968,104.074875,-109.976456,60.187659,24.830156,13.055676,21.838598,-1.0,-1.0,100.605255,-0.327644,-3.110302,-0.056552,-0.739684
840302.283474,-0.17094906,0.72404667,9.48712347,-0.269208,-0.447928,0.153173,-106.088943,102.651016,-110.24379,60.187659,24.830156,13.055676,21.838598,-1.0,-1.0,100.605255,-0.327644,-3.118728,-0.051642,-0.742264
840302.303461,-0.64591002,0.49516956,9.67782006,-0.276369,-0.462347,0.142044,-104.6577,100.529465,-110.946747,60.187659,24.830156,13.055676,21.838598,-1.0,-1.0,100.605255,-0.327644,-3.12795,-0.04627,-0.745149
840302.323447,-0.57076542,0.28305774,9.91762551,-0.286339,-0.481541,0.114418,-102.718399,99.398041,-110.790543,60.187659,24.830156,13.055676,21.838598,-1.0,-1.0,100.605255,-0.327644,-3.137605,-0.040605,-0.748015
840302.343434,-0.30536568000000003,0.17678601,9.668843910000001,-0.265129,-0.504828,0.099255,-100.711502,98.781906,-110.255615,60.187659,24.830156,13.055676,21.838598,-1.0,-1.0,100.605255,-0.327644,3.135647,-0.034786,-0.750461
840302.36342,-1.5135064200000001,1.7188787700000001,12.49377075,-0.069677,-0.284193,0.232252,-98.45314,99.141022,-109.654724,60.187659,24.830156,13.055676,21.838598,-1.0,-1.0,100.605255,-0.327644,3.12589,-0.029538,-0.752573
840302.383407,-0.2775249,-0.2977335,11.48217336,-0.098594,-0.423518,0.07544,-97.871674,101.895691,-107.512436,60.187659,24.830156,13.055676,21.838598,-1.0,-1.0,100.605255,-0.327644,3.125412,-0.029584,-0.756531
840302.42338,0.04460607,0.28546119000000003,7.70313573,0.01639,0.130417,0.30139,-103.703476,101.095123,-107.68396,60.187659,24.830156,13.055676,21.838598,-1.0,-1.0,100.605255,-0.327644,3.127078,-0.029976,-0.763949
840302.443367,-0.13172868000000001,0.16031502,9.69862707,0.037655,0.056945,0.256019,-102.906281,99.560303,-108.190735,60.187659,24.830156,13.055676,21.838598,-1.0,-1.0,100.605255,-0.327644,3.127154,-0.029994,-0.770096
840302.443367,-0.13172868000000001,0.16031502,9.69862707,0.037655,0.056945,0.256019,-102.906281,99.560303,-108.190735,60.187659,24.830156,13.055676,21.838598,-1.0,-1.0,100.605255,-0.327644,3.127154,-0.029994,-0.770096
840302.48334,0.43140456000000005,-0.20582361000000002,10.221647220000001,0.016366,0.013629,0.136309,-97.984467,99.817322,-108.002243,60.187659,24.830156,13.055676,21.838598,-1.0,-1.0,100.605255,-0.327644,3.126332,-0.030018,-0.779647
840302.503326,0.56163231,-0.12379239,9.96717582,0.011061,-0.017696,0.071829,-96.288971,100.562164,-108.054047,60.187659,24.830156,13.055676,21.838598,-1.0,-1.0,100.605255,-0.327644,3.1261,-0.030263,-0.782638
840302.503326,0.56163231,-0.12379239,9.96717582,0.011061,-0.017696,0.071829,-96.288971,100.562164,-108.054047,60.187659,24.830156,13.055676,21.838598,-1.0,-1.0,100.605255,-0.327644,3.1261,-0.030263,-0.782638
840302.5433,0.02470158,0.24369021,9.70312005,0.007537,0.002504,0.002339,-95.680603,101.139099,-107.877441,60.187659,24.830156,13.055676,21.838598,-1.0,-1.0,100.605255,-0.327644,3.125829,-0.030515,-0.784935
840302.563286,-0.13771278,0.22438413000000001,9.898466580000001,-0.001701,-0.006374,0.006295,-95.464462,101.497101,-107.867172,60.187659,24.830156,13.055676,21.838598,-1.0,-1.0,100.605255,-0.327644,3.125677,-0.030647,-0.784962
840302.583273,0.08996751000000001,0.19264878,9.67363119,0.005083,-0.00239,0.009118,-95.756287,101.215958,-107.883118,60.187659,24.830156,13.055676,21.838598,-1.0,-1.0,100.605255,-0.327644,3.125507,-0.03064,-0.784949
840302.603259,0.12649014,0.036826740000000004,9.749227050000002,0.003657,0.009403,0.007188,-95.906982,101.085907,-107.793945,60.187659,24.830156,13.055676,21.838598,-1.0,-1.0,100.605255,-0.327644,3.125374,-0.030628,-0.785068
840302.623246,0.17842428,0.10912644,9.764795520000002,0.007535,0.001979,0.008413,-96.507584,100.657776,-107.69986,60.187659,24.830156,13.055676,21.838598,-1.0,-1.0,100.605255,-0.327644,3.125212,-0.03058,-0.785134
840302.643232,0.07724394000000001,0.23620518,9.79069392,0.007409,0.004428,0.004262,-97.118484,100.459564,-107.864685,60.187659,24.830156,13.055676,21.838598,-1.0,-1.0,100.605255,-0.327644,3.12512,-0.030602,-0.785233
840302.663219,0.07454619,0.32662395,9.83365191,0.001369,0.004674,-0.001764,-97.864731,100.154068,-107.999039,60.187659,24.830156,13.055676,21.838598,-1.0,-1.0,100.605255,-0.327644,3.125042,-0.030591,-0.785255
840302.683206,0.10269108,0.46358136,9.799670070000001,0.002366,0.005942,-0.003492,-98.832169,99.75148,-108.194839,60.187659,24.830156,13.055676,21.838598,-1.0,-1.0,100.605255,-0.327644,3.12493,-0.030573,-0.785182
840302.703192,0.06720831000000001,0.4543011,9.82661814,0.000422,0.003407,-0.002849,-99.642563,99.399429,-108.570251,60.187659,24.830156,13.055676,21.838598,-1.0,-1.0,100.605255,-0.327644,3.124931,-0.030545,-0.785089
840302.723179,0.11989782,0.39263544,9.7465293,0.001446,0.005617,-0.000972,-100.186661,99.443909,-108.223267,60.187659,24.830156,13.055676,21.838598,-1.0,-1.0,100.605255,-0.327644,3.124933,-0.030502,-0.78498
840302.743165,0.12274272000000001,0.34353639,9.73006812,0.000449,0.010213,0.001644,-100.505508,99.390594,-108.618866,60.187659,24.830156,13.055676,21.838598,-1.0,-1.0,100.605255,-0.327644,3.124969,-0.030493,-0.784898
840302.763152,0.15522363,0.25896438000000005,9.81449298,-0.001909,0.004339,0.000171,-100.835144,99.509491,-108.411148,60.187659,24.830156,13.055676,21.838598,-1.0,-1.0,100.605255,-0.327644,3.125015,-0.030439,-0.784825
840302.783139,0.0028449,0.45984375,9.62648433,0.001354,0.008154,-0.010326,-100.954361,99.534576,-108.399414,60.187659,24.830156,13.055676,21.838598,-1.0,-1.0,100.605255,-0.327644,3.124995,-0.030336,-0.784785
840302.803125,0.06107706,0.37931346,9.767934720000001,0.00506,0.005063,-0.011451,-101.438736,99.44989,-108.905426,60.187659,24.830156,13.055676,21.838598,-1.0,-1.0,100.605255,-0.327644,3.125055,-0.03029,-0.784519
840302.823112,0.18277011,0.32377905,9.796530870000002,0.003227,0.008105,-0.006601,-101.692535,99.47435,-108.957489,60.187659,24.830156,13.055676,21.838598,-1.0,-1.0,100.605255,-0.327644,3.125085,-0.030255,-0.784246
840302.843098,0.11855385,0.31883481,9.82886463,0.00351,0.006163,-0.00402,-101.692535,99.47435,-108.957489,60.187659,24.830156,13.055676,21.838598,-1.0,-1.0,100.605255,-0.327644,3.125091,-0.030243,-0.784022
840302.863085,0.13890960000000002,0.29967588,9.85086846,0.004629,0.008194,0.001973,-102.119568,99.240433,-108.722351,60.187659,24.830156,13.055676,21.838598,-1.0,-1.0,100.605255,-0.327644,3.125126,-0.030221,-0.783854
840302.883071,0.14325543000000002,0.32646699000000007,9.81329616,0.002865,0.005585,0.005887,-101.802597,99.49025,-108.89827,60.187659,24.830156,13.055676,21.838598,-1.0,-1.0,100.605255,-0.327644,3.125139,-0.030212,-0.783788
840302.883071,0.14325543000000002,0.32646699000000007,9.81329616,0.002865,0.005585,0.005887,-101.802597,99.49025,-108.89827,60.187659,24.830156,13.055676,21.838598,-1.0,-1.0,100.605255,-0.327644,3.125139,-0.030212,-0.783788
840302.923045,0.11601306,0.31210515000000005,9.79038981,0.004261,0.002169,0.001087,-102.068878,99.512222,-108.64418,60.187659,24.830156,13.055676,21.838598,-1.0,-1.0,100.605255,-0.327644,3.125141,-0.03019,-0.783767
840302.943031,0.10373094000000001,0.32572143000000003,9.78290478,0.004776,0.005377,0.003794,-101.93866,99.553925,-108.990173,60.187659,24.830156,13.055676,21.838598,-1.0,-1.0,100.605255,-0.327644,3.125137,-0.030189,-0.78373
840302.963018,0.12544047,0.31763799,9.78156081,0.004145,0.002033,0.00175,-101.833481,99.822083,-108.785645,60.187659,24.830156,13.055676,21.838598,-1.0,-1.0,100.605255,-0.327644,3.125134,-0.030176,-0.783722
840302.983004,0.10193571,0.30132396,9.79593246,0.00469,0.003602,0.003838,-102.020447,99.908356,-108.741852,60.187659,24.830156,13.055676,21.838598,-1.0,-1.0,100.605255,-0.327644,3.125106,-0.030174,-0.783716
840303.002991,0.09924777,0.28979721,9.807302250000001,0.000802,0.005256,0.002138,-101.971588,99.601181,-108.870117,60.187659,24.830156,13.055676,21.838598,-1.0,-1.0,100.605255,-0.327644,3.125127,-0.030188,-0.783712
840303.022978,0.11511054,0.29338767,9.787093650000001,0.003062,0.004722,0.003319,-101.991821,99.691483,-108.935959,60.187659,24.830156,13.055676,21.838598,-1.0,-1.0,100.605255,-0.327644,3.125126,-0.030181,-0.783702
840303.042964,0.09550035000000001,0.3008727,9.79084107,0.003558,0.005131,0.004351,-102.047562,99.811508,-108.969086,60.187659,24.830156,13.055676,21.838598,-1.0,-1.0,100.605255,-0.327644,3.125124,-0.030176,-0.783686
840303.062951,0.10463346000000001,0.28800198,9.79024266,0.004481,0.00418,0.003745,-102.045639,99.892975,-108.703537,60.187659,24.830156,13.055676,21.838598,-1.0,-1.0,100.605255,-0.327644,3.125145,-0.030168,-0.783674
840303.082937,0.12109464000000002,0.30910329000000003,9.79398027,0.004139,0.004821,0.002614,-102.061432,99.728516,-108.627716,60.187659,24.830156,13.055676,21.838598,-1.0,-1.0,100.605255,-0.327644,3.125169,-0.030162,-0.783677
840303.12291,0.10403505,0.29653668000000005,9.796530870000002,0.002983,0.005934,0.003198,-101.825653,100.034454,-108.693054,60.187659,24.830156,13.055676,21.838598,-1.0,-1.0,100.605255,-0.327644,3.125222,-0.030139,-0.783668
840303.142897,0.11226564,0.29429019,9.796530870000002,0.003282,0.003312,0.004368,-102.030273,99.714386,-108.542297,60.187659,24.830156,13.055676,21.838598,-1.0,-1.0,100.605255,-0.327644,3.125241,-0.030123,-0.783675
840303.162884,0.10283823,0.31449879,9.7929306,0.004224,0.004467,0.00447,-101.899948,100.000153,-108.767334,60.187659,24.830156,13.055676,21.838598,-1.0,-1.0,100.605255,-0.327644,3.125271,-0.030104,-0.783674
840303.18287,0.12065319,0.30821058,9.8043102,0.003787,0.0044,0.005886,-101.883163,99.727448,-108.932907,60.187659,24.830156,13.055676,21.838598,-1.0,-1.0,100.605255,-0.327644,3.12529,-0.030105,-0.783676
840303.202857,0.10657584,0.31194819,9.79413723,0.002913,0.0048,0.00405,-102.136703,99.795944,-108.5159,60.187659,24.830156,13.055676,21.838598,-1.0,-1.0,100.605255,-0.327644,3.125314,-0.030107,-0.783674
840303.222843,0.11121597,0.30462012,9.78485697,0.002913,0.0048,0.00405,-102.099808,99.726913,-108.617447,60.187659,24.830156,13.055676,21.838598,-1.0,-1.0,100.605255,-0.327644,3.125329,-0.030101,-0.783685
840303.24283,0.11765133000000001,0.31854051,9.803711790000001,0.004296,0.005178,0.004623,-102.118225,99.843887,-108.635559,60.187659,24.830156,13.055676,21.838598,-1.0,-1.0,100.605255,-0.327644,3.125341,-0.030108,-0.783694
840303.262817,0.10269108,0.30506157,9.7897914,0.004296,0.005178,0.004623,-102.042831,99.597641,-108.834091,60.187659,24.830156,13.055676,21.838598,-1.0,-1.0,100.605255,-0.327644,3.125335,-0.030095,-0.783686
840303.282803,0.09504909,0.29952873,9.818377739999999,0.002116,0.002955,0.004818,-102.058151,99.773422,-108.903091,60.187659,24.830156,13.055676,21.838598,-1.0,-1.0,100.605255,-0.327644,3.125347,-0.030083,-0.783678
840303.30279,0.11346246,0.30446316,9.80222067,0.004432,0.004096,0.004191,-101.926712,99.73613,-108.709549,60.187659,24.830156,13.055676,21.838598,-1.0,-1.0,100.605255,-0.327644,3.125368,-0.030084,-0.783685
840303.322776,0.09849240000000001,0.29788065,9.784101600000001,0.005576,0.003553,0.002386,-102.085983,99.710037,-108.633209,60.187659,24.830156,13.055676,21.838598,-1.0,-1.0,100.605255,-0.327644,3.125365,-0.030097,-0.783683
840303.342763,0.10343664,0.29907747,9.83829204,0.004589,0.004485,0.00442,-101.958832,99.784271,-108.643021,60.187659,24.830156,13.055676,21.838598,-1.0,-1.0,100.605255,-0.327644,3.125363,-0.030104,-0.783683
840303.36275,0.11016630000000001,0.30446316,9.79488279,0.004417,0.002648,0.003586,-101.781219,99.801849,-108.488953,60.187659,24.830156,13.055676,21.838598,-1.0,-1.0,100.605255,-0.327644,3.125366,-0.030105,-0.783683
840303.382736,0.10762551000000001,0.30926025,9.807007950000001,0.002773,0.004852,0.004368,-101.900742,99.709869,-108.301743,60.187659,24.830156,13.055676,21.838598,-1.0,-1.0,100.605255,-0.327644,3.125373,-0.030105,-0.783691
840303.402723,0.08756406,0.30746502000000003,9.79892451,0.00206,0.002141,0.002529,-102.034409,99.738586,-108.432083,60.187659,24.830156,13.055676,21.838598,-1.0,-1.0,100.605255,-0.327644,3.125379,-0.03009,-0.783686
840303.422709,0.10777265999999999,0.30147111000000004,9.79009551,0.003645,0.005384,0.003324,-101.933655,99.752853,-108.576599,60.187659,24.830156,13.055676,21.838598,-1.0,-1.0,100.605255,-0.327644,3.125372,-0.030069,-0.783667
840303.442696,0.11960352,0.29668383,9.80026848,0.004308,0.002377,0.002648,-101.825882,99.946213,-108.643265,60.187659,24.830156,13.055676,21.838598,-1.0,-1.0,100.605255,-0.327644,3.125384,-0.030057,-0.783659
840303.462682,0.1158561,0.30326634,9.79189074,0.004042,0.00485,0.002972,-102.000977,99.844116,-108.389206,60.187659,24.830156,13.055676,21.838598,-1.0,-1.0,100.605255,-0.327644,3.125376,-0.030061,-0.783644
840303.482669,0.10568313,0.31344912,9.795334050000001,0.003953,0.003802,0.002509,-101.807526,99.628357,-108.595917,60.187659,24.830156,13.055676,21.838598,-1.0,-1.0,100.605255,-0.327644,3.125369,-0.030054,-0.783638
840303.502656,0.09145863,0.31344912,9.78515127,0.003478,0.004228,0.003497,-101.886688,99.796982,-108.562393,60.187659,24.830156,13.055676,21.838598,-1.0,-1.0,100.605255,-0.327644,3.125375,-0.030051,-0.783637
840303.522642,0.08831943,0.30266793,9.80222067,0.005015,0.003315,0.00321,-101.994766,100.00972,-108.602615,60.187659,24.830156,13.055676,21.838598,-1.0,-1.0,100.605255,-0.327644,3.125371,-0.030049,-0.783625
840303.542629,0.09909081000000002,0.31120263000000004,9.796530870000002,0.002004,0.004337,0.001752,-101.973358,99.964401,-108.567978,60.187659,24.830156,13.055676,21.838598,-1.0,-1.0,100.605255,-0.327644,3.125373,-0.030052,-0.783622
840303.562615,0.11929941000000001,0.30955455000000004,9.787250610000001,0.00302,0.003757,0.002997,-101.973358,99.964401,-108.567978,60.187659,24.830156,13.055676,21.838598,-1.0,-1.0,100.605255,-0.327644,3.125377,-0.030052,-0.783603
840303.582602,0.09370512,0.31629402,9.81,0.002793,0.003718,0.002579,-101.976669,99.874344,-108.543274,60.187659,24.830156,13.055676,21.838598,-1.0,-1.0,100.605255,-0.327644,3.125384,-0.03004,-0.783607
840303.602589,0.11001915,0.31614687,9.78934014,0.004939,0.004657,0.0039,-102.071381,99.89856,-108.329453,60.187659,24.830156,13.055676,21.838598,-1.0,-1.0,100.605255,-0.327644,3.125392,-0.030049,-0.78362
840303.622575,0.11645451,0.2977335,9.81509139,0.003403,0.006621,0.003829,-102.190186,99.923065,-108.382431,60.187659,24.830156,13.055676,21.838598,-1.0,-1.0,100.605469,-0.346142,3.12541,-0.030063,-0.783624
840303.642562,0.10298538000000002,0.31165389,9.808499070000002,0.003361,0.004242,0.004138,-102.089005,99.757568,-108.502426,60.187659,24.830156,13.055676,21.838598,-1.0,-1.0,100.605469,-0.346142,3.125434,-0.030048,-0.783632
840303.662548,0.1013373,0.31000581,9.802966230000001,0.004186,0.003873,0.004333,-102.137054,99.673035,-108.305191,60.187659,24.830156,13.055676,21.838598,-1.0,-1.0,100.605469,-0.346142,3.125438,-0.030055,-0.78363
840303.682535,0.09490194,0.30611124,9.82212516,0.004522,0.003784,0.004206,-102.092377,99.906754,-108.67247,60.187659,24.830156,13.055676,21.838598,-1.0,-1.0,100.605469,-0.346142,3.125454,-0.030061,-0.78363
840303.702522,0.12304683000000001,0.30012714,9.796226760000001,0.004207,0.002237,0.004574,-101.97168,99.727631,-108.456451,60.187659,24.830156,13.055676,21.838598,-1.0,-1.0,100.605469,-0.346142,3.125467,-0.030058,-0.783621
840303.722508,0.10987200000000001,0.3094074,9.83290635,0.003703,0.003219,0.003476,-102.12558,99.79892,-108.516571,60.187659,24.830156,13.055676,21.838598,-1.0,-1.0,100.605469,-0.346142,3.125477,-0.030048,-0.783628
840303.742495,0.10298538000000002,0.30132396,9.7954812,0.002785,0.000568,0.004455,-102.214447,99.729752,-108.542984,60.187659,24.830156,13.055676,21.838598,-1.0,-1.0,100.605469,-0.346142,3.125487,-0.030045,-0.783608
840303.762481,0.09609875999999999,0.29997999,9.796226760000001,0.003988,0.001884,0.004435,-102.229324,99.963715,-108.805206,60.187659,24.830156,13.055676,21.838598,-1.0,-1.0,100.605469,-0.346142,3.1255,-0.030041,-0.783607
840303.782468,0.11181438,0.29742939,9.807007950000001,0.002367,0.003124,0.003497,-102.167862,99.748459,-108.789017,60.187659,24.830156,13.055676,21.838598,-1.0,-1.0,100.605469,-0.346142,3.125502,-0.030035,-0.7836
840303.822441,0.10597743000000001,0.30476727000000003,9.80057259,0.003808,0.005961,0.004614,-102.192886,99.955261,-108.663864,60.187659,24.830156,13.055676,21.838598,-1.0,-1.0,100.605469,-0.346142,3.125518,-0.030039,-0.783603
840303.822441,0.10597743000000001,0.30476727000000003,9.80057259,0.003808,0.005961,0.004614,-102.192886,99.955261,-108.663864,60.187659,24.830156,13.055676,21.838598,-1.0,-1.0,100.605469,-0.346142,3.125518,-0.030039,-0.783603
840303.862414,0.10358379000000001,0.29997999,9.811795230000001,0.002927,0.002384,0.004308,-102.160828,99.922867,-108.517227,60.187659,24.830156,13.055676,21.838598,-1.0,-1.0,100.605469,-0.346142,3.125544,-0.030022,-0.783601
840303.862414,0.10358379000000001,0.29997999,9.811795230000001,0.002927,0.002384,0.004308,-102.160828,99.922867,-108.517227,60.187659,24.830156,13.055676,21.838598,-1.0,-1.0,100.605469,-0.346142,3.125544,-0.030022,-0.783601
840303.902387,0.11570895,0.29982303,9.80281908,0.004377,0.003077,0.004634,-102.13002,100.154556,-108.576401,60.187659,24.830156,13.055676,21.838598,-1.0,-1.0,100.605469,-0.346142,3.125572,-0.030013,-0.783581
840303.922374,0.11271690000000001,0.30446316,9.802966230000001,0.003294,0.002464,0.003981,-101.964355,99.699432,-108.729141,60.187659,24.830156,13.055676,21.838598,-1.0,-1.0,100.605469,-0.346142,3.1256,-0.030013,-0.783571
840303.942361,0.10178856,0.30101985000000003,9.80940159,0.004112,0.002173,0.00337,-102.439774,99.693588,-108.752335,60.187659,24.830156,13.055676,21.838598,-1.0,-1.0,100.605469,-0.346142,3.125607,-0.030008,-0.78356
840303.962347,0.11137293000000001,0.30252078000000004,9.787849020000001,0.003944,0.003148,0.004908,-102.045959,99.956726,-108.601791,60.187659,24.830156,13.055676,21.838598,-1.0,-1.0,100.605469,-0.346142,3.125629,-0.029992,-0.783551
840303.982334,0.10238697000000001,0.29967588,9.811500930000001,0.004759,0.005123,0.003914,-102.273041,99.779953,-108.869232,60.187659,24.830156,13.055676,21.838598,-1.0,-1.0,100.605469,-0.346142,3.125652,-0.029987,-0.783563
840304.00232,0.11570895,0.29637972,9.820477080000002,0.003775,0.005245,0.002723,-102.192017,99.737045,-108.772873,60.187659,24.830156,13.055676,21.838598,-1.0,-1.0,100.605469,-0.346142,3.125676,-0.029985,-0.78356
840304.022307,0.11286405000000001,0.3122523,9.808499070000002,0.003011,0.004334,0.003108,-102.117538,99.876266,-108.64447,60.187659,24.830156,13.055676,21.838598,-1.0,-1.0,100.605469,-0.346142,3.125711,-0.029981,-0.783546
840304.042294,0.12558762,0.29578131,9.8242245,0.004559,0.002502,0.004331,-102.03981,99.999435,-109.061325,60.187659,24.830156,13.055676,21.838598,-1.0,-1.0,100.605469,-0.346142,3.125736,-0.029987,-0.783531
840304.06228,0.11616021000000001,0.29967588,9.82197801,0.003993,0.0017,0.004451,-102.022003,99.869446,-108.867599,60.187659,24.830156,13.055676,21.838598,-1.0,-1.0,100.605469,-0.346142,3.125748,-0.029996,-0.783528
840304.082267,0.11480643,0.32093415000000003,9.80251497,0.00436,0.002452,0.003233,-101.984497,99.911667,-108.743729,60.187659,24.830156,13.055676,21.838598,-1.0,-1.0,100.605469,-0.346142,3.125768,-0.029991,-0.783516
840304.102253,0.10852803000000001,0.30357045,9.834995880000001,0.00351,0.002264,0.003464,-101.997787,99.757309,-108.848282,60.187659,24.830156,13.055676,21.838598,-1.0,-1.0,100.605469,-0.346142,3.125788,-0.03,-0.783504
840304.12224,0.10657584,0.31434183000000004,9.831258270000001,0.004181,0.000775,0.003618,-102.065369,99.85643,-108.564194,60.187659,24.830156,13.055676,21.838598,-1.0,-1.0,100.605469,-0.346142,3.125795,-0.029998,-0.783499
840304.142227,0.11780829000000001,0.30206952000000004,9.816582510000002,0.004594,0.003131,0.004602,-102.034393,99.781265,-108.749329,60.187659,24.830156,13.055676,21.838598,-1.0,-1.0,100.605469,-0.346142,3.125803,-0.029995,-0.783508
840304.162213,0.1041822,0.29697813,9.85250673,0.003445,0.00254,0.003198,-102.108612,99.685257,-108.566742,60.187659,24.830156,13.055676,21.838598,-1.0,-1.0,100.605469,-0.346142,3.125819,-0.029998,-0.783513
840304.1822,0.11256975000000001,0.31000581,9.807302250000001,0.004067,0.004035,0.005181,-102.197723,99.694443,-108.449631,60.187659,24.830156,13.055676,21.838598,-1.0,-1.0,100.605469,-0.346142,3.125835,-0.029995,-0.783514
840304.202186,0.10119015,0.29818476,9.820182780000001,0.003785,0.004001,0.002738,-102.36174,99.705612,-108.425247,60.187659,24.830156,13.055676,21.838598,-1.0,-1.0,100.605469,-0.346142,3.125862,-0.029991,-0.783504
840304.222173,0.10492776000000001,0.30386475,9.80236782,0.003972,0.003133,0.004158,-102.25351,99.577118,-108.326477,60.187659,24.830156,13.055676,21.838598,-1.0,-1.0,100.605469,-0.346142,3.125889,-0.030001,-0.783489
840304.222173,0.10492776000000001,0.30386475,9.80236782,0.003972,0.003133,0.004158,-102.25351,99.577118,-108.326477,60.187659,24.830156,13.055676,21.838598,-1.0,-1.0,100.605469,-0.346142,3.125889,-0.030001,-0.783489
840304.222173,0.10492776000000001,0.30386475,9.80236782,0.003972,0.003133,0.004158,-102.25351,99.577118,-108.326477,60.187659,24.830156,13.055676,21.838598,-1.0,-1.0,100.605469,-0.346142,3.125889,-0.030001,-0.783489
840304.222173,0.10492776000000001,0.30386475,9.80236782,0.003972,0.003133,0.004158,-102.25351,99.577118,-108.326477,60.187659,24.830156,13.055676,21.838598,-1.0,-1.0,100.605469,-0.346142,3.125889,-0.030001,-0.783489
840304.302119,0.10313253,0.30730806,9.80565417,0.003791,0.000851,0.004887,-102.023178,99.826401,-108.674103,60.187659,24.830156,13.055676,21.838598,-1.0,-1.0,100.605469,-0.346142,3.125982,-0.029984,-0.783497
840304.322106,0.11047041,0.29982303,9.79787484,0.004727,0.002029,0.002916,-102.066544,99.989868,-108.638596,60.187659,24.830156,13.055676,21.838598,-1.0,-1.0,100.605469,-0.346142,3.126016,-0.02999,-0.783491
840304.342092,0.10313253,0.30386475,9.803417490000001,0.002943,0.003194,0.004564,-102.070374,99.819595,-108.464722,60.187659,24.830156,13.055676,21.838598,-1.0,-1.0,100.605469,-0.346142,3.126043,-0.029986,-0.783488
840304.362079,0.10612458,0.31210515000000005,9.792783450000002,0.002939,0.002822,0.004651,-102.188736,99.969193,-108.312988,60.187659,24.830156,13.055676,21.838598,-1.0,-1.0,100.605469,-0.346142,3.126079,-0.029984,-0.783485
840304.382066,0.09220419,0.29189655000000003,9.80416305,0.004022,0.003813,0.005169,-102.324738,99.762466,-108.564407,60.187659,24.830156,13.055676,21.838598,-1.0,-1.0,100.605469,-0.346142,3.126109,-0.02999,-0.783488
840304.402052,0.10762551000000001,0.29414304,9.81389457,0.00445,0.002545,0.004755,-101.986389,99.735031,-108.519363,60.187659,24.830156,13.055676,21.838598,-1.0,-1.0,100.605469,-0.346142,3.126136,-0.029997,-0.783487
840304.422039,0.09056592000000001,0.30311919,9.79877736,0.004538,0.001935,0.004866,-101.788101,99.831604,-108.144669,60.187659,24.830156,13.055676,21.838598,-1.0,-1.0,100.605469,-0.346142,3.126176,-0.029996,-0.783488
840304.442025,0.11346246,0.29548701,9.815689800000001,0.003945,0.002641,0.003758,-101.886017,99.874146,-108.166122,60.187659,24.830156,13.055676,21.838598,-1.0,-1.0,100.605469,-0.346142,3.126203,-0.030007,-0.783496
840304.462012,0.09789399,0.31180104000000003,9.79443153,0.004758,0.001043,0.004266,-102.135223,99.770462,-108.487152,60.187659,24.830156,13.055676,21.838598,-1.0,-1.0,100.605469,-0.346142,3.126227,-0.030012,-0.783493
840304.481999,0.11197134000000002,0.30730806,9.803260530000001,0.004983,0.003577,0.004634,-101.990997,99.932465,-108.426025,60.187659,24.830156,13.055676,21.838598,-1.0,-1.0,100.605469,-0.346142,3.126249,-0.030032,-0.783505
840304.501985,0.10508471999999999,0.30371760000000003,9.818829,0.002945,0.003182,0.003562,-101.860855,99.875366,-108.261505,60.187659,24.830156,13.055676,21.838598,-1.0,-1.0,100.605469,-0.346142,3.126278,-0.030052,-0.783497
840304.521972,0.10223982000000001,0.30147111000000004,9.811343970000001,0.004791,0.002633,0.005081,-102.124725,99.731247,-108.622208,60.187659,24.830156,13.055676,21.838598,-1.0,-1.0,100.605469,-0.346142,3.126293,-0.030058,-0.783485
840304.561945,0.10747836000000001,0.29414304,9.80385894,0.003839,0.004336,0.003725,-102.132141,99.750031,-108.519196,60.187659,24.830156,13.055676,21.838598,-1.0,-1.0,100.605469,-0.346142,3.126341,-0.030084,-0.783485
840304.581932,0.10164141000000002,0.29369178,9.81987867,0.003139,0.003116,0.002515,-102.196304,99.738174,-108.606506,60.187659,24.830156,13.055676,21.838598,-1.0,-1.0,100.605469,-0.346142,3.12636,-0.030104,-0.783483
840304.581932,0.10164141000000002,0.29369178,9.81987867,0.003139,0.003116,0.002515,-102.196304,99.738174,-108.606506,60.187659,24.830156,13.055676,21.838598,-1.0,-1.0,100.605469,-0.346142,3.12636,-0.030104,-0.783483
840304.621905,0.10119015,0.2977335,9.827069400000001,0.002082,0.00356,0.004706,-102.034393,99.603104,-108.427078,60.187659,24.830156,13.055676,21.838598,-1.0,-1.0,100.605469,-0.346142,3.126403,-0.030129,-0.783474
840304.641891,0.09729558,0.30042144,9.831552570000001,0.0039,0.001246,0.00448,-102.051361,99.855118,-108.395447,60.187659,24.830156,13.055676,21.838598,-1.0,-1.0,100.605469,-0.346142,3.126422,-0.030131,-0.78347
840304.661878,0.09580446000000001,0.31898196000000006,9.78964425,0.00283,0.00176,0.003843,-102.198685,99.77298,-108.753143,60.187659,24.830156,13.055676,21.838598,-1.0,-1.0,100.605469,-0.346142,3.126456,-0.030141,-0.783477
840304.681865,0.11271690000000001,0.31105548,9.81404172,0.003242,0.00085,0.004284,-101.810333,99.903122,-108.21405,60.187659,24.830156,13.055676,21.838598,-1.0,-1.0,100.605469,-0.346142,3.126476,-0.030142,-0.783477
840304.701851,0.10822392,0.29637972,9.81254079,0.0038,0.000533,0.005712,-102.164078,99.78363,-108.738083,60.187659,24.830156,13.055676,21.838598,-1.0,-1.0,100.606056,-0.393703,3.126494,-0.030149,-0.783473
840304.721838,0.09131148000000001,0.29623257000000003,9.799218810000001,0.002716,0.001901,0.004302,-101.910278,99.825699,-108.463455,60.187659,24.830156,13.055676,21.838598,-1.0,-1.0,100.606056,-0.393703,3.12651,-0.030168,-0.783477
840304.741824,0.10223982000000001,0.30072555,9.80640954,0.003947,0.002326,0.004173,-101.847809,99.858383,-108.221725,60.187659,24.830156,13.055676,21.838598,-1.0,-1.0,100.606056,-0.393703,3.126531,-0.030184,-0.783474
840304.761811,0.10238697000000001,0.31479309,9.810304109999999,0.003698,0.001526,0.003816,-102.004318,99.794327,-108.493378,60.187659,24.830156,13.055676,21.838598,-1.0,-1.0,100.606056,-0.393703,3.126551,-0.030198,-0.783481
840304.781797,0.10269108,0.30716091,9.81554265,0.00332,0.002829,0.003917,-102.248871,99.583511,-108.585831,60.187659,24.830156,13.055676,21.838598,-1.0,-1.0,100.606056,-0.393703,3.126578,-0.030202,-0.783472
840304.801784,0.10972485000000001,0.31030011,9.79593246,0.002848,0.001818,0.004282,-102.31749,99.829697,-108.378052,60.187659,24.830156,13.055676,21.838598,-1.0,-1.0,100.606056,-0.393703,3.126611,-0.030214,-0.783474
840304.821771,0.10837107,0.3094074,9.80505576,0.002993,0.00185,0.003972,-102.149918,99.745102,-108.651352,60.187659,24.830156,13.055676,21.838598,-1.0,-1.0,100.606056,-0.393703,3.126642,-0.030213,-0.783482
840304.841757,0.10073889000000001,0.2948886,9.82212516,0.003677,0.003067,0.003833,-102.123932,99.749161,-108.515747,60.187659,24.830156,13.055676,21.838598,-1.0,-1.0,100.606056,-0.393703,3.126666,-0.030222,-0.783476
840304.861744,0.11256975000000001,0.29653668000000005,9.79488279,0.003321,0.000295,0.00379,-102.067093,99.871841,-108.405792,60.187659,24.830156,13.055676,21.838598,-1.0,-1.0,100.606056,-0.393703,3.126694,-0.030235,-0.783491
840304.881731,0.10508471999999999,0.30147111000000004,9.78993855,0.00329,0.001747,0.003306,-102.041473,99.705322,-107.954376,60.187659,24.830156,13.055676,21.838598,-1.0,-1.0,100.606056,-0.393703,3.126714,-0.030232,-0.783485
840304.901718,0.10987200000000001,0.30910329000000003,9.80266212,0.003797,0.001537,0.00473,-101.822113,99.74324,-108.097015,60.187659,24.830156,13.055676,21.838598,-1.0,-1.0,100.606056,-0.393703,3.126744,-0.030229,-0.78348
840304.921705,0.11541465,0.29054277,9.81464013,0.002551,0.002134,0.003972,-101.95311,99.677231,-107.98851,60.187659,24.830156,13.055676,21.838598,-1.0,-1.0,100.606056,-0.393703,3.12676,-0.030243,-0.783474
840304.941691,0.09460764,0.3034233,9.80445735,0.003405,0.003711,0.002397,-102.199921,99.644592,-108.441483,60.187659,24.830156,13.055676,21.838598,-1.0,-1.0,100.606056,-0.393703,3.126785,-0.030259,-0.783477
840304.961678,0.11824974,0.3008727,9.80954874,0.00209,0.001803,0.002937,-101.909485,99.857513,-108.195786,60.187659,24.830156,13.055676,21.838598,-1.0,-1.0,100.606056,-0.393703,3.126825,-0.030276,-0.78348
840304.981664,0.10537902,0.30266793,9.817033770000002,0.005028,0.002802,0.003088,-102.099442,99.770706,-107.90947,60.187659,24.830156,13.055676,21.838598,-1.0,-1.0,100.606056,-0.393703,3.126847,-0.03028,-0.783474
840305.001651,0.10807677000000002,0.31689243,9.81045126,0.00443,-2.3e-05,0.004898,-102.099442,99.770706,-107.90947,60.187659,24.830156,13.055676,21.838598,-1.0,-1.0,100.606056,-0.393703,3.126883,-0.030301,-0.783464
840305.021638,0.10269108,0.30177522,9.808351920000002,0.00443,-2.3e-05,0.004898,-102.22464,99.763809,-108.113541,60.187659,24.830156,13.055676,21.838598,-1.0,-1.0,100.606056,-0.393703,3.126905,-0.030315,-0.783457
840305.041624,0.10987200000000001,0.29593827,9.80865603,0.005746,0.001286,0.004915,-101.904816,99.824448,-108.217728,60.187659,24.830156,13.055676,21.838598,-1.0,-1.0,100.606056,-0.393703,3.126923,-0.030317,-0.783474
840305.061611,0.11197134000000002,0.29893032,9.8213796,0.003249,0.001366,0.005072,-102.007172,99.699127,-108.118027,60.187659,24.830156,13.055676,21.838598,-1.0,-1.0,100.606056,-0.393703,3.126934,-0.030334,-0.783489
840305.081597,0.1130112,0.29922462000000005,9.818534699999999,0.003812,0.001137,0.003409,-101.969833,99.68869,-107.836227,60.187659,24.830156,13.055676,21.838598,-1.0,-1.0,100.606056,-0.393703,3.12695,-0.030332,-0.78349
840305.101584,0.12020193000000001,0.30132396,9.803113380000001,0.004727,0.000561,0.003735,-102.056885,99.811829,-107.99173,60.187659,24.830156,13.055676,21.838598,-1.0,-1.0,100.606056,-0.393703,3.126974,-0.030346,-0.783481
840305.121571,0.11601306,0.29593827,9.80476146,0.004187,0.001449,0.003759,-102.025742,100.033005,-107.917221,60.187659,24.830156,13.055676,21.838598,-1.0,-1.0,100.606056,-0.393703,3.127002,-0.030352,-0.783468
840305.141557,0.10807677000000002,0.29997999,9.81045126,0.003328,0.002042,0.00436,-101.998947,100.042374,-108.152466,60.187659,24.830156,13.055676,21.838598,-1.0,-1.0,100.606056,-0.393703,3.127021,-0.030363,-0.783479
840305.18153,0.10432935000000002,0.29114118,9.815238540000001,0.003035,0.001686,0.003329,-102.099976,99.999268,-108.312119,60.187659,24.830156,13.055676,21.838598,-1.0,-1.0,100.606056,-0.393703,3.127069,-0.030378,-0.783495
840305.18153,0.10432935000000002,0.29114118,9.815238540000001,0.003035,0.001686,0.003329,-102.099976,99.999268,-108.312119,60.187659,24.830156,13.055676,21.838598,-1.0,-1.0,100.606056,-0.393703,3.127069,-0.030378,-0.783495
840305.221504,0.11032326000000002,0.31194819,9.779314320000001,0.005045,0.002307,0.004332,-101.869339,99.99649,-107.940536,60.187659,24.830156,13.055676,21.838598,-1.0,-1.0,100.606056,-0.393703,3.127116,-0.030408,-0.783497
840305.24149,0.10927359,0.29952873,9.80775351,0.002816,0.00023,0.005691,-101.748398,100.015625,-108.258957,60.187659,24.830156,13.055676,21.838598,-1.0,-1.0,100.606056,-0.393703,3.127142,-0.030416,-0.783484
840305.261477,0.10777265999999999,0.30790647,9.80985285,0.002909,0.001697,0.003127,-102.059143,100.141922,-108.366409,60.187659,24.830156,13.055676,21.838598,-1.0,-1.0,100.606056,-0.393703,3.12716,-0.030419,-0.783467
840305.281463,0.10867518,0.31330197000000004,9.78005988,0.003948,0.00189,0.005645,-101.967896,100.009552,-108.639175,60.187659,24.830156,13.055676,21.838598,-1.0,-1.0,100.606056,-0.393703,3.127194,-0.030419,-0.783454
840305.30145,0.10373094000000001,0.29309337,9.83484873,0.003531,0.003337,0.003186,-102.087616,99.999008,-108.064453,60.187659,24.830156,13.055676,21.838598,-1.0,-1.0,100.606056,-0.393703,3.127209,-0.03042,-0.783446
840305.321437,0.10597743000000001,0.29593827,9.80206371,0.00392,0.002189,0.006486,-102.063431,99.925797,-108.425171,60.187659,24.830156,13.055676,21.838598,-1.0,-1.0,100.606056,-0.393703,3.127238,-0.030416,-0.783448
840305.341423,0.10269108,0.29818476,9.79787484,0.006993,0.001101,0.004097,-101.888641,99.912155,-108.564499,60.187659,24.830156,13.055676,21.838598,-1.0,-1.0,100.606056,-0.393703,3.127272,-0.030417,-0.78346
840305.36141,0.11316816,0.30926025,9.81239364,0.003681,0.003067,0.004764,-101.949554,100.026169,-108.353241,60.187659,24.830156,13.055676,21.838598,-1.0,-1.0,100.606056,-0.393703,3.127293,-0.030427,-0.783454
840305.381396,0.10028763,0.30402171,9.81464013,0.004072,0.001561,0.005247,-101.891556,99.94841,-107.938446,60.187659,24.830156,13.055676,21.838598,-1.0,-1.0,100.606056,-0.393703,3.127321,-0.030426,-0.783456
840305.381396,0.10028763,0.30402171,9.81464013,0.004072,0.001561,0.005247,-101.891556,99.94841,-107.938446,60.187659,24.830156,13.055676,21.838598,-1.0,-1.0,100.606056,-0.393703,3.127321,-0.030426,-0.783456
840305.421369,0.11496339000000001,0.30625839,9.81,0.003235,0.001509,0.005808,-101.944122,100.102524,-108.170456,60.187659,24.830156,13.055676,21.838598,-1.0,-1.0,100.606056,-0.393703,3.127379,-0.03045,-0.783455
840305.441356,0.09894366,0.29548701,9.7897914,0.003442,0.003338,0.003911,-101.818344,99.971466,-107.992416,60.187659,24.830156,13.055676,21.838598,-1.0,-1.0,100.606056,-0.393703,3.127395,-0.030466,-0.783485
840305.461343,0.10358379000000001,0.31045707000000006,9.79038981,0.002611,0.00156,0.003404,-102.001068,100.164322,-108.459381,60.187659,24.830156,13.055676,21.838598,-1.0,-1.0,100.606056,-0.393703,3.127426,-0.030475,-0.783478
840305.481329,0.10642868999999999,0.29398608000000004,9.81344331,0.003975,0.002614,0.003837,-101.856171,100.051804,-108.531967,60.187659,24.830156,13.055676,21.838598,-1.0,-1.0,100.606056,-0.393703,3.127458,-0.030482,-0.783463
840305.501316,0.10073889000000001,0.30565998000000005,9.8043102,0.00443,0.002092,0.003771,-101.63649,100.070908,-108.309006,60.187659,24.830156,13.055676,21.838598,-1.0,-1.0,100.606056,-0.393703,3.12747,-0.030495,-0.783469
840305.521303,0.10253412,0.30476727000000003,9.814787280000001,0.00443,0.002092,0.003771,-101.785736,99.886124,-108.375122,60.187659,24.830156,13.055676,21.838598,-1.0,-1.0,100.606056,-0.393703,3.127491,-0.030502,-0.783482
840305.541289,0.09744273000000002,0.29593827,9.83664396,0.003073,8.2e-05,0.002798,-101.65834,99.871597,-108.313568,60.187659,24.830156,13.055676,21.838598,-1.0,-1.0,100.606056,-0.393703,3.127511,-0.030502,-0.783469
840305.561276,0.10822392,0.30282489,9.78844743,0.003316,0.000805,0.004396,-101.952209,99.963791,-108.512955,60.187659,24.830156,13.055676,21.838598,-1.0,-1.0,100.606056,-0.393703,3.127536,-0.030508,-0.783473
840305.581262,0.09954207,0.29982303,9.81329616,0.00296,-0.000597,0.004395,-101.946838,99.786835,-108.142197,60.187659,24.830156,13.055676,21.838598,-1.0,-1.0,100.606056,-0.393703,3.127571,-0.030522,-0.783467
840305.601249,0.11152008000000001,0.29563416000000003,9.811795230000001,0.004327,-0.000369,0.003144,-101.628708,99.962784,-108.100906,60.187659,24.830156,13.055676,21.838598,-1.0,-1.0,100.606056,-0.393703,3.127594,-0.030525,-0.78345
840305.621236,0.10896948000000001,0.30625839,9.78290478,0.005107,0.001384,0.00334,-101.730331,99.864105,-108.059814,60.187659,24.830156,13.055676,21.838598,-1.0,-1.0,100.606056,-0.393703,3.127601,-0.030546,-0.783451
840305.641222,0.10687995,0.30042144,9.83379906,0.003248,0.00032,0.002955,-102.062088,99.835983,-108.212601,60.187659,24.830156,13.055676,21.838598,-1.0,-1.0,100.606056,-0.393703,3.127613,-0.03056,-0.783442
840305.661209,0.09864936,0.31434183000000004,9.80101404,0.003094,0.000988,0.004087,-102.104523,99.919586,-108.629669,60.187659,24.830156,13.055676,21.838598,-1.0,-1.0,100.606056,-0.393703,3.127628,-0.030565,-0.783441
840305.701182,0.10597743000000001,0.30177522,9.80610543,0.002642,0.000829,0.004247,-101.854874,100.095291,-108.622696,60.187659,24.830156,13.055676,21.838598,-1.0,-1.0,100.606056,-0.393703,3.127675,-0.030588,-0.783458
840305.721169,0.11121597,0.3094074,9.8068608,0.002585,0.000958,0.003243,-101.854874,100.095291,-108.622696,60.187659,24.830156,13.055676,21.838598,-1.0,-1.0,100.606056,-0.393703,3.127706,-0.030584,-0.783453
840305.741155,0.10178856,0.30386475,9.79069392,0.003271,0.000832,0.002274,-101.951935,100.144485,-108.165756,60.187659,24.830156,13.055676,21.838598,-1.0,-1.0,100.606056,-0.393703,3.127728,-0.030596,-0.783436
840305.761142,0.09415638000000001,0.28500993,9.803711790000001,0.004246,0.000542,0.003245,-101.730377,100.039474,-108.310471,60.187659,24.830156,13.055676,21.838598,-1.0,-1.0,100.606056,-0.393703,3.127742,-0.030593,-0.783441
840305.781128,0.11106882000000001,0.31165389,9.79353882,0.004246,0.000542,0.003245,-101.627213,99.964218,-108.195679,60.187659,24.830156,13.055676,21.838598,-1.0,-1.0,100.60688,-0.465046,3.127754,-0.030592,-0.783443
840305.801115,0.10298538000000002,0.29922462000000005,9.80490861,0.004999,0.00378,0.003127,-101.865128,99.899734,-108.435364,60.187659,24.830156,13.055676,21.838598,-1.0,-1.0,100.60688,-0.465046,3.127774,-0.030601,-0.783441
840305.821102,0.10104300000000001,0.2920437,9.81194238,0.00241,0.002157,0.003859,-101.863312,99.917694,-108.18129,60.187659,24.830156,13.055676,21.838598,-1.0,-1.0,100.60688,-0.465046,3.12779,-0.030617,-0.783436
840305.841088,0.09640287000000002,0.31928607000000003,9.78470001,0.005797,0.001653,0.00422,-102.126511,99.806503,-108.235825,60.187659,24.830156,13.055676,21.838598,-1.0,-1.0,100.60688,-0.465046,3.127804,-0.030611,-0.783448
840305.861075,0.11256975000000001,0.2920437,9.80790066,0.002572,0.002083,0.003294,-101.936295,99.945618,-108.084274,60.187659,24.830156,13.055676,21.838598,-1.0,-1.0,100.60688,-0.465046,3.127823,-0.030619,-0.783455
840305.88106,0.1038879,0.30536568000000003,9.816739470000002,0.003773,0.001558,0.003207,-102.106186,99.765915,-108.343719,60.187659,24.830156,13.055676,21.838598,-1.0,-1.0,100.60688,-0.465046,3.127838,-0.030616,-0.783449
840305.901047,0.10059174,0.30117681,9.811795230000001,0.00461,-1.1e-05,0.002384,-102.048904,99.856918,-108.374496,60.187659,24.830156,13.055676,21.838598,-1.0,-1.0,100.60688,-0.465046,3.127855,-0.030624,-0.783433
840305.921034,0.11735703,0.28965006000000004,9.835751250000001,0.003354,0.001968,0.004562,-101.952087,99.880875,-108.097809,60.187659,24.830156,13.055676,21.838598,-1.0,-1.0,100.60688,-0.465046,3.127875,-0.030619,-0.783444
840305.94102,0.10014048,0.29233800000000004,9.791135370000001,0.002973,-0.001184,0.002211,-101.863937,99.996063,-108.458115,60.187659,24.830156,13.055676,21.838598,-1.0,-1.0,100.60688,-0.465046,3.12789,-0.030626,-0.783463
840305.961007,0.10552617,0.30072555,9.775871010000001,0.006219,0.002589,0.003643,-102.019028,100.014313,-108.685318,60.187659,24.830156,13.055676,21.838598,-1.0,-1.0,100.60688,-0.465046,3.127889,-0.030639,-0.783458
840305.980993,0.09984618,0.28769787,9.846522629999999,0.002489,-0.000382,0.004258,-101.907349,100.045929,-108.525757,60.187659,24.830156,13.055676,21.838598,-1.0,-1.0,100.60688,-0.465046,3.127921,-0.030651,-0.783451
840306.00098,0.11226564,0.29039562,9.81793629,0.004634,0.00075,0.006129,-102.034103,99.97583,-108.828003,60.187659,24.830156,13.055676,21.838598,-1.0,-1.0,100.60688,-0.465046,3.127935,-0.030654,-0.783454
840306.020967,0.10044459,0.31584276000000006,9.79772769,0.00467,0.002001,0.004988,-102.004639,99.968536,-108.492935,60.187659,24.830156,13.055676,21.838598,-1.0,-1.0,100.60688,-0.465046,3.127952,-0.030657,-0.783449
840306.040953,0.10104300000000001,0.29129814000000004,9.818534699999999,0.002661,0.000761,0.004229,-101.96109,99.890366,-108.619888,60.187659,24.830156,13.055676,21.838598,-1.0,-1.0,100.60688,-0.465046,3.127974,-0.030663,-0.783448
840306.06094,0.11226564,0.31239945,9.79877736,0.003108,0.001765,0.004234,-101.728241,99.876877,-108.489517,60.187659,24.830156,13.055676,21.838598,-1.0,-1.0,100.60688,-0.465046,3.127991,-0.030676,-0.783445
840306.080926,0.10987200000000001,0.30282489,9.81583695,0.003796,0.000497,0.004015,-101.825211,100.048584,-108.478897,60.187659,24.830156,13.055676,21.838598,-1.0,-1.0,100.60688,-0.465046,3.128022,-0.030689,-0.783447
840306.100913,0.10717425000000001,0.29369178,9.81808344,0.002636,0.000781,0.003852,-101.985886,99.952118,-108.70491,60.187659,24.830156,13.055676,21.838598,-1.0,-1.0,100.60688,-0.465046,3.128034,-0.030687,-0.783458
840306.1209,0.10269108,0.31210515000000005,9.80565417,0.004562,0.000693,0.003793,-102.190475,99.927094,-108.474411,60.187659,24.830156,13.055676,21.838598,-1.0,-1.0,100.60688,-0.465046,3.12805,-0.030694,-0.783465
840306.140886,0.08352234000000001,0.30491442,9.79802199,0.004391,0.000668,0.004932,-101.963882,99.934219,-108.322113,60.187659,24.830156,13.055676,21.838598,-1.0,-1.0,100.60688,-0.465046,3.12806,-0.030703,-0.783471
840306.160873,0.10044459,0.29938158000000004,9.81254079,0.002844,3e-05,0.005172,-101.925095,100.032333,-108.732941,60.187659,24.830156,13.055676,21.838598,-1.0,-1.0,100.60688,-0.465046,3.128074,-0.030709,-0.783477
840306.18086,0.12139875000000001,0.31390038,9.81823059,0.003357,-0.000167,0.003751,-102.300415,99.874939,-108.505722,60.187659,24.830156,13.055676,21.838598,-1.0,-1.0,100.60688,-0.465046,3.128098,-0.030705,-0.783485
840306.200846,0.09595161,0.29383893,9.796678020000002,0.004494,0.001207,0.005208,-101.923004,99.945541,-108.473892,60.187659,24.830156,13.055676,21.838598,-1.0,-1.0,100.60688,-0.465046,3.128123,-0.030707,-0.783485
840306.220833,0.10762551000000001,0.30132396,9.80940159,0.002754,0.002521,0.005278,-102.063766,99.955566,-108.633636,60.187659,24.830156,13.055676,21.838598,-1.0,-1.0,100.60688,-0.465046,3.128146,-0.03071,-0.783501
840306.240819,0.09774684000000002,0.29982303,9.78844743,0.003588,0.001182,0.004399,-101.672409,99.940948,-108.240479,60.187659,24.830156,13.055676,21.838598,-1.0,-1.0,100.60688,-0.465046,3.128172,-0.030723,-0.783508
840306.260806,0.0928026,0.30476727000000003,9.80969589,0.003838,0.000505,0.001962,-101.897903,99.921432,-108.406723,60.187659,24.830156,13.055676,21.838598,-1.0,-1.0,100.60688,-0.465046,3.128193,-0.030734,-0.783515
840306.280793,0.09624591,0.3065625,9.820182780000001,0.002401,0.002679,0.002339,-101.799545,99.873306,-108.388458,60.187659,24.830156,13.055676,21.838598,-1.0,-1.0,100.60688,-0.465046,3.1282,-0.030734,-0.783506
840306.300779,0.10119015,0.31180104000000003,9.79203789,0.004238,0.001224,0.003572,-101.552261,100.080658,-108.347778,60.187659,24.830156,13.055676,21.838598,-1.0,-1.0,100.60688,-0.465046,3.128235,-0.030748,-0.783503
840306.340752,0.10059174,0.30072555,9.814787280000001,0.00496,-0.000897,0.007067,-101.898285,100.139114,-108.067169,60.187659,24.830156,13.055676,21.838598,-1.0,-1.0,100.60688,-0.465046,3.128254,-0.030787,-0.783489
840306.360739,0.09176274,0.2948886,9.774968490000001,0.004249,0.002363,0.004372,-101.703415,100.030975,-108.217957,60.187659,24.830156,13.055676,21.838598,-1.0,-1.0,100.60688,-0.465046,3.128274,-0.030792,-0.783491
840306.380726,0.0925083,0.30221667,9.824822910000002,0.002751,0.000819,0.003905,-101.931534,100.003189,-108.487,60.187659,24.830156,13.055676,21.838598,-1.0,-1.0,100.60688,-0.465046,3.128294,-0.030807,-0.783484
840306.400712,0.11541465,0.31464594,9.817033770000002,0.00353,0.00113,0.004112,-101.793076,100.097031,-108.366516,60.187659,24.830156,13.055676,21.838598,-1.0,-1.0,100.60688,-0.465046,3.128325,-0.030796,-0.783488
840306.420699,0.09805095000000001,0.30476727000000003,9.79847325,0.002812,0.001437,0.005617,-101.853806,100.069321,-108.42215,60.187659,24.830156,13.055676,21.838598,-1.0,-1.0,100.60688,-0.465046,3.128347,-0.030812,-0.783506
840306.440686,0.11496339000000001,0.30192237,9.80416305,0.002812,0.001437,0.005617,-101.853806,100.069321,-108.42215,60.187659,24.830156,13.055676,21.838598,-1.0,-1.0,100.60688,-0.465046,3.128355,-0.03081,-0.783524
840306.460672,0.10912644,0.28905165000000005,9.81194238,0.002837,-0.000683,0.00469,-101.872101,100.190674,-108.351196,60.187659,24.830156,13.055676,21.838598,-1.0,-1.0,100.60688,-0.465046,3.128368,-0.030805,-0.783502
840306.480659,0.10104300000000001,0.30462012,9.80086689,0.002694,0.00091,0.003686,-101.842087,100.157639,-108.430588,60.187659,24.830156,13.055676,21.838598,-1.0,-1.0,100.60688,-0.465046,3.128385,-0.030821,-0.783506
840306.500645,0.10148445,0.3008727,9.827814960000001,0.003196,0.000135,0.005226,-101.736176,99.999756,-108.412125,60.187659,24.830156,13.055676,21.838598,-1.0,-1.0,100.60688,-0.465046,3.128387,-0.030818,-0.783505
840306.520632,0.10283823,0.31194819,9.787849020000001,0.00467,0.000256,0.003638,-101.947815,100.218948,-108.325195,60.187659,24.830156,13.055676,21.838598,-1.0,-1.0,100.60688,-0.465046,3.1284,-0.030825,-0.783503
840306.520632,0.10283823,0.31194819,9.787849020000001,0.00467,0.000256,0.003638,-101.947815,100.218948,-108.325195,60.187659,24.830156,13.055676,21.838598,-1.0,-1.0,100.60688,-0.465046,3.1284,-0.030825,-0.783503
840306.560605,0.11181438,0.28441152000000003,9.80865603,0.002802,0.000977,0.004658,-102.017715,99.942017,-108.720505,60.187659,24.830156,13.055676,21.838598,-1.0,-1.0,100.60688,-0.465046,3.128408,-0.03083,-0.783499
840306.580592,0.11286405000000001,0.31464594,9.775871010000001,0.007012,0.002129,0.004809,-102.036224,100.179031,-108.340851,60.187659,24.830156,13.055676,21.838598,-1.0,-1.0,100.60688,-0.465046,3.128413,-0.030849,-0.783516
840306.600579,0.10208286000000001,0.28829628,9.80969589,0.004034,0.000939,0.004653,-102.135925,99.995682,-108.424866,60.187659,24.830156,13.055676,21.838598,-1.0,-1.0,100.60688,-0.465046,3.128433,-0.030862,-0.783523
840306.620565,0.09968922,0.30101985000000003,9.811343970000001,0.002123,1.1e-05,0.004305,-101.935059,100.146896,-108.560776,60.187659,24.830156,13.055676,21.838598,-1.0,-1.0,100.60688,-0.465046,3.128442,-0.030859,-0.783523
840306.640552,0.10403505,0.30266793,9.801171,0.002897,0.001643,0.0039,-102.113052,100.047531,-108.406601,60.187659,24.830156,13.055676,21.838598,-1.0,-1.0,100.60688,-0.465046,3.128457,-0.030862,-0.783522
840306.660538,0.10687995,0.30161826,9.81090252,0.002386,0.002617,0.001688,-102.105881,99.991531,-108.609985,60.187659,24.830156,13.055676,21.838598,-1.0,-1.0,100.60688,-0.465046,3.128481,-0.030867,-0.783523
840306.680525,0.11391372000000001,0.29818476,9.80670384,0.001763,0.000475,0.004314,-101.802689,100.125031,-108.510849,60.187659,24.830156,13.055676,21.838598,-1.0,-1.0,100.60688,-0.465046,3.12851,-0.03086,-0.783506
840306.700512,0.10942074000000002,0.30491442,9.79787484,0.004188,0.000989,0.004287,-101.981461,100.192474,-108.512527,60.187659,24.830156,13.055676,21.838598,-1.0,-1.0,100.60688,-0.465046,3.128533,-0.030867,-0.783514
840306.720498,0.11645451,0.2948886,9.84607137,0.004005,-0.001586,0.00304,-101.73468,100.277786,-108.110184,60.187659,24.830156,13.055676,21.838598,-1.0,-1.0,100.60688,-0.465046,3.12855,-0.030893,-0.783514
840306.740485,0.11601306,0.28500993,9.80251497,0.003997,0.001151,0.004275,-101.680695,100.300888,-108.268188,60.187659,24.830156,13.055676,21.838598,-1.0,-1.0,100.60688,-0.465046,3.128543,-0.030903,-0.783532
840306.760472,0.10298538000000002,0.31239945,9.78335604,0.00492,0.000268,0.005025,-101.639313,100.096863,-108.461807,60.187659,24.830156,13.055676,21.838598,-1.0,-1.0,100.60688,-0.465046,3.128546,-0.030916,-0.783528
840306.780458,0.09669717,0.30506157,9.81777933,0.001874,-3.9e-05,0.003106,-101.823059,99.968506,-108.803467,60.187659,24.830156,13.055676,21.838598,-1.0,-1.0,100.60688,-0.465046,3.128558,-0.030917,-0.783525
840306.800445,0.11346246,0.30027429,9.78110955,0.003229,-7.1e-05,0.00258,-101.866074,100.082062,-108.734131,60.187659,24.830156,13.055676,21.838598,-1.0,-1.0,100.60688,-0.465046,3.12858,-0.03092,-0.783515
840306.820431,0.09220419,0.29293641,9.79847325,0.003614,-0.000545,0.00495,-101.93399,100.056442,-108.669662,60.187659,24.830156,13.055676,21.838598,-1.0,-1.0,100.60688,-0.465046,3.128603,-0.030923,-0.78351
840306.840418,0.11152008000000001,0.30282489,9.80581113,0.00261,-8e-06,0.003644,-101.708176,99.908707,-108.455582,60.187659,24.830156,13.055676,21.838598,-1.0,-1.0,100.60688,-0.465046,3.128598,-0.030926,-0.783515
840306.860405,0.10523187,0.31928607000000003,9.78021684,0.001746,0.001128,0.004131,-101.859436,100.034653,-108.559082,60.187659,24.830156,13.055676,21.838598,-1.0,-1.0,100.607635,-0.525822,3.128612,-0.030922,-0.783511
840306.880392,0.10733121,0.30042144,9.808803180000002,0.004416,-0.000452,0.004504,-102.023392,100.049973,-108.787125,60.187659,24.830156,13.055676,21.838598,-1.0,-1.0,100.607635,-0.525822,3.128619,-0.030913,-0.783525
840306.880392,0.10733121,0.30042144,9.808803180000002,0.004416,-0.000452,0.004504,-102.023392,100.049973,-108.787125,60.187659,24.830156,13.055676,21.838598,-1.0,-1.0,100.607635,-0.525822,3.128619,-0.030913,-0.783525
840306.880392,0.10733121,0.30042144,9.808803180000002,0.004416,-0.000452,0.004504,-102.023392,100.049973,-108.787125,60.187659,24.830156,13.055676,21.838598,-1.0,-1.0,100.607635,-0.525822,3.128619,-0.030913,-0.783525
840306.880392,0.10733121,0.30042144,9.808803180000002,0.004416,-0.000452,0.004504,-102.023392,100.049973,-108.787125,60.187659,24.830156,13.055676,21.838598,-1.0,-1.0,100.607635,-0.525822,3.128619,-0.030913,-0.783525
840306.880392,0.10733121,0.30042144,9.808803180000002,0.004416,-0.000452,0.004504,-102.023392,100.049973,-108.787125,60.187659,24.830156,13.055676,21.838598,-1.0,-1.0,100.607635,-0.525822,3.128619,-0.030913,-0.783525
840306.880392,0.10733121,0.30042144,9.808803180000002,0.004416,-0.000452,0.004504,-102.023392,100.049973,-108.787125,60.187659,24.830156,13.055676,21.838598,-1.0,-1.0,100.607635,-0.525822,3.128619,-0.030913,-0.783525
840306.880392,0.10733121,0.30042144,9.808803180000002,0.004416,-0.000452,0.004504,-102.023392,100.049973,-108.787125,60.187659,24.830156,13.055676,21.838598,-1.0,-1.0,100.607635,-0.525822,3.128619,-0.030913,-0.783525
840306.880392,0.10733121,0.30042144,9.808803180000002,0.004416,-0.000452,0.004504,-102.023392,100.049973,-108.787125,60.187659,24.830156,13.055676,21.838598,-1.0,-1.0,100.607635,-0.525822,3.128619,-0.030913,-0.783525
840306.880392,0.10733121,0.30042144,9.808803180000002,0.004416,-0.000452,0.004504,-102.023392,100.049973,-108.787125,60.187659,24.830156,13.055676,21.838598,-1.0,-1.0,100.607635,-0.525822,3.128619,-0.030913,-0.783525
840306.880392,0.10733121,0.30042144,9.808803180000002,0.004416,-0.000452,0.004504,-102.023392,100.049973,-108.787125,60.187659,24.830156,13.055676,21.838598,-1.0,-1.0,100.607635,-0.525822,3.128619,-0.030913,-0.783525
840306.880392,0.10733121,0.30042144,9.808803180000002,0.004416,-0.000452,0.004504,-102.023392,100.049973,-108.787125,60.187659,24.830156,13.055676,21.838598,-1.0,-1.0,100.607635,-0.525822,3.128619,-0.030913,-0.783525
840306.920366,0.09909081000000002,0.30282489,9.79353882,0.005139,-0.000221,0.003369,-101.953812,100.001755,-108.572556,60.187659,24.830156,13.055676,21.838598,-1.0,-1.0,100.607635,-0.525822,3.12863,-0.030927,-0.783531
840307.000312,0.11406087000000001,0.28620675,9.8128449,0.002825,-0.00031,0.004462,-102.04921,100.011078,-108.42038,60.187659,24.830156,13.055676,21.838598,-1.0,-1.0,100.607635,-0.525822,3.128703,-0.030946,-0.783524
840307.080259,0.10313253,0.30536568000000003,9.81269775,0.002816,-0.001943,0.001526,-101.868607,100.13649,-108.36705,60.187669,24.830111,11.796503,19.039084,-1.0,-1.0,100.607635,-0.525822,3.128744,-0.030973,-0.783549
840307.180192,0.11420802000000001,0.29653668000000005,9.832150980000002,0.003282,0.000195,0.004807,-101.81694,100.057922,-108.133774,60.187669,24.830111,11.796503,19.039084,-1.0,-1.0,100.607635,-0.525822,3.128775,-0.03096,-0.783571
840307.200178,0.10673280000000002,0.30670965,9.791292330000001,0.001877,0.000464,0.004748,-101.999893,100.044479,-108.322723,60.187669,24.830111,11.796503,19.039084,-1.0,-1.0,100.607635,-0.525822,3.128777,-0.030977,-0.783589
840307.220165,0.09580446000000001,0.31314501,9.779010210000001,0.004902,0.000831,0.003307,-102.037567,100.074661,-108.595474,60.187669,24.830111,11.796503,19.039084,-1.0,-1.0,100.607635,-0.525822,3.128805,-0.030992,-0.783588
840307.220165,0.09580446000000001,0.31314501,9.779010210000001,0.004902,0.000831,0.003307,-102.037567,100.074661,-108.595474,60.187669,24.830111,11.796503,19.039084,-1.0,-1.0,100.607635,-0.525822,3.128805,-0.030992,-0.783588
840307.220165,0.09580446000000001,0.31314501,9.779010210000001,0.004902,0.000831,0.003307,-102.037567,100.074661,-108.595474,60.187669,24.830111,11.796503,19.039084,-1.0,-1.0,100.607635,-0.525822,3.128805,-0.030992,-0.783588
840307.280125,0.10164141000000002,0.30221667,9.81299205,0.005561,0.000725,0.003094,-102.034744,100.03894,-108.782516,60.187669,24.830111,11.796503,19.039084,-1.0,-1.0,100.607635,-0.525822,3.128838,-0.031027,-0.783598
840307.300112,0.09580446000000001,0.2863539,9.81209934,0.003331,-0.001482,0.004168,-102.066986,99.938004,-108.969284,60.187669,24.830111,11.796503,19.039084,-1.0,-1.0,100.607635,-0.525822,3.128851,-0.031039,-0.783592
840307.320098,0.09805095000000001,0.29369178,9.7954812,0.003616,0.000391,0.004,-102.012039,100.023514,-108.830826,60.187669,24.830111,11.796503,19.039084,-1.0,-1.0,100.607635,-0.525822,3.12886,-0.031045,-0.783593
840307.340085,0.10193571,0.29219085,9.80162226,0.004587,-0.000125,0.004007,-102.060867,99.93338,-108.704498,60.187669,24.830111,11.796503,19.039084,-1.0,-1.0,100.607635,-0.525822,3.128868,-0.031063,-0.783587
840307.360072,0.10987200000000001,0.30042144,9.80281908,0.003535,-0.000568,0.004045,-102.11647,99.876236,-108.477097,60.187669,24.830111,11.796503,19.039084,-1.0,-1.0,100.607635,-0.525822,3.128869,-0.03108,-0.783585
840307.380058,0.10717425000000001,0.30431601,9.799218810000001,0.002522,-0.001088,0.002879,-102.174728,100.101044,-108.427856,60.187669,24.830111,11.796503,19.039084,-1.0,-1.0,100.607635,-0.525822,3.128884,-0.031087,-0.783584
840307.400045,0.12065319,0.29683098,9.795029940000001,0.002918,-0.000515,0.003434,-101.996002,100.077972,-108.560593,60.187669,24.830111,11.796503,19.039084,-1.0,-1.0,100.607635,-0.525822,3.128896,-0.031098,-0.783573
840307.420031,0.10537902,0.30252078000000004,9.803564640000001,0.004314,-0.000603,0.002575,-101.977631,100.090881,-108.578369,60.187669,24.830111,11.796503,19.039084,-1.0,-1.0,100.607635,-0.525822,3.128906,-0.031103,-0.783576
840307.440018,0.10148445,0.3008727,9.796530870000002,0.003717,-0.00138,0.004957,-102.130844,100.143021,-108.498489,60.187669,24.830111,11.796503,19.039084,-1.0,-1.0,100.607635,-0.525822,3.12892,-0.031103,-0.783559
840307.460005,0.09490194,0.29503575000000004,9.7897914,0.00338,-0.00075,0.004567,-102.073853,100.091385,-108.472565,60.187669,24.830111,11.796503,19.039084,-1.0,-1.0,100.607635,-0.525822,3.128929,-0.031109,-0.783558
840307.479991,0.10867518,0.29713509,9.801171,0.004712,-0.000273,0.003386,-101.848602,100.285065,-108.39534,60.187669,24.830111,11.796503,19.039084,-1.0,-1.0,100.607635,-0.525822,3.128935,-0.03112,-0.78355
840307.499978,0.09400923,0.2894931,9.79398027,0.003396,-0.000331,0.003652,-102.187424,100.223206,-108.821167,60.187669,24.830111,11.796503,19.039084,-1.0,-1.0,100.607635,-0.525822,3.128943,-0.031123,-0.783565
840307.519965,0.10014048,0.30716091,9.787544910000001,0.004235,-0.00077,0.004083,-102.011139,100.043716,-108.63501,60.187669,24.830111,11.796503,19.039084,-1.0,-1.0,100.607635,-0.525822,3.128962,-0.031136,-0.783567
840307.539951,0.10807677000000002,0.30132396,9.78560253,0.00299,0.000578,0.004062,-102.03273,100.03009,-108.562592,60.187669,24.830111,11.796503,19.039084,-1.0,-1.0,100.607635,-0.525822,3.128967,-0.031147,-0.783562
840307.559938,0.09714843000000001,0.29054277,9.81,0.002735,0.001109,0.003995,-102.189392,99.988617,-108.613144,60.187669,24.830111,11.796503,19.039084,-1.0,-1.0,100.607635,-0.525822,3.128977,-0.031155,-0.783567
840307.579925,0.11001915,0.30625839,9.787093650000001,0.004649,0.000338,0.004614,-102.091965,99.944519,-108.264465,60.187669,24.830111,11.796503,19.039084,-1.0,-1.0,100.607635,-0.525822,3.128999,-0.031143,-0.783558
840307.599911,0.10223982000000001,0.30521853,9.78110955,0.004759,0.001209,0.005077,-101.927536,100.081833,-108.478455,60.187669,24.830111,11.796503,19.039084,-1.0,-1.0,100.607635,-0.525822,3.129018,-0.031157,-0.78357
840307.619898,0.09968922,0.29278926000000005,9.82601973,0.003203,0.000622,0.003642,-102.179459,100.100937,-108.353394,60.187669,24.830111,11.796503,19.039084,-1.0,-1.0,100.607635,-0.525822,3.129033,-0.03116,-0.783574
840307.639884,0.09939492000000001,0.30297204000000005,9.79084107,0.003534,-0.001106,0.003482,-102.165634,100.218063,-108.634308,60.187669,24.830111,11.796503,19.039084,-1.0,-1.0,100.607635,-0.525822,3.129033,-0.03117,-0.783571
840307.659871,0.09849240000000001,0.30357045,9.775566900000001,0.005754,0.001307,0.00406,-101.840973,100.255539,-108.398453,60.187669,24.830111,11.796503,19.039084,-1.0,-1.0,100.607635,-0.525822,3.129027,-0.031172,-0.783579
840307.699844,0.10583028000000001,0.30775932,9.78170796,0.003553,-9.1e-05,0.00404,-102.195343,99.95636,-108.633286,60.187669,24.830111,11.796503,19.039084,-1.0,-1.0,100.607635,-0.525822,3.129037,-0.031187,-0.783563
840307.719831,0.09669717,0.30177522,9.787250610000001,0.005347,-0.000818,0.002703,-101.98555,99.91153,-108.348557,60.187669,24.830111,11.796503,19.039084,-1.0,-1.0,100.607635,-0.525822,3.129036,-0.031186,-0.783544
840307.739818,0.10223982000000001,0.2860596,9.82646118,0.00289,-0.000308,0.003245,-101.873474,99.860825,-108.377182,60.187669,24.830111,11.796503,19.039084,-1.0,-1.0,100.607635,-0.525822,3.129034,-0.031176,-0.783528
840307.739818,0.10223982000000001,0.2860596,9.82646118,0.00289,-0.000308,0.003245,-101.873474,99.860825,-108.377182,60.187669,24.830111,11.796503,19.039084,-1.0,-1.0,100.607635,-0.525822,3.129034,-0.031176,-0.783528
840307.779791,0.09400923,0.29742939,9.808499070000002,0.002402,-0.001157,0.004417,-102.008987,100.063904,-108.433411,60.187669,24.830111,11.796503,19.039084,-1.0,-1.0,100.607635,-0.525822,3.129055,-0.031164,-0.783521
840307.799778,0.09609875999999999,0.29668383,9.80626239,0.002097,1e-06,0.004276,-101.940903,100.048615,-108.511948,60.187669,24.830111,11.796503,19.039084,-1.0,-1.0,100.607635,-0.525822,3.129045,-0.031168,-0.783523
840307.819764,0.10253412,0.29114118,9.80940159,0.003188,-0.000447,0.00459,-102.183365,99.983826,-108.460358,60.187669,24.830111,11.796503,19.039084,-1.0,-1.0,100.607635,-0.525822,3.129044,-0.031159,-0.783519
840307.819764,0.10253412,0.29114118,9.80940159,0.003188,-0.000447,0.00459,-102.183365,99.983826,-108.460358,60.187669,24.830111,11.796503,19.039084,-1.0,-1.0,100.607635,-0.525822,3.129044,-0.031159,-0.783519
840307.859737,0.10927359,0.30297204000000005,9.803260530000001,0.003808,0.001052,0.00541,-102.010147,100.00853,-108.385132,60.187669,24.830111,11.796503,19.039084,-1.0,-1.0,100.607635,-0.525822,3.129051,-0.031169,-0.78353
840307.879723,0.09550035000000001,0.29847906,9.80790066,0.004085,-0.00066,0.00472,-102.010147,100.00853,-108.385132,60.187669,24.830111,11.796503,19.039084,-1.0,-1.0,100.607635,-0.525822,3.129059,-0.031175,-0.783528
840307.89971,0.10358379000000001,0.29249496,9.79742358,0.003541,0.000879,0.003346,-101.981049,100.292587,-108.448273,60.187669,24.830111,11.796503,19.039084,-1.0,-1.0,100.607635,-0.525822,3.129059,-0.031169,-0.783526
840307.919696,0.09968922,0.30252078000000004,9.79877736,0.003196,0.000648,0.004164,-102.013229,100.222183,-108.664703,60.187669,24.830111,11.796503,19.039084,-1.0,-1.0,100.607635,-0.525822,3.129069,-0.031172,-0.783504
840307.939683,0.09774684000000002,0.28785483,9.79189074,0.004038,-0.000323,0.005354,-101.90892,100.193436,-108.611954,60.187669,24.830111,11.796503,19.039084,-1.0,-1.0,100.608376,-0.589237,3.129078,-0.031164,-0.783501
840307.95967,0.10687995,0.3065625,9.79203789,0.00385,-0.000376,0.004476,-101.892273,100.343689,-108.603485,60.187669,24.830111,11.796503,19.039084,-1.0,-1.0,100.608376,-0.589237,3.129069,-0.031172,-0.7835
840307.979656,0.11496339000000001,0.29637972,9.799218810000001,0.003334,0.000614,0.00404,-101.930817,100.282166,-108.660141,60.187669,24.830111,11.796503,19.039084,-1.0,-1.0,100.608376,-0.589237,3.129089,-0.031172,-0.783509
840307.999643,0.10747836000000001,0.30132396,9.80071974,0.003986,-7e-05,0.003661,-101.944702,100.055008,-108.701767,60.187669,24.830111,11.796503,19.039084,-1.0,-1.0,100.608376,-0.589237,3.129102,-0.031171,-0.783513
840308.01963,0.09984618,0.2977335,9.78904584,0.003543,-0.001382,0.004322,-101.712769,100.194595,-108.456482,60.187669,24.830111,11.796503,19.039084,-1.0,-1.0,100.608376,-0.589237,3.129108,-0.03117,-0.783503
840308.039616,0.09759969,0.29474145,9.80206371,0.005754,-0.001843,0.001531,-101.815399,100.261139,-108.388229,60.187669,24.830111,11.796503,19.039084,-1.0,-1.0,100.608376,-0.589237,3.129119,-0.031166,-0.783501
840308.059603,0.10358379000000001,0.29878317000000004,9.783954450000001,0.004597,0.000244,0.002947,-102.087326,100.140366,-108.587677,60.187669,24.830111,11.796503,19.039084,-1.0,-1.0,100.608376,-0.589237,3.129111,-0.031169,-0.783499
840308.07959,0.09759969,0.31120263000000004,9.78993855,0.004041,0.000688,0.005589,-101.987885,100.101776,-108.819672,60.187669,24.830111,11.796503,19.039084,-1.0,-1.0,100.608376,-0.589237,3.12911,-0.031173,-0.783496
840308.099576,0.10328949000000001,0.30147111000000004,9.779314320000001,0.003239,-4.7e-05,0.005028,-101.923599,100.318359,-108.613266,60.187669,24.830111,11.796503,19.039084,-1.0,-1.0,100.608376,-0.589237,3.129112,-0.031168,-0.783496
840308.119563,0.09774684000000002,0.30761217,9.79772769,0.003128,-0.000568,0.004656,-101.919754,100.364212,-108.503952,60.187669,24.830111,11.796503,19.039084,-1.0,-1.0,100.608376,-0.589237,3.129107,-0.031153,-0.783506
840308.139549,0.10208286000000001,0.28381311,9.799071660000001,0.003484,-0.001451,0.003214,-101.840607,100.409271,-108.535049,60.187669,24.830111,11.796503,19.039084,-1.0,-1.0,100.608376,-0.589237,3.129121,-0.031154,-0.783494
840308.159536,0.10837107,0.28965006000000004,9.784101600000001,0.003418,-0.000321,0.003598,-102.195221,100.195328,-108.669113,60.187669,24.830111,11.796503,19.039084,-1.0,-1.0,100.608376,-0.589237,3.129137,-0.031143,-0.783494
840308.179523,0.10568313,0.28979721,9.81373761,0.004593,-0.00108,0.002915,-102.120041,100.290833,-108.725754,60.187669,24.830111,11.796503,19.039084,-1.0,-1.0,100.608376,-0.589237,3.129136,-0.031151,-0.783489
840308.199509,0.09385227000000002,0.30761217,9.783503190000001,0.003835,-0.000855,0.003496,-102.072754,100.239609,-109.030563,60.187669,24.830111,11.796503,19.039084,-1.0,-1.0,100.608376,-0.589237,3.129135,-0.031159,-0.783485
840308.219496,0.11525769000000001,0.31374342,9.79892451,0.003626,-0.000888,0.002712,-102.04158,100.278732,-109.294373,60.187669,24.830111,11.796503,19.039084,-1.0,-1.0,100.608376,-0.589237,3.129134,-0.031154,-0.783492
840308.259469,0.09609875999999999,0.29474145,9.77781339,0.003318,-0.000225,0.004012,-101.808487,100.266617,-108.461655,60.187669,24.830111,11.796503,19.039084,-1.0,-1.0,100.608376,-0.589237,3.129153,-0.031143,-0.783487
840308.259469,0.09609875999999999,0.29474145,9.77781339,0.003318,-0.000225,0.004012,-101.808487,100.266617,-108.461655,60.187669,24.830111,11.796503,19.039084,-1.0,-1.0,100.608376,-0.589237,3.129153,-0.031143,-0.783487
840308.299443,0.09834525,0.30775932,9.795775500000001,0.003377,0.000378,0.003423,-102.109589,100.150604,-108.929855,60.187669,24.830111,11.796503,19.039084,-1.0,-1.0,100.608376,-0.589237,3.129141,-0.031154,-0.7835
840308.319429,0.10164141000000002,0.31210515000000005,9.78679935,0.002948,0.00042,0.004225,-101.923157,100.166122,-108.917496,60.187669,24.830111,11.796503,19.039084,-1.0,-1.0,100.608376,-0.589237,3.129143,-0.031157,-0.78349
840308.339416,0.11601306,0.30402171,9.79338186,0.004452,0.001309,0.004477,-101.974884,100.24646,-108.677231,60.187669,24.830111,11.796503,19.039084,-1.0,-1.0,100.608376,-0.589237,3.129144,-0.031152,-0.783479
840308.339416,0.11601306,0.30402171,9.79338186,0.004452,0.001309,0.004477,-101.974884,100.24646,-108.677231,60.187669,24.830111,11.796503,19.039084,-1.0,-1.0,100.608376,-0.589237,3.129144,-0.031152,-0.783479
840308.379389,0.10073889000000001,0.29159244,9.803417490000001,0.003849,-0.001957,0.00418,-102.007156,100.328369,-109.018402,60.187669,24.830111,11.796503,19.039084,-1.0,-1.0,100.608376,-0.589237,3.129143,-0.031136,-0.783459
840308.399376,0.10492776000000001,0.30895614000000005,9.784248750000001,0.003342,-0.000163,0.004456,-102.070023,100.170959,-108.973602,60.187669,24.830111,11.796503,19.039084,-1.0,-1.0,100.608376,-0.589237,3.129136,-0.03114,-0.783457
840308.419362,0.10014048,0.28575549,9.80490861,0.002685,-0.001184,0.00537,-101.971939,100.396225,-108.887512,60.187669,24.830111,11.796503,19.039084,-1.0,-1.0,100.608376,-0.589237,3.12914,-0.031139,-0.783468
840308.419362,0.10014048,0.28575549,9.80490861,0.002685,-0.001184,0.00537,-101.971939,100.396225,-108.887512,60.187669,24.830111,11.796503,19.039084,-1.0,-1.0,100.608376,-0.589237,3.12914,-0.031139,-0.783468
840308.459336,0.10628154000000001,0.29683098,9.80550702,0.003293,5e-05,0.004368,-102.273117,100.154083,-108.723007,60.187669,24.830111,11.796503,19.039084,-1.0,-1.0,100.608376,-0.589237,3.129134,-0.031122,-0.783465
840308.479322,0.1041822,0.29383893,9.816141060000001,0.00294,0.000295,0.004418,-101.861511,100.21492,-108.221466,60.187669,24.830111,11.796503,19.039084,-1.0,-1.0,100.608376,-0.589237,3.12913,-0.031116,-0.783462
840308.499309,0.11241279000000001,0.29503575000000004,9.78275763,0.004581,0.000152,0.002876,-101.862701,100.195801,-108.572632,60.187669,24.830111,11.796503,19.039084,-1.0,-1.0,100.608376,-0.589237,3.12912,-0.031117,-0.783469
840308.519296,0.08981055,0.28725642,9.787250610000001,0.002842,-0.000491,0.0034,-102.16362,100.09375,-108.856598,60.187669,24.830111,11.796503,19.039084,-1.0,-1.0,100.608376,-0.589237,3.12911,-0.031118,-0.783456
840308.539282,0.10478061,0.29548701,9.7869465,0.001486,-0.001122,0.00293,-101.999573,100.265152,-108.856354,60.187669,24.830111,11.796503,19.039084,-1.0,-1.0,100.608376,-0.589237,3.129114,-0.031117,-0.783458
840308.559269,0.09385227000000002,0.29637972,9.77781339,0.002465,-0.000188,0.004699,-102.201263,100.14328,-108.713638,60.187669,24.830111,11.796503,19.039084,-1.0,-1.0,100.608376,-0.589237,3.129105,-0.031097,-0.78345
840308.579256,0.09520605,0.29818476,9.77960862,0.00302,0.000202,0.001331,-102.196594,100.172699,-108.771637,60.187669,24.830111,11.796503,19.039084,-1.0,-1.0,100.608376,-0.589237,3.129107,-0.031087,-0.783452
840308.599242,0.10028763,0.3094074,9.77692068,0.003736,6.7e-05,0.004213,-102.196594,100.172699,-108.771637,60.187669,24.830111,11.796503,19.039084,-1.0,-1.0,100.608376,-0.589237,3.129098,-0.031094,-0.783426
840308.619229,0.10059174,0.2894931,9.81074556,0.003957,-0.000705,0.004431,-102.018188,99.958496,-108.515289,60.187669,24.830111,11.796503,19.039084,-1.0,-1.0,100.608376,-0.589237,3.129092,-0.031087,-0.78343
840308.619229,0.10059174,0.2894931,9.81074556,0.003957,-0.000705,0.004431,-102.018188,99.958496,-108.515289,60.187669,24.830111,11.796503,19.039084,-1.0,-1.0,100.608376,-0.589237,3.129092,-0.031087,-0.78343
840308.659202,0.10148445,0.28396026,9.79892451,0.004566,0.001226,0.003693,-102.027054,100.212692,-108.868973,60.187669,24.830111,11.796503,19.039084,-1.0,-1.0,100.608376,-0.589237,3.129104,-0.031077,-0.783426
840308.679189,0.09744273000000002,0.28261629000000005,9.811500930000001,0.003961,-0.000568,0.003522,-102.200577,100.1745,-108.433502,60.187669,24.830111,11.796503,19.039084,-1.0,-1.0,100.608376,-0.589237,3.129114,-0.031067,-0.783421
840308.699175,0.11211849,0.2948886,9.78904584,0.002965,0.000653,0.003894,-102.146957,100.205215,-108.798767,60.187669,24.830111,11.796503,19.039084,-1.0,-1.0,100.608376,-0.589237,3.129097,-0.031068,-0.783413
840308.719162,0.09100737,0.29429019,9.80281908,0.003429,-0.001172,0.004711,-102.119186,100.116501,-108.901718,60.187669,24.830111,11.796503,19.039084,-1.0,-1.0,100.608376,-0.589237,3.129103,-0.031078,-0.783413
840308.739149,0.09879651,0.29039562,9.78605379,0.004266,-0.00068,0.002866,-101.836929,100.23143,-108.250046,60.187669,24.830111,11.796503,19.039084,-1.0,-1.0,100.608376,-0.589237,3.129097,-0.031078,-0.783406
840308.759135,0.09265545000000001,0.30880899,9.78485697,0.003812,0.000222,0.002449,-102.007965,100.245285,-108.240524,60.187669,24.830111,11.796503,19.039084,-1.0,-1.0,100.608376,-0.589237,3.129096,-0.031084,-0.783399
840308.779122,0.09744273000000002,0.29024847,9.783650340000001,0.003599,0.000251,0.004612,-102.233963,100.115906,-108.383499,60.187669,24.830111,11.796503,19.039084,-1.0,-1.0,100.608376,-0.589237,3.129097,-0.031091,-0.783381
840308.799109,0.10852803000000001,0.30027429,9.79248915,0.004008,-0.000705,0.00639,-102.268478,100.143158,-108.579712,60.187669,24.830111,11.796503,19.039084,-1.0,-1.0,100.608376,-0.589237,3.129087,-0.031081,-0.783384
840308.819095,0.10597743000000001,0.29578131,9.787544910000001,0.00407,0.000203,0.003626,-102.060791,100.143021,-108.252533,60.187669,24.830111,11.796503,19.039084,-1.0,-1.0,100.608376,-0.589237,3.129088,-0.031077,-0.7834
840308.839082,0.10269108,0.30132396,9.7667379,0.005316,-0.00182,0.005391,-101.953003,100.154449,-108.701889,60.187669,24.830111,11.796503,19.039084,-1.0,-1.0,100.608376,-0.589237,3.129107,-0.031077,-0.783378
840308.859069,0.10269108,0.29623257000000003,9.80521272,0.003055,-0.000367,0.004049,-101.91832,100.221756,-108.565048,60.187669,24.830111,11.796503,19.039084,-1.0,-1.0,100.608376,-0.589237,3.129104,-0.031085,-0.783377
840308.879056,0.09355797,0.29637972,9.76434426,0.004348,0.002035,0.002797,-102.070724,100.325302,-108.522903,60.187669,24.830111,11.796503,19.039084,-1.0,-1.0,100.608376,-0.589237,3.129107,-0.031087,-0.783362
840308.899043,0.08562168,0.29474145,9.780658290000002,0.003418,0.001909,0.005245,-102.130539,100.311676,-108.841873,60.187669,24.830111,11.796503,19.039084,-1.0,-1.0,100.608376,-0.589237,3.12912,-0.031085,-0.783352
840308.91903,0.10463346000000001,0.28994436,9.803564640000001,0.002752,0.000682,0.006062,-101.850403,100.340454,-108.874863,60.187669,24.830111,11.796503,19.039084,-1.0,-1.0,100.608376,-0.589237,3.12912,-0.031071,-0.783365
840308.939016,0.09700128,0.29938158000000004,9.79517709,0.002724,-0.000306,0.003031,-102.110504,100.378464,-108.794617,60.187669,24.830111,11.796503,19.039084,-1.0,-1.0,100.608376,-0.589237,3.129124,-0.031053,-0.783381
840308.978989,0.10762551000000001,0.29907747,9.79697232,0.003902,-0.00022,0.004882,-101.876343,100.367462,-108.926376,60.187669,24.830111,11.796503,19.039084,-1.0,-1.0,100.608376,-0.589237,3.12912,-0.03105,-0.783383
840308.998976,0.09744273000000002,0.29907747,9.76554108,0.003861,0.000683,0.004806,-101.718414,100.464249,-108.648605,60.187669,24.830111,11.796503,19.039084,-1.0,-1.0,100.608376,-0.589237,3.129132,-0.031032,-0.78338
840309.018963,0.10463346000000001,0.30402171,9.787397760000001,0.004246,-0.001237,0.005662,-101.580627,100.454178,-108.445755,60.187669,24.830111,11.796503,19.039084,-1.0,-1.0,100.608582,-0.605091,3.129136,-0.031037,-0.783384
840309.018963,0.10463346000000001,0.30402171,9.787397760000001,0.004246,-0.001237,0.005662,-101.580627,100.454178,-108.445755,60.187669,24.830111,11.796503,19.039084,-1.0,-1.0,100.608582,-0.605091,3.129136,-0.031037,-0.783384
840309.058936,0.10717425000000001,0.3034233,9.79069392,0.002805,0.001416,0.003528,-101.745041,100.443054,-108.809158,60.187669,24.830111,11.796503,19.039084,-1.0,-1.0,100.608582,-0.605091,3.129127,-0.031029,-0.783405
840309.078923,0.09205704,0.30446316,9.78829047,0.002791,0.000539,0.004269,-101.978271,100.453827,-108.68306,60.187669,24.830111,11.796503,19.039084,-1.0,-1.0,100.608582,-0.605091,3.129111,-0.031027,-0.783395
840309.098909,0.10687995,0.29548701,9.787250610000001,0.002806,0.000314,0.005563,-102.059616,100.277435,-108.428589,60.187669,24.830111,11.796503,19.039084,-1.0,-1.0,100.608582,-0.605091,3.129108,-0.031022,-0.783392
840309.118896,0.10208286000000001,0.29728224000000003,9.77781339,0.002451,-0.001937,0.004098,-101.98175,100.379181,-108.622116,60.187669,24.830111,11.796503,19.039084,-1.0,-1.0,100.608582,-0.605091,3.129111,-0.031035,-0.783402
840309.138883,0.09655002,0.30147111000000004,9.795334050000001,0.003937,-0.00054,0.005236,-101.994278,100.504883,-108.630173,60.187669,24.830111,11.796503,19.039084,-1.0,-1.0,100.608582,-0.605091,3.129116,-0.031021,-0.783398
840309.158869,0.09176274,0.29099403,9.79218504,0.001642,-0.002263,0.004522,-101.963608,100.656265,-108.6754,60.187669,24.830111,11.796503,19.039084,-1.0,-1.0,100.608582,-0.605091,3.129123,-0.031015,-0.783403
840309.178856,0.10687995,0.3125466,9.78455286,0.003655,-0.00063,0.004565,-101.879532,100.322632,-108.819717,60.187669,24.830111,11.796503,19.039084,-1.0,-1.0,100.608582,-0.605091,3.129118,-0.03102,-0.783392
840309.198843,0.0925083,0.29324052,9.791292330000001,0.003261,-0.001607,0.003364,-101.883942,100.405487,-108.664307,60.187669,24.830111,11.796503,19.039084,-1.0,-1.0,100.608582,-0.605091,3.129112,-0.03101,-0.783418
840309.218829,0.11211849,0.30177522,9.787250610000001,0.00384,0.000497,0.001135,-101.977676,100.278366,-108.527756,60.187669,24.830111,11.796503,19.039084,-1.0,-1.0,100.608582,-0.605091,3.129116,-0.030991,-0.783397
840309.238816,0.10223982000000001,0.30431601,9.771829290000001,0.002823,-0.000147,0.003662,-101.717575,100.29628,-108.179901,60.187669,24.830111,11.796503,19.039084,-1.0,-1.0,100.608582,-0.605091,3.129129,-0.030981,-0.783372
840309.258803,0.10148445,0.29084688000000003,9.78605379,0.001617,-0.00033,0.00419,-101.924332,100.231842,-108.455887,60.187669,24.830111,11.796503,19.039084,-1.0,-1.0,100.608582,-0.605091,3.129137,-0.030975,-0.783375
840309.278789,0.1070271,0.2951829,9.7692885,0.003053,-0.000486,0.003091,-101.895386,100.103775,-108.169815,60.187669,24.830111,11.796503,19.039084,-1.0,-1.0,100.608582,-0.605091,3.129132,-0.030977,-0.783374
840309.298776,0.09385227000000002,0.3008727,9.775419750000001,0.003121,0.000968,0.003761,-101.866135,100.180588,-108.326218,60.187669,24.830111,11.796503,19.039084,-1.0,-1.0,100.608582,-0.605091,3.129142,-0.030972,-0.783362
840309.318762,0.10044459,0.31090833,9.77302611,0.002531,-0.000938,0.004886,-101.866135,100.180588,-108.326218,60.187669,24.830111,11.796503,19.039084,-1.0,-1.0,100.608582,-0.605091,3.129152,-0.030977,-0.783354
840309.358736,0.09370512,0.29249496,9.792783450000002,0.003444,0.000117,0.004142,-101.650528,100.450912,-108.391815,60.187669,24.830111,11.796503,19.039084,-1.0,-1.0,100.608582,-0.605091,3.129166,-0.03096,-0.783368
840309.378722,0.09190989000000001,0.30506157,9.76972995,0.00326,-0.001061,0.004404,-101.829041,100.27475,-108.394623,60.187669,24.830111,11.796503,19.039084,-1.0,-1.0,100.608582,-0.605091,3.129172,-0.030958,-0.78338
840309.398709,0.09550035000000001,0.30371760000000003,9.772280550000001,0.003072,6e-06,0.00402,-101.792099,100.537598,-108.233307,60.187669,24.830111,11.796503,19.039084,-1.0,-1.0,100.608582,-0.605091,3.129185,-0.030942,-0.783368
840309.418696,0.09400923,0.29833191000000003,9.77856876,0.004331,-0.000548,0.003929,-101.756851,100.314087,-108.614395,60.187669,24.830111,11.796503,19.039084,-1.0,-1.0,100.608582,-0.605091,3.129188,-0.030941,-0.783362
840309.438682,0.09744273000000002,0.30282489,9.7983261,0.004196,-0.00011,0.004681,-101.790512,100.513153,-108.430695,60.187669,24.830111,11.796503,19.039084,-1.0,-1.0,100.608582,-0.605091,3.129186,-0.030944,-0.783363
840309.458669,0.08876088000000001,0.30221667,9.77092677,0.001127,-0.000298,0.004184,-101.834976,100.489929,-108.211884,60.187669,24.830111,11.796503,19.039084,-1.0,-1.0,100.608582,-0.605091,3.129183,-0.030955,-0.783366
840309.478656,0.10717425000000001,0.30476727000000003,9.77362452,0.003125,-0.001588,0.005374,-101.837204,100.49234,-108.465454,60.187669,24.830111,11.796503,19.039084,-1.0,-1.0,100.608582,-0.605091,3.129195,-0.030959,-0.783367
840309.498642,0.10313253,0.30192237,9.81449298,0.002872,-0.000157,0.004934,-101.869156,100.393799,-108.161362,60.187669,24.830111,11.796503,19.039084,-1.0,-1.0,100.608582,-0.605091,3.129197,-0.030958,-0.783371
840309.518629,0.09520605,0.30161826,9.77317326,0.003914,0.000765,0.005195,-102.068329,100.396378,-108.320724,60.187669,24.830111,11.796503,19.039084,-1.0,-1.0,100.608582,-0.605091,3.129201,-0.030952,-0.783376
840309.538616,0.10523187,0.30027429,9.77991273,0.003526,0.000442,0.002526,-102.044373,100.479614,-108.239746,60.187669,24.830111,11.796503,19.039084,-1.0,-1.0,100.608582,-0.605091,3.129213,-0.030947,-0.783387
840309.558602,0.09954207,0.30161826,9.80251497,0.002684,-0.000745,0.004046,-102.004547,100.235718,-108.213318,60.187669,24.830111,11.796503,19.039084,-1.0,-1.0,100.608582,-0.605091,3.129215,-0.030947,-0.78337
840309.578589,0.09999333,0.28785483,9.79069392,0.003372,0.001844,0.003508,-101.863266,100.408142,-108.355042,60.187669,24.830111,11.796503,19.039084,-1.0,-1.0,100.608582,-0.605091,3.129228,-0.03093,-0.78337
840309.598576,0.10178856,0.30371760000000003,9.78993855,0.005316,0.000987,0.00389,-102.076935,100.361893,-108.374695,60.187669,24.830111,11.796503,19.039084,-1.0,-1.0,100.608582,-0.605091,3.129242,-0.030938,-0.783367
840309.618562,0.10148445,0.29788065,9.799071660000001,0.003144,-0.000621,0.002882,-101.978088,100.539261,-108.308807,60.187669,24.830111,11.796503,19.039084,-1.0,-1.0,100.608582,-0.605091,3.129247,-0.030958,-0.783357
840309.638549,0.10912644,0.29309337,9.795029940000001,0.004906,0.000332,0.00266,-101.81398,100.476349,-108.381653,60.187669,24.830111,11.796503,19.039084,-1.0,-1.0,100.608582,-0.605091,3.129256,-0.030959,-0.783357
840309.678522,0.08786817,0.29757654,9.78605379,0.002408,-0.000781,0.004505,-101.876297,100.307358,-108.699615,60.187669,24.830111,11.796503,19.039084,-1.0,-1.0,100.608582,-0.605091,3.129265,-0.030953,-0.783339
840309.698509,0.09595161,0.30101985000000003,9.799974180000001,0.002861,-0.000544,0.003638,-102.072281,100.171997,-108.513626,60.187669,24.830111,11.796503,19.039084,-1.0,-1.0,100.608582,-0.605091,3.129254,-0.030963,-0.783333
840309.718495,0.09624591,0.30161826,9.79218504,0.003061,-0.00176,0.003629,-102.109238,100.322784,-108.256546,60.187669,24.830111,11.796503,19.039084,-1.0,-1.0,100.608582,-0.605091,3.129246,-0.03097,-0.783325
840309.738482,0.11286405000000001,0.29997999,9.79802199,0.003164,5.8e-05,0.004378,-101.710724,100.316269,-108.670105,60.187669,24.830111,11.796503,19.039084,-1.0,-1.0,100.608582,-0.605091,3.129234,-0.030962,-0.78333
840309.758469,0.1041822,0.29757654,9.78500412,0.003401,-0.001104,0.005079,-101.890945,100.378342,-108.547867,60.187669,24.830111,11.796503,19.039084,-1.0,-1.0,100.608582,-0.605091,3.12923,-0.030956,-0.783328
840309.778455,0.09729558,0.28845324,9.78589683,0.002649,-0.00167,0.00411,-101.906876,100.241974,-108.552628,60.187669,24.830111,11.796503,19.039084,-1.0,-1.0,100.608582,-0.605091,3.12923,-0.03095,-0.783322
840309.798442,0.09595161,0.29818476,9.79189074,0.002765,0.002115,0.004842,-101.874374,100.291672,-108.254715,60.187669,24.830111,11.796503,19.039084,-1.0,-1.0,100.608582,-0.605091,3.129233,-0.030945,-0.783318
840309.818429,0.10104300000000001,0.30835773000000005,9.768533130000002,0.003434,-0.001549,0.004757,-102.173645,100.191696,-108.532333,60.187669,24.830111,11.796503,19.039084,-1.0,-1.0,100.608582,-0.605091,3.129249,-0.030947,-0.783337
840309.838415,0.10208286000000001,0.2894931,9.77991273,0.002103,0.00138,0.004107,-102.183411,100.213989,-108.638138,60.187669,24.830111,11.796503,19.039084,-1.0,-1.0,100.608582,-0.605091,3.129242,-0.030949,-0.78332
840309.858402,0.09849240000000001,0.31150674,9.764942670000002,0.001259,-0.000662,0.004095,-101.96257,100.195023,-108.936798,60.187669,24.830111,11.796503,19.039084,-1.0,-1.0,100.608582,-0.605091,3.129238,-0.030948,-0.783311
840309.878388,0.10896948000000001,0.30926025,9.78485697,0.003601,0.001267,0.0042,-102.152283,100.317123,-108.702423,60.187669,24.830111,11.796503,19.039084,-1.0,-1.0,100.608582,-0.605091,3.12924,-0.030936,-0.783327
840309.898374,0.10073889000000001,0.29129814000000004,9.78156081,0.002802,-0.001274,0.004506,-101.767776,100.296799,-108.859024,60.187669,24.830111,11.796503,19.039084,-1.0,-1.0,100.608582,-0.605091,3.12924,-0.030937,-0.783322
840309.918361,0.10852803000000001,0.29742939,9.77871591,0.003961,-0.00037,0.005188,-101.80217,100.405136,-108.902115,60.187669,24.830111,11.796503,19.039084,-1.0,-1.0,100.608582,-0.605091,3.129256,-0.030952,-0.783319
840309.938348,0.10867518,0.29713509,9.78814332,0.003184,-0.000689,0.003731,-102.089081,100.096115,-108.753937,60.187669,24.830111,11.796503,19.039084,-1.0,-1.0,100.608582,-0.605091,3.129262,-0.03096,-0.783328
840309.978321,0.09116433,0.30386475,9.77766624,0.003515,-0.000643,0.004407,-101.796738,100.368317,-108.507401,60.187669,24.830111,11.796503,19.039084,-1.0,-1.0,100.608582,-0.605091,3.12926,-0.030967,-0.783335
840309.978321,0.09116433,0.30386475,9.77766624,0.003515,-0.000643,0.004407,-101.796738,100.368317,-108.507401,60.187669,24.830111,11.796503,19.039084,-1.0,-1.0,100.608582,-0.605091,3.12926,-0.030967,-0.783335
840310.018294,0.09759969,0.29637972,9.78814332,0.002518,-0.001251,0.00344,-101.623962,100.419037,-108.337524,60.187669,24.830111,11.796503,19.039084,-1.0,-1.0,100.608582,-0.605091,3.129274,-0.030967,-0.783351
840310.038281,0.09205704,0.2980278,9.7894971,0.003645,0.00077,0.00368,-101.849289,100.151337,-108.471649,60.187669,24.830111,11.796503,19.039084,-1.0,-1.0,100.608582,-0.605091,3.129276,-0.030968,-0.783351
840310.058268,0.11137293000000001,0.28261629000000005,9.7784118,0.002883,-0.000602,0.004106,-101.849289,100.151337,-108.471649,60.187669,24.830111,11.796503,19.039084,-1.0,-1.0,100.608582,-0.605091,3.129286,-0.030978,-0.783345
840310.078254,0.09520605,0.3097017,9.783208890000001,0.002919,-0.001394,0.004099,-102.042343,100.235809,-108.708328,60.187669,24.830111,11.796503,19.039084,-1.0,-1.0,100.608665,-0.613018,3.129297,-0.030992,-0.783348
840310.098241,0.09220419,0.29293641,9.79368597,0.002847,-0.001215,0.004675,-102.11322,100.506912,-108.550232,60.187669,24.830111,11.796503,19.039084,-1.0,-1.0,100.608665,-0.613018,3.129301,-0.030979,-0.783363
840310.118228,0.08622009,0.30297204000000005,9.77766624,0.002447,-0.0036,0.004877,-101.917175,100.502884,-108.525345,60.187669,24.830111,11.796503,19.039084,-1.0,-1.0,100.608665,-0.613018,3.129312,-0.030967,-0.783364
840310.138214,0.09430353000000001,0.29189655000000003,9.78919299,0.00363,-0.001592,0.004234,-101.864517,100.392731,-108.553085,60.187669,24.830111,11.796503,19.039084,-1.0,-1.0,100.608665,-0.613018,3.129305,-0.030969,-0.783376
