timestamp,x,y,theta,vx,vy,bias_accel_x,bias_accel_y,bias_angular_velocity,accel_x,accel_y,accel_z,gyro_x,gyro_y,gyro_z,cov_trace
1757069485.7747827,0.0,0.0,0.0,0.0,0.0,-0.9140358521584159,-0.5835768137821783,0.031856378217821786,0.33215679000000004,-0.32482872,9.771525180000001,0.003452,-0.000605,0.004109,3.13
1757069485.8018904,0.0,0.0,0.0,0.0,0.0,-0.9140358521584159,-0.5835768137821783,0.0015167282565640948,0.32423030999999997,-0.3617928,9.76943565,0.003896,-0.001824,0.004859,0.7968894830734881
1757069485.8229256,0.0,0.0,0.0,0.0,0.0,-0.9140358521584159,-0.5835768137821783,0.0007754719254205651,0.31270356000000005,-0.35251254000000004,9.77317326,0.002974,5.3e-05,0.003703,0.5260181027032265
1757069485.8440704,0.0,0.0,0.0,0.0,0.0,-0.9140358521584159,-0.5835768137821783,0.0005195007885642193,0.32782077000000004,-0.34712685000000004,9.78036399,0.002945,-0.000113,0.003414,0.41099370723294637
1757069485.8652992,0.0,0.0,0.0,0.0,0.0,-0.9140358521584159,-0.5835768137821783,0.0003895098805245799,0.32287653,-0.34772526,9.77677353,0.004486,-0.000618,0.004082,0.34725208076084474
1757069485.885773,0.0,0.0,0.0,0.0,0.0,-0.9140358521584159,-0.5835768137821783,0.00031050870229773687,0.32796792,-0.36867942,9.77092677,0.003465,5.6e-05,0.002685,0.30700317918910774
1757069485.9067364,0.0,0.0,0.0,0.0,0.0,-0.9140358521584159,-0.5835768137821783,0.000257263547684397,0.32631984,-0.36299943,9.77632227,0.002838,-0.000556,0.003456,0.2824470968821029
1757069485.9290078,0.0,0.0,0.0,0.0,0.0,-0.9140358521584159,-0.5835768137821783,0.0002190014697243172,0.32497587,-0.3586536,9.77333022,0.003131,-0.002606,0.003345,0.26296810284463207
1757069485.956206,0.0,0.0,0.0,0.0,0.0,-0.9140358521584159,-0.5835768137821783,0.00016705803156026564,0.33215679000000004,-0.35506314,9.7781175,0.004002,-0.001067,0.004249,0.23077632548903354
1757069485.9777472,0.0,0.0,0.0,0.0,0.0,-0.9140358521584159,-0.5835768137821783,0.00014853635395507513,0.33455043,-0.35895771,9.7695828,0.001831,-0.000169,0.00576,0.22093921124053736
1757069485.9984694,0.0,0.0,0.0,0.0,0.0,-0.9140358521584159,-0.5835768137821783,0.0001332078600150804,0.31854051,-0.33934752,9.76554108,0.003,0.000893,0.005791,0.21274498278144674
1757069486.018964,0.0,0.0,0.0,0.0,0.0,-0.9140358521584159,-0.5835768137821783,0.00012041630749009557,0.32258223,-0.34054434000000006,9.77797035,0.002862,0.000955,0.003314,0.20551279091052002
1757069486.0398333,0.0,0.0,0.0,0.0,0.0,-0.9140358521584159,-0.5835768137821783,0.00010947696658274153,0.33320646000000004,-0.34862778,9.771378030000001,0.003098,-0.001898,0.00263,0.19984072990375398
1757069486.060779,0.0,0.0,0.0,0.0,0.0,-0.9140358521584159,-0.5835768137821783,9.996941591118915e-05,0.32347494000000004,-0.3526695,9.76120506,0.003098,-0.001898,0.00263,0.19498791337182259
1757069486.0819297,0.0,0.0,0.0,0.0,0.0,-0.9140358521584159,-0.5835768137821783,9.159459822749788e-05,0.32736951,-0.35985042,9.77437008,0.003447,-0.000699,0.005656,0.19078465487405025
1757069486.1022394,0.0,0.0,0.0,0.0,0.0,-0.9140358521584159,-0.5835768137821783,8.423383052560778e-05,0.32916474,-0.3501189,9.76149936,0.002721,-0.000841,0.002853,0.1867292758818649
1757069486.1223714,0.0,0.0,0.0,0.0,0.0,-0.9140358521584159,-0.5835768137821783,7.770746893678626e-05,0.329616,-0.347274,9.77751909,0.004959,-0.00068,0.003941,0.1832909944589492
1757069486.1431704,0.0,0.0,0.0,0.0,0.0,-0.9140358521584159,-0.5835768137821783,7.181921801970969e-05,0.33215679000000004,-0.35341506000000006,9.77422293,0.003913,-0.001093,0.00282,0.180549727051311
1757069486.1634908,0.0,0.0,0.0,0.0,0.0,-0.9140358521584159,-0.5835768137821783,6.648624377622436e-05,0.32722236,-0.35087427000000004,9.77347737,0.003516,-0.000758,0.004405,0.17793417419027
1757069486.184473,0.0,0.0,0.0,0.0,0.0,-0.9140358521584159,-0.5835768137821783,6.168520220821059e-05,0.31658832000000003,-0.33664977,9.76209777,0.003466,-0.000621,0.004407,0.17529335560411324
1757069486.2045374,0.0,0.0,0.0,0.0,0.0,-0.9140358521584159,-0.5835768137821783,5.728276192758259e-05,0.32766381,-0.35760393,9.771230880000001,0.002213,0.000245,0.003099,0.17337736381447988
1757069486.2246897,0.0,0.0,0.0,0.0,0.0,-0.9140358521584159,-0.5835768137821783,5.728276192758259e-05,0.32766381,-0.35760393,9.771230880000001,0.002213,0.000245,0.003099,0.17337736381447988
1757069486.247294,0.0,0.0,0.0,0.0,0.0,-0.9140358521584159,-0.5835768137821783,4.938365160441252e-05,0.33275520000000003,-0.3409956,9.78261048,0.00294,-0.000671,0.003062,0.16930070382118337
1757069486.2674623,0.0,0.0,0.0,0.0,0.0,-0.9140358521584159,-0.5835768137821783,4.603806590448396e-05,0.32272938,-0.35521029,9.765246780000002,0.002736,2.8e-05,0.004185,0.16732987992400453
1757069486.288588,0.0,0.0,0.0,0.0,0.0,-0.9140358521584159,-0.5835768137821783,4.293837356983034e-05,0.31658832000000003,-0.34128990000000003,9.77856876,0.003886,-0.001207,0.004664,0.16890244273424626
1757069486.313527,0.0,0.0,0.0,0.0,0.0,-0.9140358521584159,-0.5835768137821783,3.754915079196576e-05,0.33260805,-0.34233957,9.77721498,0.003115,-0.001037,0.005876,0.16339538425043829
1757069486.33573,0.0,0.0,0.0,0.0,0.0,-0.9140358521584159,-0.5835768137821783,3.512708455642134e-05,0.32347494000000004,-0.35880075000000006,9.783954450000001,0.00407,-0.000893,0.006484,0.1625605092903845
1757069486.3567042,0.0,0.0,0.0,0.0,0.0,-0.9140358521584159,-0.5835768137821783,3.287789534400738e-05,0.32871348000000006,-0.35475903000000003,9.77407578,0.001931,-0.001268,0.005067,0.161393121186045
1757069486.377788,0.0,0.0,0.0,0.0,0.0,-0.9140358521584159,-0.5835768137821783,3.0796132775083945e-05,0.33440328,-0.35446473,9.76464837,0.004536,-0.000939,0.005176,0.1602507072331227
1757069486.3979218,0.0,0.0,0.0,0.0,0.0,-0.9140358521584159,-0.5835768137821783,2.8826040199864028e-05,0.31494024000000004,-0.34263387,9.78485697,0.00278,-0.000168,0.004409,0.15970982711062154
1757069486.418077,0.0,0.0,0.0,0.0,0.0,-0.9140358521584159,-0.5835768137821783,2.7023141409371756e-05,0.33829785,-0.36314658000000005,9.75865446,0.003168,-0.000395,0.00573,0.15825363646762386
1757069486.4381573,0.0,0.0,0.0,0.0,0.0,-0.9140358521584159,-0.5835768137821783,2.5330581074702545e-05,0.3239262,-0.35176698,9.76688505,0.001047,0.000236,0.003419,0.15773986975628934
1757069486.4589252,0.0,0.0,0.0,0.0,0.0,-0.9140358521584159,-0.5835768137821783,2.375481250674746e-05,0.31703958,-0.3526695,9.772280550000001,0.002841,0.000967,0.0039,0.15688783699304104
1757069486.4796424,0.0,0.0,0.0,0.0,0.0,-0.9140358521584159,-0.5835768137821783,2.2262400869882703e-05,0.32811507,-0.34967745000000006,9.77063247,0.004272,0.002211,0.004261,0.15648617900233822
1757069486.4999642,0.0,0.0,0.0,0.0,0.0,-0.9140358521584159,-0.5835768137821783,2.0873826219347043e-05,0.31060422000000004,-0.35386632,9.77437008,0.003916,0.0003,0.004464,0.15557704487175367
1757069486.5199635,0.0,0.0,0.0,0.0,0.0,-0.9140358521584159,-0.5835768137821783,1.9582413062331274e-05,0.31598991,-0.36075294,9.765246780000002,0.003451,0.00117,0.004814,0.1548333508258734
1757069486.5403233,0.0,0.0,0.0,0.0,0.0,-0.9140358521584159,-0.5835768137821783,1.8363836041120025e-05,0.31749084,-0.34997175,9.76659075,0.004078,-0.000688,0.003736,0.15448744326779712
1757069486.5603795,0.0,0.0,0.0,0.0,0.0,-0.9140358521584159,-0.5835768137821783,1.721336748090389e-05,0.32272938,-0.35461188,9.78649524,0.004078,-0.000688,0.003736,0.1540418011758049
1757069486.5813756,0.0,0.0,0.0,0.0,0.0,-0.9140358521584159,-0.5835768137821783,1.615393176836414e-05,0.32796792,-0.34383069,9.77737194,0.004073,-0.001519,0.005468,0.1530366911692558
1757069486.6031964,0.0,0.0,0.0,0.0,0.0,-0.9140358521584159,-0.5835768137821783,1.5138931177988946e-05,0.31973733,-0.35910486,9.76733631,0.003558,0.000891,0.004055,0.15317305561827116
1757069486.6249552,0.0,0.0,0.0,0.0,0.0,-0.9140358521584159,-0.5835768137821783,1.4209215604542802e-05,0.33275520000000003,-0.34787241,9.775871010000001,0.001867,-0.000327,0.004046,0.15585691004199453
1757069486.644962,0.0,0.0,0.0,0.0,0.0,-0.9140358521584159,-0.5835768137821783,1.3340112759953133e-05,0.32677110000000004,-0.34967745000000006,9.765246780000002,0.002703,0.000926,0.004492,0.15583336925174857
1757069486.66585,0.0,0.0,0.0,0.0,0.0,-0.9140358521584159,-0.5835768137821783,1.2523978576664678e-05,0.3182364,-0.35760393,9.77617512,0.00199,0.00049,0.00348,0.15574111857799172
1757069486.6874974,0.0,0.0,0.0,0.0,0.0,-0.9140358521584159,-0.5835768137821783,1.1755476309831707e-05,0.32557428000000005,-0.34638129,9.77781339,0.002573,0.00079,0.002861,0.15553647816933366
1757069486.7134132,0.0,0.0,0.0,0.0,0.0,-0.9140358521584159,-0.5835768137821783,1.0353784961155474e-05,0.31614687,-0.34847082,9.77362452,0.004347,0.001065,0.004437,0.15035241683972853
1757069486.7337005,0.0,0.0,0.0,0.0,0.0,-0.9140358521584159,-0.5835768137821783,9.719389340747521e-06,0.31674527999999996,-0.36135135,9.77646942,0.003404,-0.000781,0.003033,0.14998930875965708
1757069486.7542613,0.0,0.0,0.0,0.0,0.0,-0.9140358521584159,-0.5835768137821783,9.719389340747521e-06,0.31674527999999996,-0.36135135,9.77646942,0.003404,-0.000781,0.003033,0.14998930875965708
1757069486.7745812,0.0,0.0,0.0,0.0,0.0,-0.9140358521584159,-0.5835768137821783,9.086992240603081e-06,0.31868766000000004,-0.3409956,9.77287896,0.002757,-0.000843,0.003882,0.15082510675544816
1757069486.797023,0.0,0.0,0.0,0.0,0.0,-0.9140358521584159,-0.5835768137821783,8.508836660751292e-06,0.32153256,-0.35401347000000005,9.768238830000001,0.003294,-0.000436,0.002992,0.1525222182978782
1757069486.8205767,0.0,0.0,0.0,0.0,0.0,-0.9140358521584159,-0.5835768137821783,7.486510580625736e-06,0.32018859000000005,-0.33784659,9.783503190000001,0.00301,-0.001009,0.005889,0.14855950060169434
1757069486.8414207,0.0,0.0,0.0,0.0,0.0,-0.9140358521584159,-0.5835768137821783,7.032123449856975e-06,0.33291216,-0.34533162,9.77302611,0.003801,-0.001322,0.005014,0.14823548592437238
1757069486.8626306,0.0,0.0,0.0,0.0,0.0,-0.9140358521584159,-0.5835768137821783,6.606481457360339e-06,0.32796792,-0.3529638,9.775871010000001,0.003466,0.000213,0.002697,0.14818730101086777
1757069486.8838685,0.0,0.0,0.0,0.0,0.0,-0.9140358521584159,-0.5835768137821783,6.205310434294077e-06,0.31598991,-0.35790804000000004,9.775723860000001,0.002526,0.000701,0.004114,0.14813536677012354
1757069486.9037306,0.0,0.0,0.0,0.0,0.0,-0.9140358521584159,-0.5835768137821783,5.828157186676716e-06,0.32736951,-0.35595585,9.77856876,0.004884,-0.000754,0.003008,0.14792947610909543
1757069486.9238546,0.0,0.0,0.0,0.0,0.0,-0.9140358521584159,-0.5835768137821783,5.474372018997567e-06,0.32542713,-0.35611281,9.7664436,0.003486,-0.001332,0.004197,0.14768188940174715
1757069486.9451218,0.0,0.0,0.0,0.0,0.0,-0.9140358521584159,-0.5835768137821783,5.1415696312217775e-06,0.32003163,-0.34937334000000003,9.77362452,0.003897,-0.000411,0.003992,0.15134883817399075
1757069486.9656358,0.0,0.0,0.0,0.0,0.0,-0.9140358521584159,-0.5835768137821783,4.8299794559429425e-06,0.32722236,-0.33978897,9.779010210000001,0.003172,-0.001514,0.004706,0.15147423051852982
1757069486.9866474,0.0,0.0,0.0,0.0,0.0,-0.9140358521584159,-0.5835768137821783,4.536446113470775e-06,0.32722236,-0.33978897,9.779010210000001,0.003172,-0.001514,0.004706,0.14717298722032093
1757069487.0071597,0.0,0.0,0.0,0.0,0.0,-0.9140358521584159,-0.5835768137821783,4.254242223054938e-06,0.30641535000000003,-0.34712685000000004,9.76764042,0.003421,-0.001303,0.005979,0.15027521220080486
1757069487.0333707,0.0,0.0,0.0,0.0,0.0,-0.9140358521584159,-0.5835768137821783,3.7512403851253584e-06,0.33200964,-0.35475903000000003,9.77692068,0.001386,6.9e-05,0.004943,0.1466037858236573
1757069487.0541337,0.0,0.0,0.0,0.0,0.0,-0.9140358521584159,-0.5835768137821783,3.522690881951761e-06,0.31374342,-0.35057015999999996,9.77601816,0.002938,-0.0003,0.004821,0.1465030891845851
1757069487.074424,0.0,0.0,0.0,0.0,0.0,-0.9140358521584159,-0.5835768137821783,3.308698328818823e-06,0.32182686000000005,-0.35939916000000005,9.768238830000001,0.003713,0.000955,0.004629,0.1463247649157137
1757069487.0944796,0.0,0.0,0.0,0.0,0.0,-0.9140358521584159,-0.5835768137821783,3.107202920738673e-06,0.33141123,-0.35027586000000005,9.77646942,0.002386,-0.001363,0.003213,0.1462904546168802
1757069487.1154778,0.0,0.0,0.0,0.0,0.0,-0.9140358521584159,-0.5835768137821783,2.9180798065698684e-06,0.33275520000000003,-0.35116857000000007,9.78934014,0.003963,-0.000514,0.004241,0.14613912056360454
1757069487.1357903,0.0,0.0,0.0,0.0,0.0,-0.9140358521584159,-0.5835768137821783,2.7401704161018886e-06,0.33425613,-0.35356221,9.77991273,0.003949,-0.001286,0.003661,0.14606046962483954
1757069487.1567488,0.0,0.0,0.0,0.0,0.0,-0.9140358521584159,-0.5835768137821783,2.5730599054656976e-06,0.32796792,-0.35236539,9.77362452,0.003798,2e-06,0.003167,0.14593802263160224
1757069487.177327,0.0,0.0,0.0,0.0,0.0,-0.9140358521584159,-0.5835768137821783,2.415950038336559e-06,0.33724818,-0.34817652000000004,9.7812567,0.00455,-0.000393,0.003385,0.14585192260612218
1757069487.1983006,0.0,0.0,0.0,0.0,0.0,-0.9140358521584159,-0.5835768137821783,2.268250836109014e-06,0.32782077000000004,-0.34279083000000005,9.7667379,0.005371,-0.000466,0.005667,0.14576432333427022
1757069487.2193215,0.0,0.0,0.0,0.0,0.0,-0.9140358521584159,-0.5835768137821783,2.129500840048773e-06,0.31194819,-0.34892208,9.77032836,0.004078,-0.001831,0.004882,0.1456659063646204
1757069487.2395117,0.0,0.0,0.0,0.0,0.0,-0.9140358521584159,-0.5835768137821783,1.9991445226500935e-06,0.32347494000000004,-0.35715267000000006,9.77976558,0.002919,-6.8e-05,0.004812,0.1455828478016415
1757069487.2604775,0.0,0.0,0.0,0.0,0.0,-0.9140358521584159,-0.5835768137821783,1.8772122664158267e-06,0.32856633,-0.35116857000000007,9.79038981,0.003292,-0.000265,0.003452,0.1454104689055224
1757069487.2812161,0.0,0.0,0.0,0.0,0.0,-0.9140358521584159,-0.5835768137821783,1.7617378788214375e-06,0.32003163,-0.34593003000000005,9.76240188,0.003292,-0.000265,0.003452,0.14555397007950754
1757069487.3014288,0.0,0.0,0.0,0.0,0.0,-0.9140358521584159,-0.5835768137821783,1.6536685682275237e-06,0.33126408,-0.3558087,9.78185511,0.003525,0.001626,0.003335,0.14533653762060672
1757069487.322269,0.0,0.0,0.0,0.0,0.0,-0.9140358521584159,-0.5835768137821783,1.5525919188821713e-06,0.33590421000000004,-0.35057015999999996,9.78005988,0.003525,0.001626,0.003335,0.14519977172548187
1757069487.343552,0.0,0.0,0.0,0.0,0.0,-0.9140358521584159,-0.5835768137821783,1.4570755904792563e-06,0.32782077000000004,-0.35685837000000004,9.77422293,0.002478,4.3e-05,0.004182,0.1453203816524724
1757069487.3660634,0.0,0.0,0.0,0.0,0.0,-0.9140358521584159,-0.5835768137821783,1.3674473964362732e-06,0.31150674,-0.3558087,9.77737194,0.002836,-0.000471,0.002071,0.14893452301712368
1757069487.3870952,0.0,0.0,0.0,0.0,0.0,-0.9140358521584159,-0.5835768137821783,1.2838084583930757e-06,0.31150674,-0.3558087,9.77737194,0.002836,-0.000471,0.002071,0.1450032848720798
1757069487.4121203,0.0,0.0,0.0,0.0,0.0,-0.9140358521584159,-0.5835768137821783,1.1306846678831043e-06,0.31194819,-0.34533162,9.77721498,0.004423,-0.000697,0.004893,0.14472821396410088
1757069487.4325817,0.0,0.0,0.0,0.0,0.0,-0.9140358521584159,-0.5835768137821783,1.061859200297231e-06,0.32841918000000003,-0.35655426000000007,9.77347737,0.002472,-0.001043,0.004404,0.14482586657092086
1757069487.4532473,0.0,0.0,0.0,0.0,0.0,-0.9140358521584159,-0.5835768137821783,9.96885190667992e-07,0.31494024000000004,-0.33919056000000003,9.772133400000001,0.001574,-0.000213,0.004908,0.1449691466351632
1757069487.474051,0.0,0.0,0.0,0.0,0.0,-0.9140358521584159,-0.5835768137821783,9.35860968745444e-07,0.30790647,-0.34518447,9.77287896,0.001945,-0.000521,0.005393,0.1449010964601545
1757069487.4948628,0.0,0.0,0.0,0.0,0.0,-0.9140358521584159,-0.5835768137821783,8.788188477786843e-07,0.32512302,-0.36329373000000004,9.76704201,0.001756,-0.00064,0.002458,0.14475685841097882
1757069487.5152228,0.0,0.0,0.0,0.0,0.0,-0.9140358521584159,-0.5835768137821783,8.253155397432671e-07,0.32407335000000004,-0.3469797,9.77092677,0.003357,0.000267,0.004707,0.14474670465874961
1757069487.5359466,0.0,0.0,0.0,0.0,0.0,-0.9140358521584159,-0.5835768137821783,7.750480019698787e-07,0.33081282000000006,-0.34442910000000004,9.775419750000001,0.004802,0.001083,0.004304,0.14475434555682887
1757069487.556134,0.0,0.0,0.0,0.0,0.0,-0.9140358521584159,-0.5835768137821783,7.276372981807183e-07,0.31703958,-0.36673704,9.7692885,0.004018,-0.00093,0.003266,0.14482372621196452
1757069487.5771499,0.0,0.0,0.0,0.0,0.0,-0.9140358521584159,-0.5835768137821783,6.832858629101151e-07,0.3239262,-0.33829785,9.780511140000002,0.005163,-0.001415,0.003385,0.14467442716444398
1757069487.597565,0.0,0.0,0.0,0.0,0.0,-0.9140358521584159,-0.5835768137821783,6.411466531659835e-07,0.31374342,-0.35116857000000007,9.77108373,0.002755,0.000473,0.002938,0.14492875666218025
1757069487.6183672,0.0,0.0,0.0,0.0,0.0,-0.9140358521584159,-0.5835768137821783,6.021711055180716e-07,0.33186249,-0.35939916000000005,9.7784118,0.005606,-0.000719,0.004121,0.14446916173530405
1757069487.638911,0.0,0.0,0.0,0.0,0.0,-0.9140358521584159,-0.5835768137821783,5.654650622673124e-07,0.32467176000000003,-0.35281665,9.774968490000001,0.001705,-0.000521,0.005208,0.14465239185088813
1757069487.659307,0.0,0.0,0.0,0.0,0.0,-0.9140358521584159,-0.5835768137821783,5.309281095854313e-07,0.33006726000000003,-0.34652844000000005,9.77751909,0.003865,-0.000319,0.005674,0.14469046394151924
1757069487.679755,0.0,0.0,0.0,0.0,0.0,-0.9140358521584159,-0.5835768137821783,4.977350056605534e-07,0.32527017,-0.34383069,9.76809168,0.001782,0.000912,0.004735,0.14513161286729576
1757069487.699932,0.0,0.0,0.0,0.0,0.0,-0.9140358521584159,-0.5835768137821783,4.6747194989654554e-07,0.32662395,-0.36015453000000003,9.768385980000001,0.003959,-0.001034,0.00459,0.14423604084791192
1757069487.7220664,0.0,0.0,0.0,0.0,0.0,-0.9140358521584159,-0.5835768137821783,4.3905424514385827e-07,0.33365772000000005,-0.34114275,9.76269618,0.004068,-0.001184,0.004926,0.1486118591068245
1757069487.7435942,0.0,0.0,0.0,0.0,0.0,-0.9140358521584159,-0.5835768137821783,4.123386891575076e-07,0.32437746,-0.35625996000000004,9.77048532,0.004188,-0.001254,0.004078,0.14902120822164983
1757069487.76669,0.0,0.0,0.0,0.0,0.0,-0.9140358521584159,-0.5835768137821783,3.635164743196671e-07,0.32437746,-0.3555144,9.7784118,0.003003,-0.000534,0.004426,0.1445987835716514
1757069487.7912123,0.0,0.0,0.0,0.0,0.0,-0.9140358521584159,-0.5835768137821783,3.410532531460061e-07,0.32153256,-0.35161983,9.78335604,0.00476,-0.00066,0.004711,0.1449041680473052
1757069487.812102,0.0,0.0,0.0,0.0,0.0,-0.9140358521584159,-0.5835768137821783,3.202737581711772e-07,0.33455043,-0.35071731,9.780815250000002,0.003616,0.000315,0.005296,0.14445330255711927
1757069487.8321316,0.0,0.0,0.0,0.0,0.0,-0.9140358521584159,-0.5835768137821783,3.0075131277999827e-07,0.32976315,-0.34203546,9.771525180000001,0.002736,-0.001792,0.004077,0.14459961458197673
1757069487.852645,0.0,0.0,0.0,0.0,0.0,-0.9140358521584159,-0.5835768137821783,2.8236652639462784e-07,0.32811507,-0.34817652000000004,9.78185511,0.002233,-0.000999,0.005208,0.1447012445767352
1757069487.8736618,0.0,0.0,0.0,0.0,0.0,-0.9140358521584159,-0.5835768137821783,2.8236652639462784e-07,0.32811507,-0.34817652000000004,9.78185511,0.002233,-0.000999,0.005208,0.1447012445767352
1757069487.8940187,0.0,0.0,0.0,0.0,0.0,-0.9140358521584159,-0.5835768137821783,2.4822663224975566e-07,0.33021441000000007,-0.35640711,9.76613949,0.001524,0.000318,0.003634,0.14423787963619586
1757069487.914479,0.0,0.0,0.0,0.0,0.0,-0.9140358521584159,-0.5835768137821783,2.3313229797348244e-07,0.32242527000000004,-0.34143705,9.76300029,0.002657,0.00025,0.00383,0.14440350109446745
1757069487.9349265,0.0,0.0,0.0,0.0,0.0,-0.9140358521584159,-0.5835768137821783,2.1893968234518433e-07,0.31060422000000004,-0.35611281,9.77422293,0.002722,-0.000196,0.003621,0.14464383723774962
1757069487.9552436,0.0,0.0,0.0,0.0,0.0,-0.9140358521584159,-0.5835768137821783,2.0549386111622827e-07,0.33066567,-0.3526695,9.76539393,0.004415,0.000377,0.00434,0.14489070576007046
1757069487.9761739,0.0,0.0,0.0,0.0,0.0,-0.9140358521584159,-0.5835768137821783,1.9295738464888983e-07,0.32766381,-0.35985042,9.77422293,0.003035,0.00041,0.004913,0.1446774519275639
1757069487.9969337,0.0,0.0,0.0,0.0,0.0,-0.9140358521584159,-0.5835768137821783,1.8104712894768982e-07,0.3182364,-0.34607718,9.771976440000001,0.002848,-0.000508,0.003158,0.14499791661969486
1757069488.0179312,0.0,0.0,0.0,0.0,0.0,-0.9140358521584159,-0.5835768137821783,1.7005028780583663e-07,0.32198382,-0.34906923,9.77407578,0.00421,-6.4e-05,0.004866,0.14454433262754535
1757069488.0383089,0.0,0.0,0.0,0.0,0.0,-0.9140358521584159,-0.5835768137821783,1.7005028780583663e-07,0.32198382,-0.34906923,9.77407578,0.00421,-6.4e-05,0.004866,0.14454433262754535
1757069488.0590987,0.0,0.0,0.0,0.0,0.0,-0.9140358521584159,-0.5835768137821783,1.4914446502757687e-07,0.33260805,-0.35640711,9.77377167,0.002232,-0.000328,0.003791,0.14451440317509573
1757069488.080019,0.0,0.0,0.0,0.0,0.0,-0.9140358521584159,-0.5835768137821783,1.400504448273807e-07,0.31285071000000003,-0.34832367,9.77392863,0.001332,-0.000479,0.003952,0.14435193652434142
1757069488.1004114,0.0,0.0,0.0,0.0,0.0,-0.9140358521584159,-0.5835768137821783,1.3154430099197093e-07,0.33200964,-0.3529638,9.768690090000002,0.002559,0.000946,0.004966,0.1446633003470806
1757069488.1214597,0.0,0.0,0.0,0.0,0.0,-0.9140358521584159,-0.5835768137821783,1.2350094843787115e-07,0.33275520000000003,-0.34368354000000007,9.76269618,0.001666,0.000992,0.003948,0.1449964925364403
1757069488.1419837,0.0,0.0,0.0,0.0,0.0,-0.9140358521584159,-0.5835768137821783,1.1593883588907613e-07,0.32931189000000005,-0.35131572,9.78634809,0.001663,0.001137,0.004085,0.1450234444493243
1757069488.1624355,0.0,0.0,0.0,0.0,0.0,-0.9140358521584159,-0.5835768137821783,1.0883586893852577e-07,0.31943322,-0.3498246,9.77422293,0.002863,0.000659,0.005319,0.14504060967270155
1757069488.1848047,0.0,0.0,0.0,0.0,0.0,-0.9140358521584159,-0.5835768137821783,1.0221165677260608e-07,0.32557428000000005,-0.35880075000000006,9.775566900000001,0.004961,-7.7e-05,0.003901,0.1490617675280575
1757069488.2061775,0.0,0.0,0.0,0.0,0.0,-0.9140358521584159,-0.5835768137821783,9.017808562432618e-08,0.32003163,-0.35939916000000005,9.78245352,0.004911,-0.002681,0.003086,0.14491751259669333
1757069488.2271218,0.0,0.0,0.0,0.0,0.0,-0.9140358521584159,-0.5835768137821783,8.471898800787411e-08,0.32332779000000006,-0.34533162,9.78230637,0.002676,-0.002434,0.004794,0.14506869067491882
1757069488.248149,0.0,0.0,0.0,0.0,0.0,-0.9140358521584159,-0.5835768137821783,7.958196021359539e-08,0.33021441000000007,-0.34263387,9.79069392,0.002793,-0.00041,0.003921,0.14515321268298795
1757069488.2734516,0.0,0.0,0.0,0.0,0.0,-0.9140358521584159,-0.5835768137821783,7.464643083734751e-08,0.320787,-0.34802937000000006,9.779167170000001,0.002277,-0.001463,0.004142,0.14563096279860518
1757069488.2937248,0.0,0.0,0.0,0.0,0.0,-0.9140358521584159,-0.5835768137821783,7.010470785592571e-08,0.32377905,-0.34862778,9.77646942,0.001195,-0.00176,0.004175,0.1449981598873643
1757069488.3142817,0.0,0.0,0.0,0.0,0.0,-0.9140358521584159,-0.5835768137821783,7.010470785592571e-08,0.32602554,-0.34547877,9.77302611,0.002065,0.000563,0.003767,0.1449981598873643
1757069488.3347528,0.0,0.0,0.0,0.0,0.0,-0.9140358521584159,-0.5835768137821783,6.166884375464419e-08,0.32318064,-0.34652844000000005,9.767189160000001,0.003608,0.000851,0.004104,0.14483219796483146
1757069488.3557658,0.0,0.0,0.0,0.0,0.0,-0.9140358521584159,-0.5835768137821783,5.7928785724348725e-08,0.32856633,-0.3409956,9.775566900000001,0.004036,-0.001509,0.004457,0.1450884763384252
1757069488.3761418,0.0,0.0,0.0,0.0,0.0,-0.9140358521584159,-0.5835768137821783,5.442099520884552e-08,0.31838355,-0.34997175,9.7781175,0.003214,-0.000211,0.003991,0.14527050908866612
1757069488.3968463,0.0,0.0,0.0,0.0,0.0,-0.9140358521584159,-0.5835768137821783,5.110226693366536e-08,0.33021441000000007,-0.33949467,9.77018121,0.00391,0.00046,0.005222,0.14553279448224324
1757069488.4170768,0.0,0.0,0.0,0.0,0.0,-0.9140358521584159,-0.5835768137821783,4.799861425853768e-08,0.33470739,-0.34638129,9.767934720000001,0.002993,-0.000137,0.004539,0.14542585664961083
1757069488.43733,0.0,0.0,0.0,0.0,0.0,-0.9140358521584159,-0.5835768137821783,4.503485200534329e-08,0.32557428000000005,-0.34757811,9.77646942,0.003055,-0.001709,0.005367,0.14584265570905328
1757069488.457543,0.0,0.0,0.0,0.0,0.0,-0.9140358521584159,-0.5835768137821783,4.229645323483565e-08,0.31973733,-0.34607718,9.7607538,0.003729,0.000264,0.003236,0.1453744290048561
1757069488.4782043,0.0,0.0,0.0,0.0,0.0,-0.9140358521584159,-0.5835768137821783,3.9727327685096617e-08,0.32287653,-0.34667559000000003,9.767934720000001,0.003729,0.000264,0.003236,0.1455319240173569
1757069488.4989476,0.0,0.0,0.0,0.0,0.0,-0.9140358521584159,-0.5835768137821783,3.7311076903664253e-08,0.32063004,-0.35102142000000003,9.763451550000001,0.002308,0.002076,0.003155,0.14565863102439472
1757069488.51974,0.0,0.0,0.0,0.0,0.0,-0.9140358521584159,-0.5835768137821783,3.500081632413273e-08,0.32467176000000003,-0.34398765000000003,9.77781339,0.002325,0.000593,0.004614,0.14607313637704683
1757069488.5413368,0.0,0.0,0.0,0.0,0.0,-0.9140358521584159,-0.5835768137821783,3.28627924857149e-08,0.32258223,-0.34578288,9.77302611,0.003571,-0.000472,0.004792,0.14930192143681745
1757069488.5653195,0.0,0.0,0.0,0.0,0.0,-0.9140358521584159,-0.5835768137821783,2.8992394661352624e-08,0.31913892,-0.3529638,9.7695828,0.004734,-0.000128,0.003181,0.14580456997995941
1757069488.585752,0.0,0.0,0.0,0.0,0.0,-0.9140358521584159,-0.5835768137821783,2.8992394661352624e-08,0.31913892,-0.3529638,9.7695828,0.004734,-0.000128,0.003181,0.14580456997995941
1757069488.6066644,0.0,0.0,0.0,0.0,0.0,-0.9140358521584159,-0.5835768137821783,2.5529820577076304e-08,0.320787,-0.34458605999999997,9.76120506,0.004015,-0.000577,0.002761,0.14552961853213014
1757069488.6293988,0.0,0.0,0.0,0.0,0.0,-0.9140358521584159,-0.5835768137821783,2.3961260238646254e-08,0.32827203,-0.3501189,9.771525180000001,0.002948,-0.000568,0.004388,0.14614892196331364
1757069488.6498823,0.0,0.0,0.0,0.0,0.0,-0.9140358521584159,-0.5835768137821783,2.2505592122676647e-08,0.32182686000000005,-0.35655426000000007,9.759556980000001,0.003198,-0.000484,0.003589,0.1458918062777863
1757069488.6699996,0.0,0.0,0.0,0.0,0.0,-0.9140358521584159,-0.5835768137821783,2.1136557767370313e-08,0.32423030999999997,-0.35506314,9.77018121,0.002339,-0.001979,0.002768,0.14609215642538373
1757069488.6909504,0.0,0.0,0.0,0.0,0.0,-0.9140358521584159,-0.5835768137821783,1.9849753346097162e-08,0.31000581,-0.33829785,9.779314320000001,0.00237,-0.000804,0.004418,0.14618190982688
1757069488.7123933,0.0,0.0,0.0,0.0,0.0,-0.9140358521584159,-0.5835768137821783,1.9849753346097162e-08,0.30625839,-0.34683255,9.767493270000001,0.002891,0.000791,0.003423,0.15255455516486008
1757069488.7324364,0.0,0.0,0.0,0.0,0.0,-0.9140358521584159,-0.5835768137821783,1.7470796071374814e-08,0.33095997000000005,-0.34967745000000006,9.78245352,0.002141,0.000183,0.005708,0.14582644594139818
1757069488.7531931,0.0,0.0,0.0,0.0,0.0,-0.9140358521584159,-0.5835768137821783,1.6408629973669706e-08,0.33425613,-0.35671122,9.78201207,0.002157,-0.000588,0.004827,0.1462017012627551
1757069488.7740743,0.0,0.0,0.0,0.0,0.0,-0.9140358521584159,-0.5835768137821783,1.541076355296287e-08,0.31434183000000004,-0.34279083000000005,9.78245352,0.003596,0.001002,0.004229,0.1463617707727796
1757069488.794668,0.0,0.0,0.0,0.0,0.0,-0.9140358521584159,-0.5835768137821783,1.4453660918093174e-08,0.32931189000000005,-0.34906923,9.77257485,0.004647,0.00087,0.004224,0.1468737032518015
1757069488.8149986,0.0,0.0,0.0,0.0,0.0,-0.9140358521584159,-0.5835768137821783,1.3575838692251654e-08,0.31314501,-0.3529638,9.76764042,0.00495,-0.00155,0.003192,0.14620848407955056
1757069488.8354838,0.0,0.0,0.0,0.0,0.0,-0.9140358521584159,-0.5835768137821783,1.2731185465877833e-08,0.32198382,-0.34128990000000003,9.787250610000001,0.004262,-0.000877,0.003285,0.1469804092875475
1757069488.856113,0.0,0.0,0.0,0.0,0.0,-0.9140358521584159,-0.5835768137821783,1.195643273772989e-08,0.31734369000000007,-0.35371917,9.77706783,0.004513,-0.001699,0.003812,0.14633580041002398
1757069488.8761902,0.0,0.0,0.0,0.0,0.0,-0.9140358521584159,-0.5835768137821783,1.1227784167478687e-08,0.31285071000000003,-0.35401347000000005,9.77601816,0.003108,-0.001135,0.004785,0.14664072833659905
1757069488.896876,0.0,0.0,0.0,0.0,0.0,-0.9140358521584159,-0.5835768137821783,1.0545451041102437e-08,0.31718673000000003,-0.34518447,9.77751909,0.002229,-0.000411,0.002231,0.14668417403262354
1757069488.9175525,0.0,0.0,0.0,0.0,0.0,-0.9140358521584159,-0.5835768137821783,9.883435666834451e-09,0.32512302,-0.34503732000000004,9.77692068,0.002296,-0.001198,0.005056,0.14743684633771534
1757069488.937698,0.0,0.0,0.0,0.0,0.0,-0.9140358521584159,-0.5835768137821783,9.282868630192531e-09,0.31988447999999997,-0.35131572,9.768238830000001,0.001492,-0.000521,0.004149,0.14642527340268838
1757069488.9576724,0.0,0.0,0.0,0.0,0.0,-0.9140358521584159,-0.5835768137821783,8.718474363167095e-09,0.32302368,-0.34398765000000003,9.77646942,0.00331,0.001576,0.002745,0.14681630982191454
1757069488.9778874,0.0,0.0,0.0,0.0,0.0,-0.9140358521584159,-0.5835768137821783,8.182599362371077e-09,0.33799374,-0.347274,9.78021684,0.003074,0.001378,0.003513,0.14719512827862827
1757069488.9991324,0.0,0.0,0.0,0.0,0.0,-0.9140358521584159,-0.5835768137821783,7.680288507645423e-09,0.32302368,-0.35341506000000006,9.784405710000001,0.004042,-0.00133,0.003432,0.1471319961476396
1757069489.0202253,0.0,0.0,0.0,0.0,0.0,-0.9140358521584159,-0.5835768137821783,7.213250745826071e-09,0.31959018000000006,-0.35655426000000007,9.77347737,0.002259,-0.001476,0.003638,0.14697264368445018
1757069489.0408607,0.0,0.0,0.0,0.0,0.0,-0.9140358521584159,-0.5835768137821783,6.77146318824921e-09,0.32167971,-0.35027586000000005,9.76704201,0.004032,-0.001652,0.003649,0.15084691658064026
1757069489.0620425,0.0,0.0,0.0,0.0,0.0,-0.9140358521584159,-0.5835768137821783,6.359981104776431e-09,0.32167971,-0.35027586000000005,9.76704201,0.004032,-0.001652,0.003649,0.14713971633925058
1757069489.0857127,0.0,0.0,0.0,0.0,0.0,-0.9140358521584159,-0.5835768137821783,5.6051694989536395e-09,0.32287653,-0.3498246,9.7781175,0.002842,-0.000822,0.005988,0.14726987701750643
1757069489.106072,0.0,0.0,0.0,0.0,0.0,-0.9140358521584159,-0.5835768137821783,5.6051694989536395e-09,0.32287653,-0.3498246,9.7781175,0.002842,-0.000822,0.005988,0.14726987701750643
1757069489.1265383,0.0,0.0,0.0,0.0,0.0,-0.9140358521584159,-0.5835768137821783,4.934914538616889e-09,0.32901759,-0.34159401,9.78529842,0.001929,0.000138,0.003327,0.14703314943049786
1757069489.1469119,0.0,0.0,0.0,0.0,0.0,-0.9140358521584159,-0.5835768137821783,4.634653372344417e-09,0.32003163,-0.34817652000000004,9.775566900000001,0.002273,0.0006,0.004344,0.147495751822897
1757069489.1672535,0.0,0.0,0.0,0.0,0.0,-0.9140358521584159,-0.5835768137821783,4.352923917142055e-09,0.33066567,-0.35461188,9.77482134,0.002798,0.001422,0.003999,0.14760675552527583
1757069489.1881135,0.0,0.0,0.0,0.0,0.0,-0.9140358521584159,-0.5835768137821783,4.352923917142055e-09,0.31718673000000003,-0.35491599000000007,9.77092677,0.002818,-0.001168,0.003961,0.15321105981409944
1757069489.208582,0.0,0.0,0.0,0.0,0.0,-0.9140358521584159,-0.5835768137821783,3.8343566527185946e-09,0.30850488,-0.34038738,9.77333022,0.003318,0.000433,0.004369,0.14749782046871573
1757069489.229281,0.0,0.0,0.0,0.0,0.0,-0.9140358521584159,-0.5835768137821783,3.600620509101595e-09,0.32841918000000003,-0.35356221,9.77377167,0.003082,-0.001991,0.003555,0.1478320156360457
1757069489.2499182,0.0,0.0,0.0,0.0,0.0,-0.9140358521584159,-0.5835768137821783,3.3798555857242666e-09,0.33141123,-0.35207109,9.77706783,0.004187,-0.001927,0.005344,0.1480481089914687
1757069489.2702098,0.0,0.0,0.0,0.0,0.0,-0.9140358521584159,-0.5835768137821783,3.1737855538157398e-09,0.31734369000000007,-0.33949467,9.77706783,0.002133,-0.001693,0.004144,0.14793478787502537
1757069489.2909467,0.0,0.0,0.0,0.0,0.0,-0.9140358521584159,-0.5835768137821783,2.980304876670805e-09,0.32631984,-0.35431757999999997,9.77886306,0.00247,-0.00118,0.004971,0.14804989148321995
1757069489.3113,0.0,0.0,0.0,0.0,0.0,-0.9140358521584159,-0.5835768137821783,2.980304876670805e-09,0.32631984,-0.35431757999999997,9.77886306,0.00247,-0.00118,0.004971,0.14804989148321995
1757069489.3350246,0.0,0.0,0.0,0.0,0.0,-0.9140358521584159,-0.5835768137821783,2.6141283280049398e-09,0.32258223,-0.35251254000000004,9.77362452,0.002889,-0.000829,0.002451,0.1478742246370272
1757069489.3554068,0.0,0.0,0.0,0.0,0.0,-0.9140358521584159,-0.5835768137821783,2.456521078293401e-09,0.33590421000000004,-0.34787241,9.77826465,0.001469,0.000305,0.004133,0.147479214850364
1757069489.3760173,0.0,0.0,0.0,0.0,0.0,-0.9140358521584159,-0.5835768137821783,2.307925588542279e-09,0.33605136,-0.34473321,9.779314320000001,0.002747,0.000444,0.00461,0.14815515704510931
1757069489.397584,0.0,0.0,0.0,0.0,0.0,-0.9140358521584159,-0.5835768137821783,2.165891923084215e-09,0.3150972,-0.34473321,9.779314320000001,0.003486,-0.000656,0.005472,0.14870569561092944
1757069489.4178603,0.0,0.0,0.0,0.0,0.0,-0.9140358521584159,-0.5835768137821783,2.034403418131817e-09,0.31943322,-0.35341506000000006,9.77871591,0.003404,-0.000267,0.004427,0.14831767940747545
1757069489.438574,0.0,0.0,0.0,0.0,0.0,-0.9140358521584159,-0.5835768137821783,1.9091855860265193e-09,0.32602554,-0.34578288,9.77721498,0.00506,0.001022,0.003076,0.1487975837152056
1757069489.460328,0.0,0.0,0.0,0.0,0.0,-0.9140358521584159,-0.5835768137821783,1.7932821818315442e-09,0.32302368,-0.34683255,9.779010210000001,0.004326,-0.000581,0.003713,0.15231655054883336
1757069489.4807785,0.0,0.0,0.0,0.0,0.0,-0.9140358521584159,-0.5835768137821783,1.6846575786889154e-09,0.32827203,-0.3376994400000001,9.78814332,0.002684,-0.000795,0.00584,0.1528089764883461
1757069489.503121,0.0,0.0,0.0,0.0,0.0,-0.9140358521584159,-0.5835768137821783,1.582322865926568e-09,0.32227812,-0.35760393,9.77452704,0.002508,-0.001114,0.004463,0.15337713799327463
1757069489.527168,0.0,0.0,0.0,0.0,0.0,-0.9140358521584159,-0.5835768137821783,1.3946016113409037e-09,0.32677110000000004,-0.34922619,9.77287896,0.002843,-0.000578,0.003403,0.14897507890274436
1757069489.5487165,0.0,0.0,0.0,0.0,0.0,-0.9140358521584159,-0.5835768137821783,1.3089031610894931e-09,0.32332779000000006,-0.34488036,9.787996170000001,0.000953,-5e-05,0.005057,0.1491303998101342
1757069489.5691478,0.0,0.0,0.0,0.0,0.0,-0.9140358521584159,-0.5835768137821783,1.2293944452391818e-09,0.33260805,-0.35776089000000005,9.77273181,0.003113,0.00017,0.003604,0.14889031054635204
1757069489.589646,0.0,0.0,0.0,0.0,0.0,-0.9140358521584159,-0.5835768137821783,1.1538378353294338e-09,0.32856633,-0.34802937000000006,9.784405710000001,0.001492,-0.000848,0.005345,0.14933476141309643
1757069489.6103761,0.0,0.0,0.0,0.0,0.0,-0.9140358521584159,-0.5835768137821783,1.0836619864746755e-09,0.31479309,-0.35386632,9.759409830000001,0.00447,0.000299,0.003952,0.149080873872343
1757069489.631104,0.0,0.0,0.0,0.0,0.0,-0.9140358521584159,-0.5835768137821783,1.0167817697428698e-09,0.31854051,-0.3555144,9.7724277,0.002879,-0.0006,0.005081,0.14955968336648243
1757069489.6515431,0.0,0.0,0.0,0.0,0.0,-0.9140358521584159,-0.5835768137821783,9.54949667820368e-10,0.33036156,-0.35535744,9.76508982,0.004577,-0.00188,0.004511,0.14916989177479006
1757069489.6722376,0.0,0.0,0.0,0.0,0.0,-0.9140358521584159,-0.5835768137821783,8.968788066165813e-10,0.32437746,-0.36583452,9.77333022,0.004194,-0.000697,0.004228,0.1493833569726466
1757069489.6926773,0.0,0.0,0.0,0.0,0.0,-0.9140358521584159,-0.5835768137821783,8.420165398975388e-10,0.31404753,-0.34533162,9.767189160000001,0.00347,-0.000846,0.003827,0.14962443343420206
1757069489.7162325,0.0,0.0,0.0,0.0,0.0,-0.9140358521584159,-0.5835768137821783,7.890187055497259e-10,0.33170553,-0.34593003000000005,9.7692885,0.003805,-0.001038,0.004239,0.15021001527326497
1757069489.7371361,0.0,0.0,0.0,0.0,0.0,-0.9140358521584159,-0.5835768137821783,7.410081050126384e-10,0.33186249,-0.36075294,9.76060665,0.001865,-0.001121,0.002708,0.14919427422460982
1757069489.758955,0.0,0.0,0.0,0.0,0.0,-0.9140358521584159,-0.5835768137821783,6.959314604196182e-10,0.31015296,-0.34593003000000005,9.78185511,0.002818,-0.000427,0.003275,0.149603056760249
1757069489.7790368,0.0,0.0,0.0,0.0,0.0,-0.9140358521584159,-0.5835768137821783,6.535729285738254e-10,0.31015296,-0.34593003000000005,9.78185511,0.002818,-0.000427,0.003275,0.1497947745248594
1757069489.7994242,0.0,0.0,0.0,0.0,0.0,-0.9140358521584159,-0.5835768137821783,6.535729285738254e-10,0.31015296,-0.34593003000000005,9.78185511,0.002818,-0.000427,0.003275,0.1497947745248594
1757069489.8202794,0.0,0.0,0.0,0.0,0.0,-0.9140358521584159,-0.5835768137821783,6.535729285738254e-10,0.31015296,-0.34593003000000005,9.78185511,0.002818,-0.000427,0.003275,0.1497947745248594
1757069489.844855,0.0,0.0,0.0,0.0,0.0,-0.9140358521584159,-0.5835768137821783,5.331398201652766e-10,0.31344912,-0.34667559000000003,9.775723860000001,0.004828,-0.001637,0.005351,0.14936570329983181
1757069489.8653057,0.0,0.0,0.0,0.0,0.0,-0.9140358521584159,-0.5835768137821783,5.331398201652766e-10,0.31344912,-0.34667559000000003,9.775723860000001,0.004828,-0.001637,0.005351,0.14936570329983181
1757069489.8855941,0.0,0.0,0.0,0.0,0.0,-0.9140358521584159,-0.5835768137821783,5.331398201652766e-10,0.31344912,-0.34667559000000003,9.775723860000001,0.004828,-0.001637,0.005351,0.14936570329983181
1757069489.9058719,0.0,0.0,0.0,0.0,0.0,-0.9140358521584159,-0.5835768137821783,5.331398201652766e-10,0.31344912,-0.34667559000000003,9.775723860000001,0.004828,-0.001637,0.005351,0.14936570329983181
1757069489.9273443,0.0,0.0,0.0,0.0,0.0,-0.9140358521584159,-0.5835768137821783,4.943044629254728e-10,0.31344912,-0.33710102999999997,9.787544910000001,0.004753,-0.002056,0.004565,0.1543198025343948
1757069489.949682,0.0,0.0,0.0,0.0,0.0,-0.9140358521584159,-0.5835768137821783,4.020166852028608e-10,0.32138541,-0.35506314,9.775419750000001,0.002858,-0.00225,0.005187,0.14963346736572625
1757069489.971116,0.0,0.0,0.0,0.0,0.0,-0.9140358521584159,-0.5835768137821783,3.5479179670426364e-10,0.32602554,-0.36044883,9.75805605,0.000853,-0.000627,0.004069,0.15129804955582296
1757069489.9926922,0.0,0.0,0.0,0.0,0.0,-0.9140358521584159,-0.5835768137821783,3.150358658679787e-10,0.31854051,-0.34128990000000003,9.791135370000001,0.001673,0.001306,0.005089,0.15019433680219507
1757069490.0128906,0.0,0.0,0.0,0.0,0.0,-0.9140358521584159,-0.5835768137821783,2.9714669575001114e-10,0.31479309,-0.34054434000000006,9.772280550000001,0.003577,-8.1e-05,0.004185,0.1501708498703296
1757069490.0330582,0.0,0.0,0.0,0.0,0.0,-0.9140358521584159,-0.5835768137821783,2.8005171464291535e-10,0.32363190000000003,-0.35970327,9.78110955,0.002408,0.00028,0.004659,0.15078166799594708
1757069490.0530615,0.0,0.0,0.0,0.0,0.0,-0.9140358521584159,-0.5835768137821783,2.639252765637322e-10,0.31854051,-0.34503732000000004,9.77692068,0.005247,-0.000516,0.004547,0.15080165365009404
1757069490.0737338,0.0,0.0,0.0,0.0,0.0,-0.9140358521584159,-0.5835768137821783,2.484835237344385e-10,0.31689243,-0.34952049,9.78021684,0.003829,-0.000252,0.003789,0.1511656912559886
1757069490.0941212,0.0,0.0,0.0,0.0,0.0,-0.9140358521584159,-0.5835768137821783,2.339899963986025e-10,0.31973733,-0.36374499000000005,9.77392863,0.002605,0.000774,0.003364,0.15098608025428323
1757069490.1161523,0.0,0.0,0.0,0.0,0.0,-0.9140358521584159,-0.5835768137821783,2.339899963986025e-10,0.3150972,-0.35910486,9.771976440000001,0.00262,-0.001312,0.003801,0.15839405738806325
1757069490.1367726,0.0,0.0,0.0,0.0,0.0,-0.9140358521584159,-0.5835768137821783,2.065328241964735e-10,0.32272938,-0.34473321,9.77407578,0.004208,-0.000482,0.003276,0.15084608330695504
1757069490.1567667,0.0,0.0,0.0,0.0,0.0,-0.9140358521584159,-0.5835768137821783,1.9436592158263654e-10,0.33006726000000003,-0.34877493000000004,9.77407578,0.001535,-0.000254,0.004707,0.15094493124989722
1757069490.1773047,0.0,0.0,0.0,0.0,0.0,-0.9140358521584159,-0.5835768137821783,1.8283432567197918e-10,0.32138541,-0.35685837000000004,9.795775500000001,0.002733,-0.000801,0.003901,0.1513740942334087
1757069490.1979916,0.0,0.0,0.0,0.0,0.0,-0.9140358521584159,-0.5835768137821783,1.7175700799358458e-10,0.32736951,-0.35281665,9.767934720000001,0.004122,0.000555,0.003802,0.15185303788046492
1757069490.2189415,0.0,0.0,0.0,0.0,0.0,-0.9140358521584159,-0.5835768137821783,1.6152546963075396e-10,0.32153256,-0.36838512000000007,9.76269618,0.002597,0.000235,0.004413,0.15132371716724746
1757069490.240385,0.0,0.0,0.0,0.0,0.0,-0.9140358521584159,-0.5835768137821783,1.5166277261473752e-10,0.31598991,-0.34338924000000004,9.7664436,0.005423,-0.00081,0.004535,0.15456216236959666
1757069490.26548,0.0,0.0,0.0,0.0,0.0,-0.9140358521584159,-0.5835768137821783,1.3404157462228862e-10,0.32766381,-0.33934752,9.76374585,0.003076,-0.000463,0.003381,0.1517977714539102
1757069490.2855754,0.0,0.0,0.0,0.0,0.0,-0.9140358521584159,-0.5835768137821783,1.259967532832312e-10,0.32811507,-0.35207109,9.75716334,0.005519,0.000628,0.003745,0.15185633041072163
1757069490.3085532,0.0,0.0,0.0,0.0,0.0,-0.9140358521584159,-0.5835768137821783,1.1832835504566544e-10,0.32287653,-0.34683255,9.780815250000002,0.001915,0.000594,0.003963,0.15223052561210232
1757069490.3296082,0.0,0.0,0.0,0.0,0.0,-0.9140358521584159,-0.5835768137821783,1.1121007912013836e-10,0.31988447999999997,-0.34293798000000003,9.7724277,0.004272,-0.001537,0.004834,0.15190078393699835
1757069490.3501465,0.0,0.0,0.0,0.0,0.0,-0.9140358521584159,-0.5835768137821783,1.0443244079462854e-10,0.3270654,-0.3583593,9.78230637,0.000789,-0.001302,0.005425,0.15234880104993953
1757069490.3708901,0.0,0.0,0.0,0.0,0.0,-0.9140358521584159,-0.5835768137821783,9.813133563279907e-11,0.32482872,-0.35386632,9.771682140000001,0.001735,2.2e-05,0.003676,0.15208974070786324
1757069490.3914514,0.0,0.0,0.0,0.0,0.0,-0.9140358521584159,-0.5835768137821783,9.218965889921803e-11,0.320787,-0.34802937000000006,9.771682140000001,0.00341,0.001077,0.003365,0.1523301514131922
1757069490.4119074,0.0,0.0,0.0,0.0,0.0,-0.9140358521584159,-0.5835768137821783,8.660826215394469e-11,0.32946885,-0.35027586000000005,9.775723860000001,0.002772,0.000239,0.0039,0.15239213092555084
1757069490.4328763,0.0,0.0,0.0,0.0,0.0,-0.9140358521584159,-0.5835768137821783,8.125983008571862e-11,0.31778514,-0.34817652000000004,9.76584519,0.003575,-0.000769,0.005973,0.15287454105353493
1757069490.453402,0.0,0.0,0.0,0.0,0.0,-0.9140358521584159,-0.5835768137821783,7.633013293248754e-11,0.31524435,-0.35925201,9.77677353,0.003576,0.000627,0.005054,0.15234608234258534
1757069490.4734187,0.0,0.0,0.0,0.0,0.0,-0.9140358521584159,-0.5835768137821783,7.166832749967669e-11,0.32557428000000005,-0.34518447,9.767493270000001,0.005056,-0.000879,0.004427,0.15272673546075907
1757069490.494228,0.0,0.0,0.0,0.0,0.0,-0.9140358521584159,-0.5835768137821783,6.731715598251496e-11,0.32841918000000003,-0.34442910000000004,9.77677353,0.003539,-0.001041,0.004792,0.15264534740910934
1757069490.5149488,0.0,0.0,0.0,0.0,0.0,-0.9140358521584159,-0.5835768137821783,6.312051256928774e-11,0.32796792,-0.35625996000000004,9.771378030000001,0.00492,-0.001427,0.002967,0.15332503499044545
1757069490.5356207,0.0,0.0,0.0,0.0,0.0,-0.9140358521584159,-0.5835768137821783,5.928832677166093e-11,0.3239262,-0.3501189,9.771976440000001,0.001939,-0.000604,0.004665,0.1525429018648846
1757069490.5562534,0.0,0.0,0.0,0.0,0.0,-0.9140358521584159,-0.5835768137821783,5.5689911069737495e-11,0.33246090000000006,-0.34488036,9.78515127,0.001792,-0.001198,0.004702,0.15287116759140756
1757069490.5763168,0.0,0.0,0.0,0.0,0.0,-0.9140358521584159,-0.5835768137821783,5.2307312821568564e-11,0.32407335000000004,-0.35955612,9.77617512,0.000921,0.000342,0.004561,0.1530482201970685
1757069490.5966194,0.0,0.0,0.0,0.0,0.0,-0.9140358521584159,-0.5835768137821783,5.2307312821568564e-11,0.32407335000000004,-0.35955612,9.77617512,0.000921,0.000342,0.004561,0.1530482201970685
1757069490.6172428,0.0,0.0,0.0,0.0,0.0,-0.9140358521584159,-0.5835768137821783,4.584451269736399e-11,0.33170553,-0.34518447,9.77781339,0.002836,-0.00032,0.004467,0.15297496492781945
1757069490.6377738,0.0,0.0,0.0,0.0,0.0,-0.9140358521584159,-0.5835768137821783,4.302386542798308e-11,0.31718673000000003,-0.36374499000000005,9.77018121,0.003147,-3.3e-05,0.003097,0.15296518275192056
1757069490.6582296,0.0,0.0,0.0,0.0,0.0,-0.9140358521584159,-0.5835768137821783,4.0435863004116284e-11,0.32198382,-0.35625996000000004,9.76659075,0.002979,-0.002716,0.004766,0.1528164177786194
1757069490.6795154,0.0,0.0,0.0,0.0,0.0,-0.9140358521584159,-0.5835768137821783,3.7982358874054196e-11,0.32602554,-0.34772526,9.77661657,0.003095,-0.000681,0.005109,0.15700574305924556
1757069490.700068,0.0,0.0,0.0,0.0,0.0,-0.9140358521584159,-0.5835768137821783,3.569415631912452e-11,0.32602554,-0.34772526,9.77661657,0.003095,-0.000681,0.005109,0.15341975252295964
1757069490.7201495,0.0,0.0,0.0,0.0,0.0,-0.9140358521584159,-0.5835768137821783,3.350469520728019e-11,0.31943322,-0.34712685000000004,9.787544910000001,0.00393,-9.2e-05,0.003751,0.15710439071170237
1757069490.7441847,0.0,0.0,0.0,0.0,0.0,-0.9140358521584159,-0.5835768137821783,2.9571943207779865e-11,0.33036156,-0.33844500000000005,9.77302611,0.003229,0.000707,0.005547,0.15378697858584
1757069490.7645156,0.0,0.0,0.0,0.0,0.0,-0.9140358521584159,-0.5835768137821783,2.7779708213506104e-11,0.33410898,-0.35730963,9.77856876,0.003118,-0.000328,0.004595,0.15391651572768267
1757069490.7884843,0.0,0.0,0.0,0.0,0.0,-0.9140358521584159,-0.5835768137821783,2.6072856347149836e-11,0.32347494000000004,-0.35999757000000004,9.7667379,0.003046,-0.001325,0.005532,0.1542800353464182
1757069490.8086743,0.0,0.0,0.0,0.0,0.0,-0.9140358521584159,-0.5835768137821783,2.449079066089162e-11,0.33006726000000003,-0.34578288,9.76030254,0.003027,1.2e-05,0.004432,0.15393601798124285
1757069490.8287232,0.0,0.0,0.0,0.0,0.0,-0.9140358521584159,-0.5835768137821783,2.449079066089162e-11,0.32332779000000006,-0.3498246,9.75716334,0.003203,0.000478,0.00213,0.15393601798124285
1757069490.848812,0.0,0.0,0.0,0.0,0.0,-0.9140358521584159,-0.5835768137821783,2.1564288131767278e-11,0.33246090000000006,-0.34607718,9.77452704,0.003875,0.000679,0.004416,0.15381426845445498
1757069490.8689528,0.0,0.0,0.0,0.0,0.0,-0.9140358521584159,-0.5835768137821783,2.025445752306303e-11,0.33050871,-0.35087427000000004,9.77437008,0.004663,-0.000339,0.004512,0.1542403061149774
1757069490.8897152,0.0,0.0,0.0,0.0,0.0,-0.9140358521584159,-0.5835768137821783,1.9027021904584746e-11,0.33619851000000006,-0.35461188,9.76988691,0.003901,-0.000753,0.004351,0.15435185698897388
1757069490.9102361,0.0,0.0,0.0,0.0,0.0,-0.9140358521584159,-0.5835768137821783,1.7860386990483042e-11,0.32452461,-0.35326791,9.77287896,0.003332,0.000209,0.003826,0.1547327453288787
1757069490.930343,0.0,0.0,0.0,0.0,0.0,-0.9140358521584159,-0.5835768137821783,1.6775365776916222e-11,0.3239262,-0.33155838000000004,9.774968490000001,0.002671,-0.001172,0.005066,0.1544979650581928
1757069490.9510262,0.0,0.0,0.0,0.0,0.0,-0.9140358521584159,-0.5835768137821783,1.5753242239401225e-11,0.31404753,-0.34683255,9.7781175,0.002592,-0.000292,0.002798,0.15472344494264342
1757069490.971298,0.0,0.0,0.0,0.0,0.0,-0.9140358521584159,-0.5835768137821783,1.4795230320861255e-11,0.31479309,-0.35910486,9.77617512,0.002027,-0.000587,0.004922,0.1547547387073303
1757069490.9920375,0.0,0.0,0.0,0.0,0.0,-0.9140358521584159,-0.5835768137821783,1.3881558138699228e-11,0.31913892,-0.3555144,9.780511140000002,0.002598,-0.00115,0.005469,0.15517780600698672
1757069491.0129514,0.0,0.0,0.0,0.0,0.0,-0.9140358521584159,-0.5835768137821783,1.303802083667641e-11,0.32003163,-0.34458605999999997,9.77512545,0.003126,0.000706,0.004669,0.15474176257607739
1757069491.033709,0.0,0.0,0.0,0.0,0.0,-0.9140358521584159,-0.5835768137821783,1.222880477129326e-11,0.33260805,-0.35416062000000004,9.76599234,0.003609,-5.4e-05,0.004642,0.1554161027432467
1757069491.0545814,0.0,0.0,0.0,0.0,0.0,-0.9140358521584159,-0.5835768137821783,1.1484922394987908e-11,0.31569561,-0.36254817,9.77257485,0.002435,0.000996,0.003244,0.15486131366587635
1757069491.0755901,0.0,0.0,0.0,0.0,0.0,-0.9140358521584159,-0.5835768137821783,1.0781817016133178e-11,0.33335360999999997,-0.34563573000000003,9.77018121,0.002801,-0.00088,0.003348,0.15527843908897854
1757069491.0957208,0.0,0.0,0.0,0.0,0.0,-0.9140358521584159,-0.5835768137821783,1.0124901632699657e-11,0.32363190000000003,-0.35535744,9.77347737,0.004288,-0.000556,0.003274,0.15524142749948738
1757069491.1163423,0.0,0.0,0.0,0.0,0.0,-0.9140358521584159,-0.5835768137821783,9.499522587584476e-12,0.32153256,-0.3583593,9.77333022,0.00249,0.000771,0.004159,0.15566543965235824
1757069491.136789,0.0,0.0,0.0,0.0,0.0,-0.9140358521584159,-0.5835768137821783,8.921117486423176e-12,0.31359627000000007,-0.35730963,9.77737194,0.002411,-0.000179,0.002062,0.15529714603619596
1757069491.1588914,0.0,0.0,0.0,0.0,0.0,-0.9140358521584159,-0.5835768137821783,8.370005589638178e-12,0.32287653,-0.3583593,9.76883724,0.001715,8.2e-05,0.006111,0.15879466606969314
1757069491.179506,0.0,0.0,0.0,0.0,0.0,-0.9140358521584159,-0.5835768137821783,7.861617771299188e-12,0.32287653,-0.3583593,9.76883724,0.001715,8.2e-05,0.006111,0.15540784981151817
1757069491.2036896,0.0,0.0,0.0,0.0,0.0,-0.9140358521584159,-0.5835768137821783,6.93047494912961e-12,0.32557428000000005,-0.34607718,9.775723860000001,0.001961,-0.000425,0.002573,0.15575103736540385
1757069491.2241392,0.0,0.0,0.0,0.0,0.0,-0.9140358521584159,-0.5835768137821783,6.93047494912961e-12,0.32557428000000005,-0.34607718,9.775723860000001,0.001961,-0.000425,0.002573,0.15575103736540385
1757069491.2444866,0.0,0.0,0.0,0.0,0.0,-0.9140358521584159,-0.5835768137821783,6.09897776598729e-12,0.32122845000000005,-0.35880075000000006,9.767934720000001,0.003807,1.9e-05,0.005816,0.1555449031805872
1757069491.2646363,0.0,0.0,0.0,0.0,0.0,-0.9140358521584159,-0.5835768137821783,5.7286067423203335e-12,0.32033574000000004,-0.34743096000000007,9.77048532,0.003912,0.000434,0.005173,0.15591282894882408
1757069491.2853484,0.0,0.0,0.0,0.0,0.0,-0.9140358521584159,-0.5835768137821783,5.379618935336644e-12,0.32916474,-0.34906923,9.78275763,0.004772,-0.000495,0.00436,0.15619486920416004
1757069491.3062646,0.0,0.0,0.0,0.0,0.0,-0.9140358521584159,-0.5835768137821783,5.379618935336644e-12,0.32916474,-0.34906923,9.78275763,0.004772,-0.000495,0.00436,0.15619486920416004
1757069491.3266459,0.0,0.0,0.0,0.0,0.0,-0.9140358521584159,-0.5835768137821783,4.737372596821574e-12,0.32482872,-0.35161983,9.768385980000001,0.00289,-0.001161,0.005557,0.1559555697545021
1757069491.3476317,0.0,0.0,0.0,0.0,0.0,-0.9140358521584159,-0.5835768137821783,4.448814497716668e-12,0.32332779000000006,-0.35461188,9.78305193,0.004685,-0.001258,0.003362,0.15640020612020455
1757069491.3686821,0.0,0.0,0.0,0.0,0.0,-0.9140358521584159,-0.5835768137821783,4.177650031547666e-12,0.31928607000000003,-0.34683255,9.77661657,0.002821,-0.000618,0.004157,0.156544741040376
1757069491.389416,0.0,0.0,0.0,0.0,0.0,-0.9140358521584159,-0.5835768137821783,3.919021994513845e-12,0.32272938,-0.36059598,9.76300029,0.002266,-0.000325,0.004287,0.15695892261531236
1757069491.4095862,0.0,0.0,0.0,0.0,0.0,-0.9140358521584159,-0.5835768137821783,3.680354325549709e-12,0.32287653,-0.35341506000000006,9.775419750000001,0.002188,0.000101,0.004204,0.15651292467058942
1757069491.4333274,0.0,0.0,0.0,0.0,0.0,-0.9140358521584159,-0.5835768137821783,3.4501128450051104e-12,0.33066567,-0.34442910000000004,9.772280550000001,0.00326,0.000184,0.003008,0.15730283850620236
1757069491.4541557,0.0,0.0,0.0,0.0,0.0,-0.9140358521584159,-0.5835768137821783,3.23886926793805e-12,0.32617269000000004,-0.33679692000000006,9.77826465,0.002739,-0.000318,0.003828,0.15666267431562492
1757069491.474431,0.0,0.0,0.0,0.0,0.0,-0.9140358521584159,-0.5835768137821783,3.0422578207450584e-12,0.31120263000000004,-0.35790804000000004,9.77362452,0.002636,-0.000382,0.003631,0.15674938551371842
1757069491.4954462,0.0,0.0,0.0,0.0,0.0,-0.9140358521584159,-0.5835768137821783,2.8574048264428828e-12,0.31898196000000006,-0.35341506000000006,9.76988691,0.0036,0.000227,0.003391,0.15702101308611155
1757069491.5158303,0.0,0.0,0.0,0.0,0.0,-0.9140358521584159,-0.5835768137821783,2.679230413076397e-12,0.33021441000000007,-0.35475903000000003,9.76659075,0.003482,-0.001083,0.004159,0.15766874333972525
1757069491.5370991,0.0,0.0,0.0,0.0,0.0,-0.9140358521584159,-0.5835768137821783,2.5165449919758268e-12,0.32512302,-0.35820234,9.77856876,0.003215,-0.000706,0.003702,0.1568900726095985
1757069491.5571322,0.0,0.0,0.0,0.0,0.0,-0.9140358521584159,-0.5835768137821783,2.3629659665394445e-12,0.31838355,-0.34473321,9.77856876,0.003141,-0.000487,0.005513,0.15734322629563863
1757069491.5770972,0.0,0.0,0.0,0.0,0.0,-0.9140358521584159,-0.5835768137821783,2.2190501756279905e-12,0.32213097,-0.3555144,9.78110955,0.002986,-0.001301,0.005476,0.15740217099345394
1757069491.5974004,0.0,0.0,0.0,0.0,0.0,-0.9140358521584159,-0.5835768137821783,2.0812956908432338e-12,0.33200964,-0.34398765000000003,9.78036399,0.002978,-3.5e-05,0.004577,0.15791143476176622
1757069491.6174464,0.0,0.0,0.0,0.0,0.0,-0.9140358521584159,-0.5835768137821783,1.9544996351311922e-12,0.32946885,-0.35491599000000007,9.77766624,0.00142,0.000461,0.004083,0.15738128827131287
1757069491.6380422,0.0,0.0,0.0,0.0,0.0,-0.9140358521584159,-0.5835768137821783,1.83215698213808e-12,0.31943322,-0.35281665,9.77333022,0.002015,0.000957,0.004751,0.15819931973390267
1757069491.6583526,0.0,0.0,0.0,0.0,0.0,-0.9140358521584159,-0.5835768137821783,1.7184737736608867e-12,0.32856633,-0.36075294,9.77077962,0.001451,0.000215,0.003023,0.1578543575581489
1757069491.6784317,0.0,0.0,0.0,0.0,0.0,-0.9140358521584159,-0.5835768137821783,1.6136922993166132e-12,0.31718673000000003,-0.35102142000000003,9.768690090000002,0.002022,-0.000516,0.003814,0.16100436946404414
1757069491.698887,0.0,0.0,0.0,0.0,0.0,-0.9140358521584159,-0.5835768137821783,1.5161939010178666e-12,0.31718673000000003,-0.35102142000000003,9.768690090000002,0.002022,-0.000516,0.003814,0.1576906516886357
1757069491.7190928,0.0,0.0,0.0,0.0,0.0,-0.9140358521584159,-0.5835768137821783,1.4227603503810678e-12,0.32617269000000004,-0.35431757999999997,9.77063247,0.004506,-0.000394,0.004224,0.16131943858434084
1757069491.7397563,0.0,0.0,0.0,0.0,0.0,-0.9140358521584159,-0.5835768137821783,1.336564518414404e-12,0.32617269000000004,-0.35431757999999997,9.77063247,0.004506,-0.000394,0.004224,0.15791573517909524
1757069491.7631776,0.0,0.0,0.0,0.0,0.0,-0.9140358521584159,-0.5835768137821783,1.178399768444476e-12,0.32677110000000004,-0.34652844000000005,9.77333022,0.002785,-0.001424,0.002903,0.1581344342600033
1757069491.784736,0.0,0.0,0.0,0.0,0.0,-0.9140358521584159,-0.5835768137821783,1.1066198925887825e-12,0.3153915,-0.33799374,9.77092677,0.002743,0.000161,0.003916,0.158462396621382
1757069491.804878,0.0,0.0,0.0,0.0,0.0,-0.9140358521584159,-0.5835768137821783,1.0392744664446487e-12,0.31524435,-0.3529638,9.76599234,0.002841,-0.00132,0.003503,0.15851206502089263
1757069491.826352,0.0,0.0,0.0,0.0,0.0,-0.9140358521584159,-0.5835768137821783,1.0392744664446487e-12,0.31854051,-0.36104724000000005,9.755515260000001,0.00283,0.000629,0.004764,0.16402338081613094
1757069491.846504,0.0,0.0,0.0,0.0,0.0,-0.9140358521584159,-0.5835768137821783,9.154631981413284e-13,0.31554846000000003,-0.34906923,9.765246780000002,0.003521,0.001071,0.003503,0.15841858077696813
1757069491.8670297,0.0,0.0,0.0,0.0,0.0,-0.9140358521584159,-0.5835768137821783,8.599134843899676e-13,0.32048288999999996,-0.35475903000000003,9.780511140000002,0.001318,-0.000456,0.004953,0.15866032059470542
1757069491.8890638,0.0,0.0,0.0,0.0,0.0,-0.9140358521584159,-0.5835768137821783,8.067420266776518e-13,0.32377905,-0.35566155000000005,9.767493270000001,0.003492,0.000532,0.004416,0.15922274427921312
1757069491.9094515,0.0,0.0,0.0,0.0,0.0,-0.9140358521584159,-0.5835768137821783,8.067420266776518e-13,0.32377905,-0.35566155000000005,9.767493270000001,0.003492,0.000532,0.004416,0.15922274427921312
1757069491.9300249,0.0,0.0,0.0,0.0,0.0,-0.9140358521584159,-0.5835768137821783,7.09014905968138e-13,0.32586858,-0.34772526,9.7781175,0.005087,-0.000929,0.004524,0.1586173572015293
1757069491.9510083,0.0,0.0,0.0,0.0,0.0,-0.9140358521584159,-0.5835768137821783,6.65976644116038e-13,0.32153256,-0.36119439,9.774968490000001,0.004875,-0.001124,0.004173,0.1587910976114221
1757069491.971869,0.0,0.0,0.0,0.0,0.0,-0.9140358521584159,-0.5835768137821783,6.256673296527354e-13,0.32452461,-0.35087427000000004,9.77721498,0.004734,-0.000553,0.002792,0.15907020977180078
1757069491.9931362,0.0,0.0,0.0,0.0,0.0,-0.9140358521584159,-0.5835768137821783,5.866459965148967e-13,0.32332779000000006,-0.35311095000000003,9.774968490000001,0.002695,-0.00108,0.004175,0.15987563563008944
1757069492.013467,0.0,0.0,0.0,0.0,0.0,-0.9140358521584159,-0.5835768137821783,5.512164366310456e-13,0.32318064,-0.3469797,9.779314320000001,0.002207,-0.00075,0.004269,0.15893939631334056
1757069492.0345178,0.0,0.0,0.0,0.0,0.0,-0.9140358521584159,-0.5835768137821783,5.172695869851126e-13,0.32452461,-0.34578288,9.771976440000001,0.002253,-0.00146,0.005106,0.1597697764510832
1757069492.0547767,0.0,0.0,0.0,0.0,0.0,-0.9140358521584159,-0.5835768137821783,4.859800445857672e-13,0.32916474,-0.34877493000000004,9.76209777,0.002299,-0.000424,0.003932,0.1593293897525374
1757069492.0751224,0.0,0.0,0.0,0.0,0.0,-0.9140358521584159,-0.5835768137821783,4.564221308228534e-13,0.31928607000000003,-0.35745678,9.772133400000001,0.003169,0.000987,0.003758,0.15972038616639023
1757069492.0955968,0.0,0.0,0.0,0.0,0.0,-0.9140358521584159,-0.5835768137821783,4.285988623512245e-13,0.32003163,-0.34967745000000006,9.77407578,0.004938,0.000268,0.003661,0.15984779455477227
1757069492.116235,0.0,0.0,0.0,0.0,0.0,-0.9140358521584159,-0.5835768137821783,4.0216144379229824e-13,0.32677110000000004,-0.33874911,9.78275763,0.004331,-3.8e-05,0.003622,0.16015454578328087
1757069492.1369693,0.0,0.0,0.0,0.0,0.0,-0.9140358521584159,-0.5835768137821783,3.776901587789705e-13,0.32198382,-0.36090009000000006,9.77437008,0.003927,0.000688,0.005994,0.15980538786387452
1757069492.158147,0.0,0.0,0.0,0.0,0.0,-0.9140358521584159,-0.5835768137821783,3.542657424209195e-13,0.32931189000000005,-0.35850645000000003,9.78185511,0.002174,-0.000436,0.002357,0.16287354658641356
1757069492.178786,0.0,0.0,0.0,0.0,0.0,-0.9140358521584159,-0.5835768137821783,3.3282825686703817e-13,0.32931189000000005,-0.35850645000000003,9.78185511,0.002174,-0.000436,0.002357,0.1597737120843334
1757069492.1991715,0.0,0.0,0.0,0.0,0.0,-0.9140358521584159,-0.5835768137821783,3.123875988943645e-13,0.32063004,-0.36224406000000003,9.76659075,0.001751,-0.000402,0.004527,0.1637970505518002
1757069492.2198281,0.0,0.0,0.0,0.0,0.0,-0.9140358521584159,-0.5835768137821783,2.93408684822826e-13,0.32063004,-0.36224406000000003,9.76659075,0.001751,-0.000402,0.004527,0.16019461593520962
1757069492.2440588,0.0,0.0,0.0,0.0,0.0,-0.9140358521584159,-0.5835768137821783,2.585169619763237e-13,0.32258223,-0.35147268,9.78470001,0.002751,0.000205,0.00418,0.16031270808006595
1757069492.2642665,0.0,0.0,0.0,0.0,0.0,-0.9140358521584159,-0.5835768137821783,2.585169619763237e-13,0.3210813,-0.35566155000000005,9.7781175,0.003001,-1e-06,0.004714,0.16536719044619244
1757069492.2846472,0.0,0.0,0.0,0.0,0.0,-0.9140358521584159,-0.5835768137821783,2.278317914002434e-13,0.33036156,-0.35745678,9.77512545,0.00391,0.000134,0.003324,0.16049079271454356
1757069492.3080432,0.0,0.0,0.0,0.0,0.0,-0.9140358521584159,-0.5835768137821783,2.1379424333900036e-13,0.32167971,-0.35910486,9.768690090000002,0.002831,0.000641,0.003752,0.16103347359096987
1757069492.3286183,0.0,0.0,0.0,0.0,0.0,-0.9140358521584159,-0.5835768137821783,2.0080856009354309e-13,0.32557428000000005,-0.35281665,9.76584519,0.0031,-0.000773,0.002868,0.1606922231006598
1757069492.34917,0.0,0.0,0.0,0.0,0.0,-0.9140358521584159,-0.5835768137821783,1.8842837814449128e-13,0.32018859000000005,-0.34398765000000003,9.77946147,0.004549,-0.001643,0.003341,0.16123834080095067
1757069492.3694057,0.0,0.0,0.0,0.0,0.0,-0.9140358521584159,-0.5835768137821783,1.7698700904377452e-13,0.33351057,-0.35895771,9.76913154,0.003384,-0.00045,0.005437,0.16086341628955028
1757069492.3897252,0.0,0.0,0.0,0.0,0.0,-0.9140358521584159,-0.5835768137821783,1.660874603048704e-13,0.33545295,-0.34847082,9.76374585,0.002029,-0.002058,0.004844,0.16140197062918088
1757069492.4107728,0.0,0.0,0.0,0.0,0.0,-0.9140358521584159,-0.5835768137821783,1.5599120354936742e-13,0.32093415000000003,-0.34802937000000006,9.77317326,0.002853,-0.001807,0.003964,0.1610888192667545
1757069492.433017,0.0,0.0,0.0,0.0,0.0,-0.9140358521584159,-0.5835768137821783,1.462327247951542e-13,0.32167971,-0.35461188,9.76195062,0.003897,-0.000613,0.004126,0.16188617249644127
1757069492.4540482,0.0,0.0,0.0,0.0,0.0,-0.9140358521584159,-0.5835768137821783,1.3735817740220956e-13,0.33305931000000005,-0.35371917,9.767934720000001,0.003897,-0.000613,0.004126,0.16101130162353905
1757069492.4743018,0.0,0.0,0.0,0.0,0.0,-0.9140358521584159,-0.5835768137821783,1.2893581082215198e-13,0.31734369000000007,-0.36508896,9.76943565,0.003025,-7.1e-05,0.003899,0.16163203182720348
1757069492.494515,0.0,0.0,0.0,0.0,0.0,-0.9140358521584159,-0.5835768137821783,1.210926917028414e-13,0.32482872,-0.33934752,9.77632227,0.002997,0.0005,0.002105,0.1615160398026064
1757069492.5151749,0.0,0.0,0.0,0.0,0.0,-0.9140358521584159,-0.5835768137821783,1.1355677714215793e-13,0.32827203,-0.34143705,9.771378030000001,0.003635,-0.000382,0.00503,0.1621621476325969
1757069492.535639,0.0,0.0,0.0,0.0,0.0,-0.9140358521584159,-0.5835768137821783,1.1355677714215793e-13,0.31854051,-0.36658989000000003,9.783503190000001,0.003507,-0.00097,0.002572,0.1621621476325969
1757069492.5604408,0.0,0.0,0.0,0.0,0.0,-0.9140358521584159,-0.5835768137821783,9.963363636684399e-14,0.33155838000000004,-0.34398765000000003,9.771682140000001,0.003144,-0.000177,0.005645,0.16187040433565375
1757069492.5812194,0.0,0.0,0.0,0.0,0.0,-0.9140358521584159,-0.5835768137821783,9.349865985027402e-14,0.33036156,-0.34607718,9.78290478,0.003714,-0.001735,0.005105,0.16171233858582182
1757069492.606661,0.0,0.0,0.0,0.0,0.0,-0.9140358521584159,-0.5835768137821783,8.247147384300932e-14,0.31854051,-0.34712685000000004,9.77392863,0.002152,3.6e-05,0.006086,0.16182440146096455
1757069492.6271198,0.0,0.0,0.0,0.0,0.0,-0.9140358521584159,-0.5835768137821783,8.247147384300932e-14,0.32512302,-0.34518447,9.77960862,0.004049,0.000865,0.005147,0.16728829088650393
1757069492.6473672,0.0,0.0,0.0,0.0,0.0,-0.9140358521584159,-0.5835768137821783,7.272279674002555e-14,0.33170553,-0.35221824,9.78185511,0.002554,-0.000271,0.004344,0.1620589129520481
1757069492.668823,0.0,0.0,0.0,0.0,0.0,-0.9140358521584159,-0.5835768137821783,6.829498340556126e-14,0.32153256,-0.3583593,9.79338186,0.000447,0.000758,0.002625,0.1625579395817502
1757069492.6889787,0.0,0.0,0.0,0.0,0.0,-0.9140358521584159,-0.5835768137821783,6.415766247135246e-14,0.31569561,-0.34547877,9.78110955,0.004074,0.000904,0.003923,0.16249285168599353
1757069492.7137496,0.0,0.0,0.0,0.0,0.0,-0.9140358521584159,-0.5835768137821783,6.018744987952965e-14,0.32347494000000004,-0.35790804000000004,9.76943565,0.002562,0.000189,0.003045,0.16306630333108413
1757069492.7337646,0.0,0.0,0.0,0.0,0.0,-0.9140358521584159,-0.5835768137821783,5.654589082261392e-14,0.32901759,-0.3526695,9.783807300000001,0.003647,-5e-05,0.003435,0.16243386262384657
1757069492.7542899,0.0,0.0,0.0,0.0,0.0,-0.9140358521584159,-0.5835768137821783,5.307361452756478e-14,0.32467176000000003,-0.34159401,9.77287896,0.004245,-0.001773,0.00391,0.1630559218908825
1757069492.7751756,0.0,0.0,0.0,0.0,0.0,-0.9140358521584159,-0.5835768137821783,4.984818727957701e-14,0.32751666,-0.34368354000000007,9.78515127,0.005127,-0.000345,0.004046,0.16281334915812026
1757069492.7957027,0.0,0.0,0.0,0.0,0.0,-0.9140358521584159,-0.5835768137821783,4.6790584942532257e-14,0.3179421,-0.35671122,9.783208890000001,0.004479,-0.001569,0.00401,0.16319639081523166
1757069492.8165343,0.0,0.0,0.0,0.0,0.0,-0.9140358521584159,-0.5835768137821783,4.393842110623037e-14,0.32646699000000007,-0.35611281,9.787996170000001,0.001989,-0.000851,0.004121,0.16307359373300334
1757069492.8383143,0.0,0.0,0.0,0.0,0.0,-0.9140358521584159,-0.5835768137821783,4.118975035957112e-14,0.32871348000000006,-0.34607718,9.77287896,0.004901,-0.001309,0.00415,0.16374351034920578
1757069492.85943,0.0,0.0,0.0,0.0,0.0,-0.9140358521584159,-0.5835768137821783,3.8663081699153584e-14,0.31959018000000006,-0.35356221,9.77108373,0.003205,0.000288,0.003626,0.1631385527241155
1757069492.8811781,0.0,0.0,0.0,0.0,0.0,-0.9140358521584159,-0.5835768137821783,3.628653353135187e-14,0.31763799,-0.34862778,9.787849020000001,0.003169,-0.001689,0.003482,0.1665921837684316
1757069492.9012704,0.0,0.0,0.0,0.0,0.0,-0.9140358521584159,-0.5835768137821783,3.408678430819889e-14,0.31763799,-0.34862778,9.787849020000001,0.003169,-0.001689,0.003482,0.16324587266209997
1757069492.922665,0.0,0.0,0.0,0.0,0.0,-0.9140358521584159,-0.5835768137821783,3.1963013578443344e-14,0.31973733,-0.35042301000000003,9.775566900000001,0.002226,-0.001458,0.005938,0.1666778872352693
1757069492.9436433,0.0,0.0,0.0,0.0,0.0,-0.9140358521584159,-0.5835768137821783,3.0016870982865635e-14,0.31134978,-0.35087427000000004,9.77437008,0.002916,-0.000583,0.003451,0.16340758238472328
1757069492.9663355,0.0,0.0,0.0,0.0,0.0,-0.9140358521584159,-0.5835768137821783,2.6468004947755736e-14,0.33351057,-0.34877493000000004,9.771829290000001,0.002824,-0.000308,0.004741,0.16355926393106746
1757069492.9900117,0.0,0.0,0.0,0.0,0.0,-0.9140358521584159,-0.5835768137821783,2.484827563149751e-14,0.33231375,-0.35715267000000006,9.76149936,0.002442,-0.000366,0.003899,0.16413501000392722
1757069493.0103977,0.0,0.0,0.0,0.0,0.0,-0.9140358521584159,-0.5835768137821783,2.334377244310636e-14,0.31090833,-0.34503732000000004,9.77108373,0.001717,-0.001916,0.004704,0.16390585815805972
1757069493.032472,0.0,0.0,0.0,0.0,0.0,-0.9140358521584159,-0.5835768137821783,2.190262664488842e-14,0.32423030999999997,-0.34128990000000003,9.77646942,0.002579,0.000356,0.004821,0.16450404992781695
1757069493.0526376,0.0,0.0,0.0,0.0,0.0,-0.9140358521584159,-0.5835768137821783,2.0575770148061562e-14,0.33664977,-0.34652844000000005,9.77048532,0.001983,-0.000264,0.002598,0.16398970014154296
1757069493.0730906,0.0,0.0,0.0,0.0,0.0,-0.9140358521584159,-0.5835768137821783,1.9321840205632072e-14,0.33231375,-0.35147268,9.76224492,0.004254,-0.000259,0.004181,0.16438902190534008
1757069493.0936162,0.0,0.0,0.0,0.0,0.0,-0.9140358521584159,-0.5835768137821783,1.8128145751399438e-14,0.31973733,-0.36044883,9.76988691,0.002513,-0.000586,0.004929,0.16474665977460634
1757069493.1173847,0.0,0.0,0.0,0.0,0.0,-0.9140358521584159,-0.5835768137821783,1.6997039564237565e-14,0.32691825,-0.34787241,9.767934720000001,0.002925,-0.000221,0.004926,0.16488777471535282
1757069493.1384552,0.0,0.0,0.0,0.0,0.0,-0.9140358521584159,-0.5835768137821783,1.5957142528001504e-14,0.32557428000000005,-0.33829785,9.77601816,0.004495,0.001013,0.003375,0.16439017278717946
1757069493.1596892,0.0,0.0,0.0,0.0,0.0,-0.9140358521584159,-0.5835768137821783,1.5957142528001504e-14,0.32557428000000005,-0.33829785,9.77601816,0.004495,0.001013,0.003375,0.16439017278717946
1757069493.1865673,0.0,0.0,0.0,0.0,0.0,-0.9140358521584159,-0.5835768137821783,1.3972381333955336e-14,0.32452461,-0.36389214000000003,9.77317326,0.002819,-7e-06,0.00424,0.16486119583247463
1757069493.2072458,0.0,0.0,0.0,0.0,0.0,-0.9140358521584159,-0.5835768137821783,1.3104712318784294e-14,0.32811507,-0.35685837000000004,9.763598700000001,0.004442,-0.001267,0.00458,0.1674208676914789
1757069493.2326934,0.0,0.0,0.0,0.0,0.0,-0.9140358521584159,-0.5835768137821783,1.1558937805284873e-14,0.31988447999999997,-0.35655426000000007,9.77677353,0.003802,-0.000997,0.003947,0.16494247170061443
1757069493.2530024,0.0,0.0,0.0,0.0,0.0,-0.9140358521584159,-0.5835768137821783,1.0866375593927634e-14,0.32841918000000003,-0.35625996000000004,9.78589683,0.003263,-0.001391,0.004757,0.1648487667375776
1757069493.2742443,0.0,0.0,0.0,0.0,0.0,-0.9140358521584159,-0.5835768137821783,1.0207317384008986e-14,0.32063004,-0.34563573000000003,9.775566900000001,0.002219,0.001242,0.003748,0.16541431071447982
1757069493.2951317,0.0,0.0,0.0,0.0,0.0,-0.9140358521584159,-0.5835768137821783,9.591487070674297e-15,0.33260805,-0.34038738,9.775272600000001,0.002128,-0.000461,0.003424,0.1653131983195709
1757069493.3175888,0.0,0.0,0.0,0.0,0.0,-0.9140358521584159,-0.5835768137821783,9.00713807881608e-15,0.31299785999999996,-0.34787241,9.76883724,0.003213,0.000756,0.00233,0.16845130316717769
1757069493.338076,0.0,0.0,0.0,0.0,0.0,-0.9140358521584159,-0.5835768137821783,8.468143344179569e-15,0.31299785999999996,-0.34787241,9.76883724,0.003213,0.000756,0.00233,0.16524008245281757
1757069493.3620741,0.0,0.0,0.0,0.0,0.0,-0.9140358521584159,-0.5835768137821783,7.470653071819715e-15,0.31569561,-0.35102142000000003,9.77781339,0.003595,-0.000887,0.00344,0.16540902851017328
1757069493.3830884,0.0,0.0,0.0,0.0,0.0,-0.9140358521584159,-0.5835768137821783,7.470653071819715e-15,0.32467176000000003,-0.34787241,9.76599234,0.003523,-0.001218,0.003406,0.17062008668882792
1757069493.404039,0.0,0.0,0.0,0.0,0.0,-0.9140358521584159,-0.5835768137821783,6.590589268447026e-15,0.3210813,-0.35326791,9.77960862,0.003719,-0.00114,0.004032,0.16576537758267923
1757069493.4294724,0.0,0.0,0.0,0.0,0.0,-0.9140358521584159,-0.5835768137821783,6.1844929063934896e-15,0.33365772000000005,-0.35191413000000005,9.78545538,0.003918,-0.000683,0.003369,0.16639805649639555
1757069493.4504325,0.0,0.0,0.0,0.0,0.0,-0.9140358521584159,-0.5835768137821783,5.8120157198933895e-15,0.32003163,-0.35071731,9.76972995,0.001733,-0.003311,0.00407,0.16578144937794423
1757069493.4704354,0.0,0.0,0.0,0.0,0.0,-0.9140358521584159,-0.5835768137821783,5.45568797932491e-15,0.31703958,-0.35715267000000006,9.77422293,0.002763,6e-05,0.003413,0.16647576610681705
1757069493.4905906,0.0,0.0,0.0,0.0,0.0,-0.9140358521584159,-0.5835768137821783,5.1262123200994e-15,0.33021441000000007,-0.35925201,9.783650340000001,0.003198,-0.000815,0.003968,0.16609821067644703
1757069493.5112762,0.0,0.0,0.0,0.0,0.0,-0.9140358521584159,-0.5835768137821783,4.811820025954291e-15,0.32887044,-0.33889626,9.783954450000001,0.002108,-0.00117,0.003559,0.1666595414344028
1757069493.5314496,0.0,0.0,0.0,0.0,0.0,-0.9140358521584159,-0.5835768137821783,4.520969792425665e-15,0.32527017,-0.35611281,9.76613949,0.005173,-0.000141,0.003789,0.16629779387366478
1757069493.5524771,0.0,0.0,0.0,0.0,0.0,-0.9140358521584159,-0.5835768137821783,4.239652441214706e-15,0.32976315,-0.35131572,9.7866522,0.003634,0.000581,0.00298,0.16711844564066194
1757069493.5727432,0.0,0.0,0.0,0.0,0.0,-0.9140358521584159,-0.5835768137821783,3.9835138094919026e-15,0.3239262,-0.33829785,9.77976558,0.002789,0.0004,0.003408,0.16626631686959628
1757069493.5938601,0.0,0.0,0.0,0.0,0.0,-0.9140358521584159,-0.5835768137821783,3.739256844134113e-15,0.31449879,-0.33605136,9.77646942,0.003195,0.000992,0.004829,0.1669702746588824
1757069493.6145363,0.0,0.0,0.0,0.0,0.0,-0.9140358521584159,-0.5835768137821783,3.5121529277734937e-15,0.32497587,-0.36344088,9.77063247,0.003602,-0.000666,0.003544,0.16676864646624812
1757069493.6357815,0.0,0.0,0.0,0.0,0.0,-0.9140358521584159,-0.5835768137821783,3.292386717352957e-15,0.32122845000000005,-0.33874911,9.775566900000001,0.003498,-0.000907,0.001799,0.1675530396445684
1757069493.6567316,0.0,0.0,0.0,0.0,0.0,-0.9140358521584159,-0.5835768137821783,3.092769132680281e-15,0.33874911,-0.33919056000000003,9.80057259,0.001723,0.000485,0.005619,0.16663318629640456
1757069493.6779366,0.0,0.0,0.0,0.0,0.0,-0.9140358521584159,-0.5835768137821783,2.901987666410534e-15,0.31943322,-0.37227969,9.759851280000001,0.002207,0.000599,0.00406,0.1702277288428498
1757069493.6987774,0.0,0.0,0.0,0.0,0.0,-0.9140358521584159,-0.5835768137821783,2.726339820756252e-15,0.31943322,-0.37227969,9.759851280000001,0.002207,0.000599,0.00406,0.166972263893177
1757069493.721692,0.0,0.0,0.0,0.0,0.0,-0.9140358521584159,-0.5835768137821783,2.4042435425293393e-15,0.31494024000000004,-0.34607718,9.77108373,0.003219,0.000115,0.003212,0.16722868556145526
1757069493.7420828,0.0,0.0,0.0,0.0,0.0,-0.9140358521584159,-0.5835768137821783,2.4042435425293393e-15,0.31494024000000004,-0.34607718,9.77108373,0.003219,0.000115,0.003212,0.16722868556145526
1757069493.762215,0.0,0.0,0.0,0.0,0.0,-0.9140358521584159,-0.5835768137821783,2.1170857534914718e-15,0.30402171,-0.34967745000000006,9.77706783,0.003645,-0.001796,0.005327,0.16715551298998638
1757069493.7857285,0.0,0.0,0.0,0.0,0.0,-0.9140358521584159,-0.5835768137821783,1.9875097402677294e-15,0.329616,-0.35446473,9.779167170000001,0.003702,-0.000668,0.003932,0.16782815173434026
1757069493.8065424,0.0,0.0,0.0,0.0,0.0,-0.9140358521584159,-0.5835768137821783,1.8674353428801007e-15,0.32631984,-0.3498246,9.76733631,0.003987,-0.000299,0.006101,0.1676056607750837
1757069493.8275764,0.0,0.0,0.0,0.0,0.0,-0.9140358521584159,-0.5835768137821783,1.8674353428801007e-15,0.32018859000000005,-0.34114275,9.78634809,0.003987,-0.000299,0.006101,0.173951695748006
1757069493.847633,0.0,0.0,0.0,0.0,0.0,-0.9140358521584159,-0.5835768137821783,1.6450436757042656e-15,0.31390038,-0.33949467,9.78170796,0.003069,-7.8e-05,0.004668,0.16755369437423068
1757069493.8680985,0.0,0.0,0.0,0.0,0.0,-0.9140358521584159,-0.5835768137821783,1.5435049352025448e-15,0.33320646000000004,-0.35506314,9.78305193,0.002654,-0.000981,0.002683,0.1684207078441282
1757069493.8891637,0.0,0.0,0.0,0.0,0.0,-0.9140358521584159,-0.5835768137821783,1.4494743919651618e-15,0.32916474,-0.35566155000000005,9.767189160000001,0.003758,-0.000733,0.005315,0.16808028225824576
1757069493.9098227,0.0,0.0,0.0,0.0,0.0,-0.9140358521584159,-0.5835768137821783,1.3604032994880699e-15,0.31838355,-0.35087427000000004,9.771682140000001,0.0029,-0.000323,0.003833,0.1684766993016134
1757069493.930249,0.0,0.0,0.0,0.0,0.0,-0.9140358521584159,-0.5835768137821783,1.2779930551044007e-15,0.32542713,-0.34906923,9.764942670000002,0.002058,-0.001764,0.002835,0.16818565303118305
1757069493.9509146,0.0,0.0,0.0,0.0,0.0,-0.9140358521584159,-0.5835768137821783,1.1987061548077568e-15,0.32153256,-0.3498246,9.763147440000001,0.002906,0.000129,0.004675,0.16892757271079165
1757069493.9710133,0.0,0.0,0.0,0.0,0.0,-0.9140358521584159,-0.5835768137821783,1.1261918236013856e-15,0.31959018000000006,-0.3441348,9.78156081,0.004004,0.000729,0.002898,0.1682331211406497
1757069493.9912705,0.0,0.0,0.0,0.0,0.0,-0.9140358521584159,-0.5835768137821783,1.056821832985621e-15,0.32227812,-0.35176698,9.77362452,0.004011,0.00033,0.002909,0.16896229054646592
1757069494.0120325,0.0,0.0,0.0,0.0,0.0,-0.9140358521584159,-0.5835768137821783,9.928248336998142e-16,0.33095997000000005,-0.34652844000000005,9.76988691,0.003859,0.000473,0.003625,0.16854404172361798
1757069494.0330262,0.0,0.0,0.0,0.0,0.0,-0.9140358521584159,-0.5835768137821783,9.312862285724703e-16,0.31868766000000004,-0.34442910000000004,9.76060665,0.004065,0.000189,0.005441,0.1692908675008298
1757069494.053122,0.0,0.0,0.0,0.0,0.0,-0.9140358521584159,-0.5835768137821783,8.74898106326122e-16,0.33126408,-0.35161983,9.75401433,0.005699,-0.001094,0.005999,0.16864947769548289
1757069494.074296,0.0,0.0,0.0,0.0,0.0,-0.9140358521584159,-0.5835768137821783,8.208217271122635e-16,0.31689243,-0.34533162,9.76568823,0.002959,-0.000834,0.003838,0.16940706091286162
1757069494.0950043,0.0,0.0,0.0,0.0,0.0,-0.9140358521584159,-0.5835768137821783,7.709643887478894e-16,0.31569561,-0.35207109,9.79398027,0.001834,-0.001123,0.003929,0.16894907881211765
1757069494.1163945,0.0,0.0,0.0,0.0,0.0,-0.9140358521584159,-0.5835768137821783,7.233567812961916e-16,0.33365772000000005,-0.34743096000000007,9.78261048,0.003388,-0.000658,0.004492,0.16955678631116378
1757069494.137273,0.0,0.0,0.0,0.0,0.0,-0.9140358521584159,-0.5835768137821783,6.790270868003991e-16,0.32198382,-0.35776089000000005,9.77467419,0.002956,-0.00168,0.004092,0.16934855550489
1757069494.163933,0.0,0.0,0.0,0.0,0.0,-0.9140358521584159,-0.5835768137821783,5.979490700813524e-16,0.32122845000000005,-0.35161983,9.77737194,0.002325,0.001146,0.003324,0.16925626566165014
1757069494.1861322,0.0,0.0,0.0,0.0,0.0,-0.9140358521584159,-0.5835768137821783,5.612566769194719e-16,0.32272938,-0.35341506000000006,9.775723860000001,0.004039,-0.000789,0.005151,0.16974627754283722
1757069494.206564,0.0,0.0,0.0,0.0,0.0,-0.9140358521584159,-0.5835768137821783,5.273296366213371e-16,0.31045707000000006,-0.35745678,9.763451550000001,0.003661,0.000333,0.003937,0.16948231671887615
1757069494.2307205,0.0,0.0,0.0,0.0,0.0,-0.9140358521584159,-0.5835768137821783,4.94551750160145e-16,0.31928607000000003,-0.34877493000000004,9.767934720000001,0.004312,-0.000548,0.005058,0.1703268321076919
1757069494.2512414,0.0,0.0,0.0,0.0,0.0,-0.9140358521584159,-0.5835768137821783,4.647026738839526e-16,0.32033574000000004,-0.35685837000000004,9.76972995,0.002968,-0.001845,0.006402,0.1694974933533267
1757069494.2721772,0.0,0.0,0.0,0.0,0.0,-0.9140358521584159,-0.5835768137821783,4.3603302743903535e-16,0.31703958,-0.34547877,9.77317326,0.003163,-0.001244,0.004102,0.1703526676866478
1757069494.2928927,0.0,0.0,0.0,0.0,0.0,-0.9140358521584159,-0.5835768137821783,4.095907610595287e-16,0.31674527999999996,-0.36090009000000006,9.787093650000001,0.003616,-0.00044,0.003251,0.16990373638770168
1757069494.313733,0.0,0.0,0.0,0.0,0.0,-0.9140358521584159,-0.5835768137821783,3.8471452651272225e-16,0.31749084,-0.3614985,9.77437008,0.002484,-0.000364,0.004,0.17019411125025488
1757069494.333867,0.0,0.0,0.0,0.0,0.0,-0.9140358521584159,-0.5835768137821783,3.6131277063614817e-16,0.32093415000000003,-0.34323228,9.7607538,0.001571,-0.000364,0.005999,0.17035144951036618
1757069494.3547642,0.0,0.0,0.0,0.0,0.0,-0.9140358521584159,-0.5835768137821783,3.385204207779747e-16,0.32557428000000005,-0.35221824,9.77347737,0.0045,-0.000684,0.004501,0.17114858797892668
1757069494.3756888,0.0,0.0,0.0,0.0,0.0,-0.9140358521584159,-0.5835768137821783,3.1787748792286983e-16,0.31449879,-0.36793386,9.76659075,0.002757,0.001451,0.003779,0.17009394042299975
1757069494.3965528,0.0,0.0,0.0,0.0,0.0,-0.9140358521584159,-0.5835768137821783,2.9836456949883735e-16,0.31194819,-0.33739533,9.77257485,0.005185,0.000619,0.004376,0.17366405019774533
1757069494.4172022,0.0,0.0,0.0,0.0,0.0,-0.9140358521584159,-0.5835768137821783,2.803358264636054e-16,0.31194819,-0.33739533,9.77257485,0.005185,0.000619,0.004376,0.17041051205137608
1757069494.437485,0.0,0.0,0.0,0.0,0.0,-0.9140358521584159,-0.5835768137821783,2.803358264636054e-16,0.31194819,-0.33739533,9.77257485,0.005185,0.000619,0.004376,0.17041051205137608
1757069494.4587216,0.0,0.0,0.0,0.0,0.0,-0.9140358521584159,-0.5835768137821783,2.4537379083844504e-16,0.31404753,-0.34563573000000003,9.783208890000001,0.003462,-0.000292,0.005401,0.17071742201588885
1757069494.4814415,0.0,0.0,0.0,0.0,0.0,-0.9140358521584159,-0.5835768137821783,2.166125224447444e-16,0.3270654,-0.35341506000000006,9.780815250000002,0.004628,-0.001932,0.003073,0.17047100353440958
1757069494.5027218,0.0,0.0,0.0,0.0,0.0,-0.9140358521584159,-0.5835768137821783,2.166125224447444e-16,0.3270654,-0.35341506000000006,9.780815250000002,0.004628,-0.001932,0.003073,0.17047100353440958
1757069494.523317,0.0,0.0,0.0,0.0,0.0,-0.9140358521584159,-0.5835768137821783,1.9111660328380005e-16,0.32467176000000003,-0.36044883,9.78649524,0.000999,-0.000702,0.004399,0.17086788717936413
1757069494.5438833,0.0,0.0,0.0,0.0,0.0,-0.9140358521584159,-0.5835768137821783,1.9111660328380005e-16,0.32377905,-0.32662395,9.77871591,0.002868,-0.00095,0.003251,0.1765196217406025
1757069494.564148,0.0,0.0,0.0,0.0,0.0,-0.9140358521584159,-0.5835768137821783,1.6859760408251683e-16,0.33380487000000003,-0.35730963,9.77392863,0.00295,-0.000552,0.005242,0.17115514111089164
1757069494.587692,0.0,0.0,0.0,0.0,0.0,-0.9140358521584159,-0.5835768137821783,1.5824367751438442e-16,0.31763799,-0.34802937000000006,9.76972995,0.003141,2.8e-05,0.004466,0.17190456950194266
1757069494.6081276,0.0,0.0,0.0,0.0,0.0,-0.9140358521584159,-0.5835768137821783,1.487163965465766e-16,0.32063004,-0.34937334000000003,9.76464837,0.002662,-0.000614,0.005966,0.171375888916136
1757069494.6283991,0.0,0.0,0.0,0.0,0.0,-0.9140358521584159,-0.5835768137821783,1.395440993132774e-16,0.3376994400000001,-0.34787241,9.77721498,0.003659,-8.6e-05,0.003718,0.17216069804236808
1757069494.6488986,0.0,0.0,0.0,0.0,0.0,-0.9140358521584159,-0.5835768137821783,1.3111364884404386e-16,0.31494024000000004,-0.36059598,9.77347737,0.00458,-3.4e-05,0.004071,0.1715822530611688
1757069494.6690583,0.0,0.0,0.0,0.0,0.0,-0.9140358521584159,-0.5835768137821783,1.2303030802757197e-16,0.32542713,-0.35625996000000004,9.77946147,0.004319,-0.000895,0.004677,0.17229384203079467
1757069494.6896963,0.0,0.0,0.0,0.0,0.0,-0.9140358521584159,-0.5835768137821783,1.1559648418478598e-16,0.3210813,-0.34143705,9.77766624,0.004457,-0.000968,0.004222,0.1717664865240069
1757069494.7106662,0.0,0.0,0.0,0.0,0.0,-0.9140358521584159,-0.5835768137821783,1.0853936973899588e-16,0.32437746,-0.35027586000000005,9.78141366,0.003777,-0.001723,0.003456,0.17228088324724442
1757069494.730703,0.0,0.0,0.0,0.0,0.0,-0.9140358521584159,-0.5835768137821783,1.0188879215876356e-16,0.33110712,-0.34473321,9.767787570000001,0.003777,-0.001723,0.003456,0.1723914573646398
1757069494.7524495,0.0,0.0,0.0,0.0,0.0,-0.9140358521584159,-0.5835768137821783,9.551878158352644e-17,0.32602554,-0.34188831000000003,9.77692068,0.002709,-0.001483,0.005139,0.1728364556706633
1757069494.77305,0.0,0.0,0.0,0.0,0.0,-0.9140358521584159,-0.5835768137821783,8.974812317277452e-17,0.31928607000000003,-0.34847082,9.77960862,0.001928,-0.001166,0.004363,0.17190347021143734
1757069494.7937849,0.0,0.0,0.0,0.0,0.0,-0.9140358521584159,-0.5835768137821783,8.420806947472414e-17,0.32677110000000004,-0.35805518999999997,9.771682140000001,0.004025,0.000859,0.004124,0.1728310482009449
1757069494.8147957,0.0,0.0,0.0,0.0,0.0,-0.9140358521584159,-0.5835768137821783,7.91216586472404e-17,0.32467176000000003,-0.34458605999999997,9.77092677,0.002389,0.001124,0.002608,0.17229830354040904
1757069494.84098,0.0,0.0,0.0,0.0,0.0,-0.9140358521584159,-0.5835768137821783,6.972048963875328e-17,0.32811507,-0.34188831000000003,9.76883724,0.004561,-0.000577,0.001835,0.17240605824510138
1757069494.8616583,0.0,0.0,0.0,0.0,0.0,-0.9140358521584159,-0.5835768137821783,6.972048963875328e-17,0.31150674,-0.34263387,9.75176784,0.003831,-0.000944,0.002898,0.1775500476141312
1757069494.8823628,0.0,0.0,0.0,0.0,0.0,-0.9140358521584159,-0.5835768137821783,6.148031321041066e-17,0.32946885,-0.34563573000000003,9.764795520000002,0.002874,-0.000567,0.003459,0.17280948057761725
1757069494.9058347,0.0,0.0,0.0,0.0,0.0,-0.9140358521584159,-0.5835768137821783,5.770191790511415e-17,0.32976315,-0.34488036,9.772280550000001,0.002782,-0.001096,0.004599,0.17337882739828228
1757069494.925943,0.0,0.0,0.0,0.0,0.0,-0.9140358521584159,-0.5835768137821783,5.421163786772032e-17,0.33081282000000006,-0.34877493000000004,9.775419750000001,0.003009,-0.002562,0.005566,0.17298760149668857
1757069494.9459786,0.0,0.0,0.0,0.0,0.0,-0.9140358521584159,-0.5835768137821783,5.421163786772032e-17,0.33081282000000006,-0.34877493000000004,9.775419750000001,0.003009,-0.002562,0.005566,0.17298760149668857
1757069494.9667249,0.0,0.0,0.0,0.0,0.0,-0.9140358521584159,-0.5835768137821783,4.773613671255098e-17,0.32602554,-0.35805518999999997,9.768690090000002,0.003647,-0.000367,0.003961,0.17292753462825744
1757069494.9868188,0.0,0.0,0.0,0.0,0.0,-0.9140358521584159,-0.5835768137821783,4.4804743145564265e-17,0.32167971,-0.35356221,9.78230637,0.002886,0.000675,0.004009,0.17366204965813434
1757069495.0074012,0.0,0.0,0.0,0.0,0.0,-0.9140358521584159,-0.5835768137821783,4.2099656341042193e-17,0.32302368,-0.35341506000000006,9.765246780000002,0.00355,-0.000724,0.003165,0.1733140893511096
1757069495.03128,0.0,0.0,0.0,0.0,0.0,-0.9140358521584159,-0.5835768137821783,3.947255443677387e-17,0.3094074,-0.36194976,9.77960862,0.001748,0.00012,0.004998,0.174268921955111
1757069495.0519197,0.0,0.0,0.0,0.0,0.0,-0.9140358521584159,-0.5835768137821783,3.708961027837086e-17,0.31734369000000007,-0.34997175,9.76898439,0.004009,0.001139,0.004339,0.17330498453306448
1757069495.07224,0.0,0.0,0.0,0.0,0.0,-0.9140358521584159,-0.5835768137821783,3.480460036892605e-17,0.32646699000000007,-0.35207109,9.78620094,0.002846,-0.002119,0.003512,0.17416662488029366
1757069495.0924363,0.0,0.0,0.0,0.0,0.0,-0.9140358521584159,-0.5835768137821783,3.2691485847684567e-17,0.31718673000000003,-0.35595585,9.76599234,0.003361,-0.00079,0.001867,0.17380428952097335
1757069495.112624,0.0,0.0,0.0,0.0,0.0,-0.9140358521584159,-0.5835768137821783,3.0684549186980754e-17,0.320787,-0.34652844000000005,9.76733631,0.002795,-0.003294,0.00431,0.17427473344571562
1757069495.1327531,0.0,0.0,0.0,0.0,0.0,-0.9140358521584159,-0.5835768137821783,2.882354143662549e-17,0.329616,-0.34817652000000004,9.787849020000001,0.005362,-0.000553,0.004561,0.17401511059846467
1757069495.1529498,0.0,0.0,0.0,0.0,0.0,-0.9140358521584159,-0.5835768137821783,2.7019157471447636e-17,0.32751666,-0.34652844000000005,9.76254903,0.002795,-0.000726,0.004924,0.1748702649099159
1757069495.17313,0.0,0.0,0.0,0.0,0.0,-0.9140358521584159,-0.5835768137821783,2.5380397112017122e-17,0.32931189000000005,-0.35745678,9.759409830000001,0.002676,-0.001421,0.006375,0.17394068774916288
1757069495.1939502,0.0,0.0,0.0,0.0,0.0,-0.9140358521584159,-0.5835768137821783,2.3813339389727166e-17,0.31808925000000005,-0.35491599000000007,9.783503190000001,0.001859,-0.000411,0.004571,0.17473095471954095
1757069495.2139437,0.0,0.0,0.0,0.0,0.0,-0.9140358521584159,-0.5835768137821783,2.2370470595873485e-17,0.32033574000000004,-0.35356221,9.76599234,0.000701,-0.000208,0.003678,0.17428995222641838
1757069495.2340364,0.0,0.0,0.0,0.0,0.0,-0.9140358521584159,-0.5835768137821783,2.098420580066437e-17,0.32467176000000003,-0.34159401,9.78485697,0.004801,0.000192,0.005151,0.1750535513359705
1757069495.2544417,0.0,0.0,0.0,0.0,0.0,-0.9140358521584159,-0.5835768137821783,1.9716215149573784e-17,0.32467176000000003,-0.34159401,9.78485697,0.004801,0.000192,0.005151,0.1743847638683915
1757069495.2764482,0.0,0.0,0.0,0.0,0.0,-0.9140358521584159,-0.5835768137821783,1.8491386600830563e-17,0.32122845000000005,-0.34937334000000003,9.77856876,0.002211,-0.001668,0.005305,0.17770044892680148
1757069495.2969844,0.0,0.0,0.0,0.0,0.0,-0.9140358521584159,-0.5835768137821783,1.737183770696035e-17,0.32122845000000005,-0.34937334000000003,9.77856876,0.002211,-0.001668,0.005305,0.17459611963637955
1757069495.3198726,0.0,0.0,0.0,0.0,0.0,-0.9140358521584159,-0.5835768137821783,1.53132754591918e-17,0.33395202000000007,-0.36209691,9.771378030000001,0.001356,-0.002135,0.003776,0.17479463483103413
1757069495.3406062,0.0,0.0,0.0,0.0,0.0,-0.9140358521584159,-0.5835768137821783,1.53132754591918e-17,0.33395202000000007,-0.36209691,9.771378030000001,0.001356,-0.002135,0.003776,0.17479463483103413
1757069495.3614988,0.0,0.0,0.0,0.0,0.0,-0.9140358521584159,-0.5835768137821783,1.349174849773805e-17,0.32782077000000004,-0.33305931000000005,9.77976558,0.003028,0.001009,0.003601,0.17504397020043086
1757069495.381563,0.0,0.0,0.0,0.0,0.0,-0.9140358521584159,-0.5835768137821783,1.349174849773805e-17,0.33036156,-0.35700552,9.77377167,0.001668,0.001286,0.004838,0.17504397020043086
1757069495.4025877,0.0,0.0,0.0,0.0,0.0,-0.9140358521584159,-0.5835768137821783,1.1891770348134407e-17,0.3270654,-0.35805518999999997,9.779167170000001,0.001894,0.000475,0.003087,0.17520016544575515
1757069495.4288516,0.0,0.0,0.0,0.0,0.0,-0.9140358521584159,-0.5835768137821783,1.1153676444323395e-17,0.32363190000000003,-0.35401347000000005,9.77452704,0.003818,-0.000534,0.003656,0.17606962847846383
1757069495.4497721,0.0,0.0,0.0,0.0,0.0,-0.9140358521584159,-0.5835768137821783,1.0477094362144022e-17,0.32691825,-0.35461188,9.77946147,0.003997,0.001218,0.002807,0.175430940446809
1757069495.4698882,0.0,0.0,0.0,0.0,0.0,-0.9140358521584159,-0.5835768137821783,9.828758045820594e-18,0.3150972,-0.35910486,9.76972995,0.001709,-0.000174,0.002985,0.17616692636512005
1757069495.4905627,0.0,0.0,0.0,0.0,0.0,-0.9140358521584159,-0.5835768137821783,9.235204195404195e-18,0.32946885,-0.33739533,9.76419711,0.003115,0.001122,0.004207,0.17554779719254698
1757069495.5114446,0.0,0.0,0.0,0.0,0.0,-0.9140358521584159,-0.5835768137821783,8.669496766326752e-18,0.31658832000000003,-0.34712685000000004,9.77960862,0.00343,-0.000932,0.003127,0.1762069845527161
1757069495.5321858,0.0,0.0,0.0,0.0,0.0,-0.9140358521584159,-0.5835768137821783,8.143925884390776e-18,0.32542713,-0.36359784,9.76809168,0.003071,-0.00212,0.006076,0.17598559849757237
1757069495.555605,0.0,0.0,0.0,0.0,0.0,-0.9140358521584159,-0.5835768137821783,7.628061368938345e-18,0.32423030999999997,-0.35341506000000006,9.76704201,0.001701,0.000201,0.003363,0.17703561406821228
1757069495.576332,0.0,0.0,0.0,0.0,0.0,-0.9140358521584159,-0.5835768137821783,7.161299110468634e-18,0.32182686000000005,-0.35671122,9.77797035,0.001942,-0.001141,0.003811,0.17592504514333346
1757069495.5974321,0.0,0.0,0.0,0.0,0.0,-0.9140358521584159,-0.5835768137821783,6.720720193229992e-18,0.31808925000000005,-0.34847082,9.78021684,0.002922,0.001204,0.003306,0.179590871776521
1757069495.6180043,0.0,0.0,0.0,0.0,0.0,-0.9140358521584159,-0.5835768137821783,6.313091655234296e-18,0.31808925000000005,-0.34847082,9.78021684,0.002922,0.001204,0.003306,0.17626368988810806
1757069495.6416845,0.0,0.0,0.0,0.0,0.0,-0.9140358521584159,-0.5835768137821783,5.5591355294222565e-18,0.3210813,-0.33949467,9.78335604,0.003316,-3.1e-05,0.00366,0.17620359763825225
1757069495.665504,0.0,0.0,0.0,0.0,0.0,-0.9140358521584159,-0.5835768137821783,5.218435456133144e-18,0.31524435,-0.35431757999999997,9.77377167,0.003692,-0.00019,0.003132,0.17692532514238718
1757069495.6857743,0.0,0.0,0.0,0.0,0.0,-0.9140358521584159,-0.5835768137821783,4.9034723872104185e-18,0.31763799,-0.35116857000000007,9.76539393,0.003737,0.000135,0.003665,0.17663848742440716
1757069495.706054,0.0,0.0,0.0,0.0,0.0,-0.9140358521584159,-0.5835768137821783,4.9034723872104185e-18,0.31763799,-0.35116857000000007,9.76539393,0.003737,0.000135,0.003665,0.17663848742440716
1757069495.727559,0.0,0.0,0.0,0.0,0.0,-0.9140358521584159,-0.5835768137821783,4.5838032071158316e-18,0.31134978,-0.35416062000000004,9.76943565,0.004214,-0.000613,0.003986,0.17831348119428217
1757069495.749024,0.0,0.0,0.0,0.0,0.0,-0.9140358521584159,-0.5835768137821783,4.032478947950437e-18,0.32646699000000007,-0.35131572,9.76404996,0.002793,-0.001129,0.003303,0.17674157195767848
1757069495.769488,0.0,0.0,0.0,0.0,0.0,-0.9140358521584159,-0.5835768137821783,3.790848734796009e-18,0.32931189000000005,-0.35416062000000004,9.78156081,0.003126,-0.00025,0.004791,0.17663808193708155
1757069495.7894871,0.0,0.0,0.0,0.0,0.0,-0.9140358521584159,-0.5835768137821783,3.559431243852279e-18,0.31838355,-0.36793386,9.76972995,0.001805,-5.4e-05,0.004166,0.17757119879297936
1757069495.809985,0.0,0.0,0.0,0.0,0.0,-0.9140358521584159,-0.5835768137821783,3.3443785970730462e-18,0.34009308,-0.34547877,9.78201207,0.003383,0.000459,0.004579,0.1773517116596869
1757069495.8324206,0.0,0.0,0.0,0.0,0.0,-0.9140358521584159,-0.5835768137821783,3.136202346611222e-18,0.33110712,-0.34997175,9.77946147,0.004224,0.000524,0.005519,0.17814787592087233
1757069495.8539057,0.0,0.0,0.0,0.0,0.0,-0.9140358521584159,-0.5835768137821783,2.9474164843049727e-18,0.320787,-0.35386632,9.7784118,0.002185,0.000458,0.004225,0.17718241157280742
1757069495.875554,0.0,0.0,0.0,0.0,0.0,-0.9140358521584159,-0.5835768137821783,2.7698106466094483e-18,0.31524435,-0.34293798000000003,9.7664436,0.00355,0.000467,0.003817,0.18151760582926835
1757069495.896264,0.0,0.0,0.0,0.0,0.0,-0.9140358521584159,-0.5835768137821783,2.6031287875379083e-18,0.31524435,-0.34293798000000003,9.7664436,0.00355,0.000467,0.003817,0.17779490094659234
1757069495.920676,0.0,0.0,0.0,0.0,0.0,-0.9140358521584159,-0.5835768137821783,2.4368256223907432e-18,0.33500169,-0.35401347000000005,9.771378030000001,0.003928,0.000141,0.003445,0.17904502031013733
1757069495.9449632,0.0,0.0,0.0,0.0,0.0,-0.9140358521584159,-0.5835768137821783,2.147414362630808e-18,0.32841918000000003,-0.33395202000000007,9.78290478,0.003377,-0.000244,0.003399,0.17782192490709078
1757069495.9653075,0.0,0.0,0.0,0.0,0.0,-0.9140358521584159,-0.5835768137821783,2.0181583029875025e-18,0.32527017,-0.35745678,9.767934720000001,0.002954,-0.001757,0.003193,0.17795835738105886
1757069495.9873488,0.0,0.0,0.0,0.0,0.0,-0.9140358521584159,-0.5835768137821783,2.0181583029875025e-18,0.32423030999999997,-0.34937334000000003,9.779167170000001,0.00257,-0.000328,0.004191,0.18426286130143518
1757069496.0078514,0.0,0.0,0.0,0.0,0.0,-0.9140358521584159,-0.5835768137821783,1.778534291932448e-18,0.33155838000000004,-0.34892208,9.79024266,0.003527,-0.001254,0.005384,0.17801539177418704
1757069496.029477,0.0,0.0,0.0,0.0,0.0,-0.9140358521584159,-0.5835768137821783,1.6686526798804693e-18,0.31554846000000003,-0.34787241,9.779010210000001,0.001953,-0.001243,0.003802,0.178936599342436
1757069496.0496309,0.0,0.0,0.0,0.0,0.0,-0.9140358521584159,-0.5835768137821783,1.5674141189968187e-18,0.33006726000000003,-0.36344088,9.7607538,0.00195,0.000783,0.001581,0.17844407177644642
1757069496.0703259,0.0,0.0,0.0,0.0,0.0,-0.9140358521584159,-0.5835768137821783,1.4708732788568674e-18,0.32631984,-0.35416062000000004,9.771230880000001,0.001799,0.000557,0.004932,0.1790278330240351
1757069496.0910952,0.0,0.0,0.0,0.0,0.0,-0.9140358521584159,-0.5835768137821783,1.3823547502488213e-18,0.30790647,-0.34458605999999997,9.76898439,0.002831,-0.000906,0.002568,0.17847395627646917
1757069496.111459,0.0,0.0,0.0,0.0,0.0,-0.9140358521584159,-0.5835768137821783,1.3823547502488213e-18,0.30790647,-0.34458605999999997,9.76898439,0.002831,-0.000906,0.002568,0.17847395627646917
1757069496.1332097,0.0,0.0,0.0,0.0,0.0,-0.9140358521584159,-0.5835768137821783,1.292145981226124e-18,0.31838355,-0.34054434000000006,9.77257485,0.003979,-0.001165,0.003619,0.1821511202066064
1757069496.1535835,0.0,0.0,0.0,0.0,0.0,-0.9140358521584159,-0.5835768137821783,1.137365992866603e-18,0.32856633,-0.35939916000000005,9.767934720000001,0.002464,-0.000382,0.00428,0.17841315419964518
1757069496.1739678,0.0,0.0,0.0,0.0,0.0,-0.9140358521584159,-0.5835768137821783,1.0695167147485314e-18,0.33215679000000004,-0.35521029,9.77856876,0.003354,-0.001782,0.004169,0.1786014383384188
1757069496.1954727,0.0,0.0,0.0,0.0,0.0,-0.9140358521584159,-0.5835768137821783,1.0039668059795838e-18,0.31898196000000006,-0.34667559000000003,9.76554108,0.003933,6.9e-05,0.004369,0.18204812467558307
1757069496.2159085,0.0,0.0,0.0,0.0,0.0,-0.9140358521584159,-0.5835768137821783,9.439415031302948e-19,0.31898196000000006,-0.34667559000000003,9.76554108,0.003933,6.9e-05,0.004369,0.179034695409565
1757069496.240059,0.0,0.0,0.0,0.0,0.0,-0.9140358521584159,-0.5835768137821783,8.324943823171201e-19,0.32048288999999996,-0.34383069,9.775871010000001,0.002704,0.000635,0.004184,0.17918050176988826
1757069496.2609608,0.0,0.0,0.0,0.0,0.0,-0.9140358521584159,-0.5835768137821783,8.324943823171201e-19,0.32048288999999996,-0.34383069,9.775871010000001,0.002704,0.000635,0.004184,0.17918050176988826
1757069496.281043,0.0,0.0,0.0,0.0,0.0,-0.9140358521584159,-0.5835768137821783,7.344286570347796e-19,0.32976315,-0.3671883,9.76883724,0.002179,9.7e-05,0.003364,0.1795037518538663
1757069496.3018904,0.0,0.0,0.0,0.0,0.0,-0.9140358521584159,-0.5835768137821783,7.344286570347796e-19,0.32976315,-0.3671883,9.76883724,0.002179,9.7e-05,0.003364,0.1795037518538663
1757069496.3219254,0.0,0.0,0.0,0.0,0.0,-0.9140358521584159,-0.5835768137821783,6.475418857556253e-19,0.33710102999999997,-0.35625996000000004,9.78021684,0.002487,-0.00068,0.004842,0.1795779562502046
1757069496.3426328,0.0,0.0,0.0,0.0,0.0,-0.9140358521584159,-0.5835768137821783,6.475418857556253e-19,0.30565998000000005,-0.34802937000000006,9.767189160000001,0.003014,-0.000668,0.003433,0.1795779562502046
1757069496.3627205,0.0,0.0,0.0,0.0,0.0,-0.9140358521584159,-0.5835768137821783,5.708739041886807e-19,0.31718673000000003,-0.35671122,9.77960862,0.004265,-0.000511,0.003796,0.17987367005353727
1757069496.3831127,0.0,0.0,0.0,0.0,0.0,-0.9140358521584159,-0.5835768137821783,5.708739041886807e-19,0.31718673000000003,-0.35671122,9.77960862,0.004265,-0.000511,0.003796,0.17987367005353727
1757069496.4034705,0.0,0.0,0.0,0.0,0.0,-0.9140358521584159,-0.5835768137821783,5.708739041886807e-19,0.31718673000000003,-0.35671122,9.77960862,0.004265,-0.000511,0.003796,0.17987367005353727
1757069496.426011,0.0,0.0,0.0,0.0,0.0,-0.9140358521584159,-0.5835768137821783,5.318699713186722e-19,0.32138541,-0.35161983,9.78110955,0.002983,-0.001398,0.004774,0.18228266411971664
1757069496.4481344,0.0,0.0,0.0,0.0,0.0,-0.9140358521584159,-0.5835768137821783,4.656194748573522e-19,0.31734369000000007,-0.34203546,9.771682140000001,0.003263,-0.001065,0.004732,0.1816739843366705
1757069496.4687946,0.0,0.0,0.0,0.0,0.0,-0.9140358521584159,-0.5835768137821783,4.1091839301229255e-19,0.33619851000000006,-0.37436922000000006,9.780962400000002,0.002175,-0.000854,0.004784,0.18025012869353962
1757069496.4892921,0.0,0.0,0.0,0.0,0.0,-0.9140358521584159,-0.5835768137821783,3.866898540365853e-19,0.32198382,-0.34518447,9.78230637,0.002708,0.000169,0.002861,0.18015898555545815
1757069496.5095372,0.0,0.0,0.0,0.0,0.0,-0.9140358521584159,-0.5835768137821783,3.633196609091465e-19,0.3270654,-0.36044883,9.77422293,0.00363,0.000626,0.002426,0.1811758658936967
1757069496.5300388,0.0,0.0,0.0,0.0,0.0,-0.9140358521584159,-0.5835768137821783,3.4186022114904644e-19,0.31598991,-0.35700552,9.76913154,0.004883,-0.000145,0.002784,0.1805899324018986
1757069496.550372,0.0,0.0,0.0,0.0,0.0,-0.9140358521584159,-0.5835768137821783,3.210324540135207e-19,0.32796792,-0.35311095000000003,9.779314320000001,0.002659,-0.000452,0.004524,0.18155288789429463
1757069496.5711455,0.0,0.0,0.0,0.0,0.0,-0.9140358521584159,-0.5835768137821783,3.018539038040616e-19,0.33095997000000005,-0.35116857000000007,9.77018121,0.004328,-0.001522,0.005086,0.18094525155217958
1757069496.5925376,0.0,0.0,0.0,0.0,0.0,-0.9140358521584159,-0.5835768137821783,2.833846795464734e-19,0.33724818,-0.35386632,9.780962400000002,0.004007,-0.001139,0.003125,0.18169265851194918
1757069496.6125607,0.0,0.0,0.0,0.0,0.0,-0.9140358521584159,-0.5835768137821783,2.6647814239622678e-19,0.31763799,-0.35371917,9.771829290000001,0.004642,0.00068,0.004586,0.18099915734078806
1757069496.632893,0.0,0.0,0.0,0.0,0.0,-0.9140358521584159,-0.5835768137821783,2.500276511267872e-19,0.32093415000000003,-0.35910486,9.77692068,0.000993,-0.001381,0.004682,0.1820386846685449
1757069496.6538346,0.0,0.0,0.0,0.0,0.0,-0.9140358521584159,-0.5835768137821783,2.3506560973297685e-19,0.32287653,-0.34518447,9.77392863,0.001576,-0.000686,0.003168,0.18112857649003708
1757069496.6754744,0.0,0.0,0.0,0.0,0.0,-0.9140358521584159,-0.5835768137821783,2.2057724671263854e-19,0.31644117000000005,-0.34442910000000004,9.76883724,0.002503,0.00051,0.004367,0.1843116088502223
1757069496.6959686,0.0,0.0,0.0,0.0,0.0,-0.9140358521584159,-0.5835768137821783,2.0735856684214528e-19,0.31644117000000005,-0.34442910000000004,9.76883724,0.002503,0.00051,0.004367,0.18136016482394846
1757069496.7191215,0.0,0.0,0.0,0.0,0.0,-0.9140358521584159,-0.5835768137821783,1.829144016246935e-19,0.31569561,-0.35326791,9.76554108,0.003432,-0.000434,0.003243,0.1815358687573768
1757069496.7400184,0.0,0.0,0.0,0.0,0.0,-0.9140358521584159,-0.5835768137821783,1.829144016246935e-19,0.33530580000000004,-0.33739533,9.77646942,0.002912,0.00129,0.005155,0.18672706460963626
1757069496.7607536,0.0,0.0,0.0,0.0,0.0,-0.9140358521584159,-0.5835768137821783,1.6141504576484339e-19,0.32782077000000004,-0.35850645000000003,9.7724277,0.003344,-0.001187,0.003242,0.18199552434714095
1757069496.7811599,0.0,0.0,0.0,0.0,0.0,-0.9140358521584159,-0.5835768137821783,1.6141504576484339e-19,0.32782077000000004,-0.35850645000000003,9.7724277,0.003344,-0.001187,0.003242,0.18199552434714095
1757069496.801829,0.0,0.0,0.0,0.0,0.0,-0.9140358521584159,-0.5835768137821783,1.4224583404625112e-19,0.329616,-0.34638129,9.77692068,0.004568,-0.001666,0.006034,0.18188470023830955
1757069496.8257012,0.0,0.0,0.0,0.0,0.0,-0.9140358521584159,-0.5835768137821783,1.3351092404139866e-19,0.32018859000000005,-0.35925201,9.77302611,0.002278,-0.000727,0.004581,0.18274009860541104
1757069496.8459811,0.0,0.0,0.0,0.0,0.0,-0.9140358521584159,-0.5835768137821783,1.2543231048979116e-19,0.32527017,-0.34069149000000004,9.77661657,0.002455,-7.2e-05,0.004464,0.18238363712903488
1757069496.8671625,0.0,0.0,0.0,0.0,0.0,-0.9140358521584159,-0.5835768137821783,1.2543231048979116e-19,0.33246090000000006,-0.34593003000000005,9.78005988,0.003933,-0.000605,0.004982,0.18238363712903488
1757069496.887603,0.0,0.0,0.0,0.0,0.0,-0.9140358521584159,-0.5835768137821783,1.1041886241184885e-19,0.33021441000000007,-0.34937334000000003,9.76628664,0.003057,0.000841,0.003343,0.1823274649437249
1757069496.9081748,0.0,0.0,0.0,0.0,0.0,-0.9140358521584159,-0.5835768137821783,1.0374040810417029e-19,0.33215679000000004,-0.35027586000000005,9.771682140000001,0.001682,-0.000321,0.003893,0.18267605378586016
1757069496.928744,0.0,0.0,0.0,0.0,0.0,-0.9140358521584159,-0.5835768137821783,9.748252282087999e-20,0.31598991,-0.34652844000000005,9.77092677,0.003311,0.001747,0.004843,0.1828553233842976
1757069496.9496922,0.0,0.0,0.0,0.0,0.0,-0.9140358521584159,-0.5835768137821783,9.748252282087999e-20,0.31598991,-0.34652844000000005,9.77092677,0.003311,0.001747,0.004843,0.1828553233842976
1757069496.9699054,0.0,0.0,0.0,0.0,0.0,-0.9140358521584159,-0.5835768137821783,8.569436880831289e-20,0.34518447,-0.35730963,9.77422293,0.004863,-0.000517,0.003379,0.18281107191948
1757069496.9902506,0.0,0.0,0.0,0.0,0.0,-0.9140358521584159,-0.5835768137821783,8.569436880831289e-20,0.34518447,-0.35730963,9.77422293,0.004863,-0.000517,0.003379,0.18281107191948
1757069497.010561,0.0,0.0,0.0,0.0,0.0,-0.9140358521584159,-0.5835768137821783,8.569436880831289e-20,0.34518447,-0.35730963,9.77422293,0.004863,-0.000517,0.003379,0.18281107191948
1757069497.031878,0.0,0.0,0.0,0.0,0.0,-0.9140358521584159,-0.5835768137821783,8.569436880831289e-20,0.32527017,-0.36090009000000006,9.77257485,0.003046,0.000138,0.003,0.19730181357269622
1757069497.0531127,0.0,0.0,0.0,0.0,0.0,-0.9140358521584159,-0.5835768137821783,6.956343174275815e-20,0.32841918000000003,-0.34937334000000003,9.78005988,0.002392,0.000173,0.003745,0.18289946201162882
1757069497.0736902,0.0,0.0,0.0,0.0,0.0,-0.9140358521584159,-0.5835768137821783,6.130481015578951e-20,0.32407335000000004,-0.35491599000000007,9.77692068,0.00343,0.000185,0.005397,0.18270787893415708
1757069497.094371,0.0,0.0,0.0,0.0,0.0,-0.9140358521584159,-0.5835768137821783,5.770625171230114e-20,0.32287653,-0.35386632,9.772280550000001,0.001595,0.001178,0.003269,0.18285116404846577
1757069497.1146657,0.0,0.0,0.0,0.0,0.0,-0.9140358521584159,-0.5835768137821783,5.428846549964434e-20,0.30985866000000006,-0.35745678,9.76195062,0.00213,0.001496,0.003533,0.1866304848869549
1757069497.1351411,0.0,0.0,0.0,0.0,0.0,-0.9140358521584159,-0.5835768137821783,5.111620539303873e-20,0.30985866000000006,-0.35745678,9.76195062,0.00213,0.001496,0.003533,0.183577046356852
1757069497.1594462,0.0,0.0,0.0,0.0,0.0,-0.9140358521584159,-0.5835768137821783,4.520456878974406e-20,0.32796792,-0.34847082,9.77646942,0.004206,-0.000349,0.005365,0.18382161497488417
1757069497.179918,0.0,0.0,0.0,0.0,0.0,-0.9140358521584159,-0.5835768137821783,4.520456878974406e-20,0.32796792,-0.34847082,9.77646942,0.004206,-0.000349,0.005365,0.18382161497488417
1757069497.2008743,0.0,0.0,0.0,0.0,0.0,-0.9140358521584159,-0.5835768137821783,3.9918784328003234e-20,0.32287653,-0.34847082,9.77646942,0.004059,-0.00166,0.004187,0.18384406979088663
1757069497.2217987,0.0,0.0,0.0,0.0,0.0,-0.9140358521584159,-0.5835768137821783,3.9918784328003234e-20,0.32287653,-0.34847082,9.77646942,0.004059,-0.00166,0.004187,0.18384406979088663
1757069497.2421794,0.0,0.0,0.0,0.0,0.0,-0.9140358521584159,-0.5835768137821783,3.524194212508125e-20,0.33365772000000005,-0.35176698,9.779314320000001,0.004373,-0.000543,0.003502,0.18412260000064143
1757069497.2626812,0.0,0.0,0.0,0.0,0.0,-0.9140358521584159,-0.5835768137821783,3.524194212508125e-20,0.32662395,-0.35236539,9.77797035,0.00321,-0.001857,0.005734,0.18968334048749555
1757069497.283405,0.0,0.0,0.0,0.0,0.0,-0.9140358521584159,-0.5835768137821783,3.112422526023259e-20,0.31299785999999996,-0.34683255,9.764942670000002,0.002131,-5e-05,0.004806,0.1843026706128015
1757069497.3036883,0.0,0.0,0.0,0.0,0.0,-0.9140358521584159,-0.5835768137821783,3.112422526023259e-20,0.33964182000000004,-0.35939916000000005,9.77646942,0.00213,-0.001843,0.002799,0.19046630418482452
1757069497.3240724,0.0,0.0,0.0,0.0,0.0,-0.9140358521584159,-0.5835768137821783,2.746773728138407e-20,0.31883481,-0.34563573000000003,9.78560253,0.00268,0.000715,0.001856,0.18451005997091324
1757069497.347161,0.0,0.0,0.0,0.0,0.0,-0.9140358521584159,-0.5835768137821783,2.5779956031113774e-20,0.33036156,-0.3586536,9.77003406,0.00329,0.001082,0.004511,0.1854666997494882
1757069497.3674376,0.0,0.0,0.0,0.0,0.0,-0.9140358521584159,-0.5835768137821783,2.4233828501805085e-20,0.34159401,-0.35446473,9.77467419,0.00354,-0.000285,0.003616,0.18478192755675232
1757069497.388294,0.0,0.0,0.0,0.0,0.0,-0.9140358521584159,-0.5835768137821783,2.2745420224758377e-20,0.31883481,-0.34847082,9.78529842,0.00464,0.000603,0.003553,0.18560472987276888
1757069497.40924,0.0,0.0,0.0,0.0,0.0,-0.9140358521584159,-0.5835768137821783,2.1379331250709576e-20,0.32363190000000003,-0.37197558000000003,9.76269618,0.003341,-0.001144,0.003193,0.18500040575180798
1757069497.4319668,0.0,0.0,0.0,0.0,0.0,-0.9140358521584159,-0.5835768137821783,2.0041736794883468e-20,0.33095997000000005,-0.34877493000000004,9.76688505,0.00459,-0.000944,0.004608,0.1861289354965594
1757069497.4521232,0.0,0.0,0.0,0.0,0.0,-0.9140358521584159,-0.5835768137821783,1.882287158916626e-20,0.32931189000000005,-0.35191413000000005,9.775566900000001,0.002273,-0.000421,0.003303,0.18522319918923516
1757069497.4730217,0.0,0.0,0.0,0.0,0.0,-0.9140358521584159,-0.5835768137821783,1.766125832989655e-20,0.33021441000000007,-0.34967745000000006,9.767189160000001,0.002887,-0.001631,0.004521,0.18588151873184422
1757069497.493577,0.0,0.0,0.0,0.0,0.0,-0.9140358521584159,-0.5835768137821783,1.6587570212346135e-20,0.31584276000000006,-0.35999757000000004,9.76464837,0.001808,0.000468,0.003857,0.18554828023495087
1757069497.5136993,0.0,0.0,0.0,0.0,0.0,-0.9140358521584159,-0.5835768137821783,1.5567497773310087e-20,0.33320646000000004,-0.34533162,9.77377167,0.003284,0.000567,0.004765,0.18841953965561525
1757069497.5342221,0.0,0.0,0.0,0.0,0.0,-0.9140358521584159,-0.5835768137821783,1.46337745530914e-20,0.33320646000000004,-0.34533162,9.77377167,0.003284,0.000567,0.004765,0.1854818219010708
1757069497.5584362,0.0,0.0,0.0,0.0,0.0,-0.9140358521584159,-0.5835768137821783,1.2906560713841322e-20,0.3182364,-0.35985042,9.77512545,0.003114,0.001437,0.003988,0.1857816947342682
1757069497.5788116,0.0,0.0,0.0,0.0,0.0,-0.9140358521584159,-0.5835768137821783,1.2906560713841322e-20,0.3182364,-0.35985042,9.77512545,0.003114,0.001437,0.003988,0.1857816947342682
1757069497.5991368,0.0,0.0,0.0,0.0,0.0,-0.9140358521584159,-0.5835768137821783,1.1373653016145871e-20,0.33545295,-0.34458605999999997,9.77781339,0.002939,-0.000487,0.00342,0.1858734461647995
1757069497.6194854,0.0,0.0,0.0,0.0,0.0,-0.9140358521584159,-0.5835768137821783,1.1373653016145871e-20,0.33545295,-0.34458605999999997,9.77781339,0.002939,-0.000487,0.00342,0.1858734461647995
1757069497.6397161,0.0,0.0,0.0,0.0,0.0,-0.9140358521584159,-0.5835768137821783,1.0019059767482504e-20,0.31959018000000006,-0.34368354000000007,9.771682140000001,0.004489,-0.001324,0.004684,0.1860215291589386
1757069497.6603427,0.0,0.0,0.0,0.0,0.0,-0.9140358521584159,-0.5835768137821783,1.0019059767482504e-20,0.31959018000000006,-0.34368354000000007,9.771682140000001,0.004489,-0.001324,0.004684,0.1860215291589386
1757069497.6805768,0.0,0.0,0.0,0.0,0.0,-0.9140358521584159,-0.5835768137821783,8.831980045459508e-21,0.30701375999999997,-0.34847082,9.77737194,0.003186,-0.000251,0.003082,0.1862120787342356
1757069497.700618,0.0,0.0,0.0,0.0,0.0,-0.9140358521584159,-0.5835768137821783,8.831980045459508e-21,0.32497587,-0.35475903000000003,9.77632227,0.00248,-0.000825,0.005054,0.1862120787342356
1757069497.7206628,0.0,0.0,0.0,0.0,0.0,-0.9140358521584159,-0.5835768137821783,7.78731283057279e-21,0.32512302,-0.34892208,9.77826465,0.002782,0.000206,0.003673,0.18654395614755948
1757069497.7412937,0.0,0.0,0.0,0.0,0.0,-0.9140358521584159,-0.5835768137821783,7.78731283057279e-21,0.32512302,-0.34892208,9.77826465,0.002782,0.000206,0.003673,0.18654395614755948
1757069497.7619302,0.0,0.0,0.0,0.0,0.0,-0.9140358521584159,-0.5835768137821783,7.300935806292776e-21,0.32467176000000003,-0.34832367,9.780815250000002,0.004066,0.000172,0.002373,0.18761697522973736
1757069497.7841902,0.0,0.0,0.0,0.0,0.0,-0.9140358521584159,-0.5835768137821783,6.841471719457459e-21,0.31718673000000003,-0.35655426000000007,9.77302611,0.002255,5.1e-05,0.003446,0.1905630185643686
1757069497.8051486,0.0,0.0,0.0,0.0,0.0,-0.9140358521584159,-0.5835768137821783,6.033529393494245e-21,0.32542713,-0.34279083000000005,9.76568823,0.004191,0.000104,0.006007,0.18665006071666954
1757069497.8281925,0.0,0.0,0.0,0.0,0.0,-0.9140358521584159,-0.5835768137821783,5.660585367098488e-21,0.33650262000000003,-0.347274,9.783503190000001,0.004544,-0.000851,0.007332,0.18781067187950115
1757069497.848692,0.0,0.0,0.0,0.0,0.0,-0.9140358521584159,-0.5835768137821783,5.321168189213251e-21,0.31749084,-0.34952049,9.764491410000002,0.004736,-0.002061,0.004416,0.18700518080203013
1757069497.869917,0.0,0.0,0.0,0.0,0.0,-0.9140358521584159,-0.5835768137821783,4.992473075598269e-21,0.32048288999999996,-0.34847082,9.78993855,0.002086,-0.000188,0.003709,0.18804529312437746
1757069497.890697,0.0,0.0,0.0,0.0,0.0,-0.9140358521584159,-0.5835768137821783,4.6926878571612666e-21,0.33844500000000005,-0.34159401,9.78185511,0.003578,-0.000612,0.003692,0.18726337820149483
1757069497.9118514,0.0,0.0,0.0,0.0,0.0,-0.9140358521584159,-0.5835768137821783,4.401886348844556e-21,0.33050871,-0.3586536,9.77976558,0.000762,-0.00079,0.005166,0.18829495968163779
1757069497.931882,0.0,0.0,0.0,0.0,0.0,-0.9140358521584159,-0.5835768137821783,4.136407853701385e-21,0.32946885,-0.35611281,9.772280550000001,0.000313,-8.3e-05,0.004424,0.18751663165690838
1757069497.9534392,0.0,0.0,0.0,0.0,0.0,-0.9140358521584159,-0.5835768137821783,3.8810902565509446e-21,0.32542713,-0.35611281,9.7724277,0.003294,8.6e-05,0.003996,0.19069266458065895
1757069497.974034,0.0,0.0,0.0,0.0,0.0,-0.9140358521584159,-0.5835768137821783,3.647667087777515e-21,0.32542713,-0.35611281,9.7724277,0.003294,8.6e-05,0.003996,0.18768518896075573
1757069497.994892,0.0,0.0,0.0,0.0,0.0,-0.9140358521584159,-0.5835768137821783,3.420788974097461e-21,0.31330197000000004,-0.35071731,9.77003406,0.004222,0.000725,0.004885,0.190817309934631
1757069498.0154963,0.0,0.0,0.0,0.0,0.0,-0.9140358521584159,-0.5835768137821783,3.2143618075282874e-21,0.31330197000000004,-0.35071731,9.77003406,0.004222,0.000725,0.004885,0.18786179552820814
1757069498.0365899,0.0,0.0,0.0,0.0,0.0,-0.9140358521584159,-0.5835768137821783,3.012474527848763e-21,0.32302368,-0.34323228,9.79203789,0.004427,-0.001291,0.004398,0.19086773569322318
1757069498.0571172,0.0,0.0,0.0,0.0,0.0,-0.9140358521584159,-0.5835768137821783,2.8297752548838967e-21,0.32302368,-0.34323228,9.79203789,0.004427,-0.001291,0.004398,0.18801690358003165
1757069498.0786366,0.0,0.0,0.0,0.0,0.0,-0.9140358521584159,-0.5835768137821783,2.495147326367796e-21,0.31150674,-0.35715267000000006,9.771378030000001,0.00267,-0.001637,0.004769,0.18829400223034815
1757069498.099375,0.0,0.0,0.0,0.0,0.0,-0.9140358521584159,-0.5835768137821783,2.495147326367796e-21,0.31150674,-0.35715267000000006,9.771378030000001,0.00267,-0.001637,0.004769,0.18829400223034815
1757069498.1198769,0.0,0.0,0.0,0.0,0.0,-0.9140358521584159,-0.5835768137821783,2.200070771910189e-21,0.32646699000000007,-0.3469797,9.76284333,0.003916,-0.000723,0.004451,0.18843243862263803
1757069498.1402237,0.0,0.0,0.0,0.0,0.0,-0.9140358521584159,-0.5835768137821783,2.200070771910189e-21,0.32646699000000007,-0.3469797,9.76284333,0.003916,-0.000723,0.004451,0.18843243862263803
1757069498.160985,0.0,0.0,0.0,0.0,0.0,-0.9140358521584159,-0.5835768137821783,1.9381628077479754e-21,0.31359627000000007,-0.34069149000000004,9.78170796,0.003202,0.001486,0.004305,0.18858394384187244
1757069498.1822498,0.0,0.0,0.0,0.0,0.0,-0.9140358521584159,-0.5835768137821783,1.9381628077479754e-21,0.31285071000000003,-0.35880075000000006,9.775723860000001,0.004023,0.000211,0.002286,0.19428183411018907
1757069498.2029974,0.0,0.0,0.0,0.0,0.0,-0.9140358521584159,-0.5835768137821783,1.7085523276480023e-21,0.33485454,-0.35116857000000007,9.76195062,0.003565,0.000631,0.003134,0.18893114643905717
1757069498.2233353,0.0,0.0,0.0,0.0,0.0,-0.9140358521584159,-0.5835768137821783,1.6041405641567806e-21,0.32272938,-0.34533162,9.77661657,0.00458,0.000289,0.004216,0.189528108533658
1757069498.2439592,0.0,0.0,0.0,0.0,0.0,-0.9140358521584159,-0.5835768137821783,1.507418010436946e-21,0.31808925000000005,-0.35131572,9.771976440000001,0.004978,-0.000373,0.004084,0.1892577745046435
1757069498.264284,0.0,0.0,0.0,0.0,0.0,-0.9140358521584159,-0.5835768137821783,1.507418010436946e-21,0.31808925000000005,-0.35131572,9.771976440000001,0.004978,-0.000373,0.004084,0.1892577745046435
1757069498.2848003,0.0,0.0,0.0,0.0,0.0,-0.9140358521584159,-0.5835768137821783,1.507418010436946e-21,0.33335360999999997,-0.35925201,9.77617512,0.003748,-0.001222,0.00437,0.19981808084093844
1757069498.3059158,0.0,0.0,0.0,0.0,0.0,-0.9140358521584159,-0.5835768137821783,1.3188071948162415e-21,0.31479309,-0.35057015999999996,9.78634809,0.002588,-0.000483,0.003274,0.18954166232176373
1757069498.3273249,0.0,0.0,0.0,0.0,0.0,-0.9140358521584159,-0.5835768137821783,1.236420564603907e-21,0.33874911,-0.3558087,9.78470001,0.00319,-0.002169,0.002723,0.19298688236518297
1757069498.3482869,0.0,0.0,0.0,0.0,0.0,-0.9140358521584159,-0.5835768137821783,1.160111312821685e-21,0.31658832000000003,-0.34323228,9.77646942,0.002837,-0.00015,0.004278,0.19398820936802724
1757069498.3713129,0.0,0.0,0.0,0.0,0.0,-0.9140358521584159,-0.5835768137821783,1.0219582094518123e-21,0.31749084,-0.34906923,9.77886306,0.00202,-0.0004,0.003937,0.18990010077761102
1757069498.394544,0.0,0.0,0.0,0.0,0.0,-0.9140358521584159,-0.5835768137821783,9.589987158401253e-22,0.30835773000000005,-0.34188831000000003,9.78515127,0.003218,0.001685,0.003749,0.19037864377962316
1757069498.4153035,0.0,0.0,0.0,0.0,0.0,-0.9140358521584159,-0.5835768137821783,9.009416969804163e-22,0.32931189000000005,-0.35475903000000003,9.79758054,0.006379,0.000936,0.004589,0.1900232283304586
1757069498.4391804,0.0,0.0,0.0,0.0,0.0,-0.9140358521584159,-0.5835768137821783,7.955060831015618e-22,0.32887044,-0.36194976,9.77692068,0.003341,-0.000985,0.004755,0.19007529792153993
1757069498.4595876,0.0,0.0,0.0,0.0,0.0,-0.9140358521584159,-0.5835768137821783,7.955060831015618e-22,0.32887044,-0.36194976,9.77692068,0.003341,-0.000985,0.004755,0.19007529792153993
1757069498.4806676,0.0,0.0,0.0,0.0,0.0,-0.9140358521584159,-0.5835768137821783,7.018111642857737e-22,0.32617269000000004,-0.35147268,9.77377167,0.003642,-0.001278,0.005163,0.19014900955268005
1757069498.5011945,0.0,0.0,0.0,0.0,0.0,-0.9140358521584159,-0.5835768137821783,7.018111642857737e-22,0.32617269000000004,-0.35147268,9.77377167,0.003642,-0.001278,0.005163,0.19014900955268005
1757069498.5218093,0.0,0.0,0.0,0.0,0.0,-0.9140358521584159,-0.5835768137821783,6.190793294003359e-22,0.32302368,-0.34263387,9.767787570000001,0.00343,-7.7e-05,0.004407,0.19038453327161156
1757069498.5438805,0.0,0.0,0.0,0.0,0.0,-0.9140358521584159,-0.5835768137821783,6.190793294003359e-22,0.32841918000000003,-0.35535744,9.7866522,0.00312,-0.000391,0.005051,0.1964802371689609
1757069498.564064,0.0,0.0,0.0,0.0,0.0,-0.9140358521584159,-0.5835768137821783,5.461211281410712e-22,0.33126408,-0.35446473,9.779167170000001,0.002298,0.000172,0.00475,0.19055446904550077
1757069498.5863438,0.0,0.0,0.0,0.0,0.0,-0.9140358521584159,-0.5835768137821783,5.125108992109818e-22,0.32407335000000004,-0.35850645000000003,9.76883724,0.002836,0.000122,0.00396,0.1915688983486324
1757069498.606994,0.0,0.0,0.0,0.0,0.0,-0.9140358521584159,-0.5835768137821783,4.817042380034382e-22,0.33231375,-0.33829785,9.775566900000001,0.002349,0.001374,0.004386,0.19091418329286938
1757069498.6288702,0.0,0.0,0.0,0.0,0.0,-0.9140358521584159,-0.5835768137821783,4.518213423851399e-22,0.33050871,-0.3529638,9.775871010000001,0.003769,-3.8e-05,0.003997,0.19188214053801106
1757069498.6494462,0.0,0.0,0.0,0.0,0.0,-0.9140358521584159,-0.5835768137821783,4.2456220362369e-22,0.32287653,-0.34518447,9.77407578,0.003659,-0.001749,0.003764,0.19107230293137611
1757069498.6713483,0.0,0.0,0.0,0.0,0.0,-0.9140358521584159,-0.5835768137821783,3.9802228647162055e-22,0.32347494000000004,-0.36044883,9.77976558,0.003898,0.000768,0.003025,0.1921586928768921
1757069498.6915715,0.0,0.0,0.0,0.0,0.0,-0.9140358521584159,-0.5835768137821783,3.7392666047826945e-22,0.31928607000000003,-0.34593003000000005,9.771230880000001,0.003344,-0.000572,0.004669,0.19121838492526608
1757069498.71187,0.0,0.0,0.0,0.0,0.0,-0.9140358521584159,-0.5835768137821783,3.5092983947740623e-22,0.33829785,-0.36299943,9.7812567,0.001908,-0.001189,0.00448,0.19197338200224615
1757069498.7323573,0.0,0.0,0.0,0.0,0.0,-0.9140358521584159,-0.5835768137821783,3.29823320682737e-22,0.31959018000000006,-0.36314658000000005,9.767787570000001,0.002672,-9.5e-05,0.005053,0.19147290197847594
1757069498.7532022,0.0,0.0,0.0,0.0,0.0,-0.9140358521584159,-0.5835768137821783,3.0943047216850963e-22,0.31808925000000005,-0.35176698,9.77886306,0.003074,0.000183,0.004349,0.19452927580425497
1757069498.7738812,0.0,0.0,0.0,0.0,0.0,-0.9140358521584159,-0.5835768137821783,2.908432990974927e-22,0.31808925000000005,-0.35176698,9.77886306,0.003074,0.000183,0.004349,0.19159981213026092
1757069498.7974572,0.0,0.0,0.0,0.0,0.0,-0.9140358521584159,-0.5835768137821783,2.563784508519497e-22,0.33440328,-0.34802937000000006,9.787849020000001,0.002731,-0.000164,0.004953,0.19174451906724516
1757069498.8181474,0.0,0.0,0.0,0.0,0.0,-0.9140358521584159,-0.5835768137821783,2.563784508519497e-22,0.33440328,-0.34802937000000006,9.787849020000001,0.002731,-0.000164,0.004953,0.19174451906724516
1757069498.8384566,0.0,0.0,0.0,0.0,0.0,-0.9140358521584159,-0.5835768137821783,2.2606375678145275e-22,0.3210813,-0.34802937000000006,9.78515127,0.004759,-0.001042,0.005584,0.19204398893203622
1757069498.8587832,0.0,0.0,0.0,0.0,0.0,-0.9140358521584159,-0.5835768137821783,2.2606375678145275e-22,0.3210813,-0.34802937000000006,9.78515127,0.004759,-0.001042,0.005584,0.19204398893203622
1757069498.8792129,0.0,0.0,0.0,0.0,0.0,-0.9140358521584159,-0.5835768137821783,1.9910065307048262e-22,0.32302368,-0.36539307000000004,9.78814332,0.002862,-0.00166,0.004695,0.19215260422191588
1757069498.9015093,0.0,0.0,0.0,0.0,0.0,-0.9140358521584159,-0.5835768137821783,1.9910065307048262e-22,0.31644117000000005,-0.34937334000000003,9.78005988,0.002365,-0.000879,0.003872,0.19763345245156524
1757069498.9225352,0.0,0.0,0.0,0.0,0.0,-0.9140358521584159,-0.5835768137821783,1.755516866907411e-22,0.32033574000000004,-0.34638129,9.78814332,0.003207,-0.001685,0.004494,0.1924611187268675
1757069498.9426646,0.0,0.0,0.0,0.0,0.0,-0.9140358521584159,-0.5835768137821783,1.755516866907411e-22,0.3179421,-0.3501189,9.7724277,0.002483,0.000138,0.003679,0.1924611187268675
1757069498.9630694,0.0,0.0,0.0,0.0,0.0,-0.9140358521584159,-0.5835768137821783,1.5470143742539787e-22,0.31928607000000003,-0.34623414,9.77018121,0.002483,0.000138,0.003679,0.19252662425003297
