timestamp,x,y,theta,vx,vy,bias_accel_x,bias_accel_y,bias_angular_velocity,accel_x,accel_y,accel_z,gyro_x,gyro_y,gyro_z,cov_trace
1757946310.8124359,0.0,0.0,0.0,0.0,0.0,-2.0734338052325576,0.3535910886627907,0.009630358527131785,0.0953532,0.3008727,9.787849020000001,0.003923,-0.000746,0.004852,3.13
1757946310.8325198,-0.0008426292466495411,-3.6102835395016714e-05,0.6027269357070448,-0.38607299825905533,-0.016541474156076125,-2.0734338052325576,0.3535910886627907,0.000458559887238124,0.08696565,0.29818476,9.79218504,0.000566,-0.000618,0.004043,0.9356957856008897
1757946310.8532882,-0.006430356337294911,0.0006268024298456147,0.9191006795929715,-0.45088700048340336,0.04857650648323503,-2.0734338052325576,0.3535910886627907,0.0002343528827557915,0.08157996,0.30117681,9.77706783,0.00677,-0.001623,0.004475,0.5872626576788376
1757946310.8735437,-0.005560252425970591,0.0006342038980986368,1.1131270439745302,-0.24617737170341644,0.032196952958235284,-2.0734338052325576,0.3535910886627907,0.00015703946031075044,0.07708698000000001,0.29593827,9.79084107,0.002583,0.000953,0.00368,0.4095144698680758
1757946310.896652,-0.010487234041367696,0.003417338352036821,1.2519845124350795,-0.26645309712422727,0.09755037623233681,-2.0734338052325576,0.3535910886627907,0.00011757773381198975,0.07903917,0.29278926000000005,9.77108373,0.002699,0.000483,0.005524,0.33394615274966266
1757946310.9172146,-0.01297275189145787,0.006526872082637298,1.3563652112003144,-0.2868881468001898,0.16037152363799123,-2.0734338052325576,0.3535910886627907,9.371699324448274e-05,0.08098155,0.30237363,9.76508982,0.002298,-0.001394,0.005417,0.2833744988143246
1757946310.9382849,-0.01918511358110628,0.012677154094648396,1.4386227474564635,-0.30804695711193447,0.22246530257286085,-2.0734338052325576,0.3535910886627907,7.75271767045334e-05,0.06586434000000001,0.29338767,9.775723860000001,0.00169,-0.001337,0.004469,0.25002262730675784
1757946310.9602637,-0.022632606794013098,0.019657097725411448,1.560373838204539,-0.34448960507627063,0.3255144804081283,-2.0734338052325576,0.3535910886627907,5.732462994984309e-05,0.06930765,0.29069973,9.7812567,0.003502,-0.000863,0.006077,0.20161993051276195
1757946310.9808922,-0.019611541351495558,0.025140122207091876,1.6392134540975505,-0.25677154313098227,0.3736058471672738,-2.0734338052325576,0.3535910886627907,5.051636587570673e-05,0.06840513000000001,0.30147111000000004,9.760008240000001,0.00072,0.000467,0.004637,0.1782872194880013
1757946311.0017326,-0.019611541351495558,0.025140122207091876,1.6392134540975505,-0.25677154313098227,0.3736058471672738,-2.0734338052325576,0.3535910886627907,5.051636587570673e-05,0.06840513000000001,0.30147111000000004,9.760008240000001,0.00072,0.000467,0.004637,0.1782872194880013
1757946311.022151,-0.022273706687855072,0.040684592837270696,1.740997530950235,-0.21725316346932838,0.46624099384245543,-2.0734338052325576,0.3535910886627907,4.0325657999661096e-05,0.05972328,0.31239945,9.771525180000001,0.002401,0.000998,0.005053,0.1516965799641119
1757946311.0440934,-0.02570582154500975,0.05120254005678727,1.7783765944221148,-0.21892100125717473,0.5064260111794974,-2.0734338052325576,0.3535910886627907,3.643887282017935e-05,0.07559586,0.28620675,9.77437008,0.003515,-0.001537,0.003889,0.14356429790582614
1757946311.0647795,-0.027251499286903832,0.056479417164218566,1.8099933201360408,-0.22635413756998715,0.5415347961135649,-2.0734338052325576,0.3535910886627907,3.3153791243925e-05,0.07215255000000001,0.29788065,9.77677353,0.004681,-0.002124,0.002481,0.1350784290348577
1757946311.086428,-0.03256476730136274,0.06997760994343956,1.8373352135827918,-0.23683269419321865,0.5746542446126983,-2.0734338052325576,0.3535910886627907,3.0252057488170875e-05,0.05852646,0.29054277,9.75776175,0.002463,-0.00016,0.002717,0.13040317265119827
1757946311.1074035,-0.034248039224214134,0.07406299726502912,1.8610210507994296,-0.24917722371515072,0.6030522328659176,-2.0734338052325576,0.3535910886627907,2.7758865300568215e-05,0.08277678,0.29084688000000003,9.79892451,0.004138,-0.002388,0.004801,0.12356422876787596
1757946311.1275966,-0.039915932073343596,0.08719362745149836,1.8818921493569132,-0.2626384364748536,0.6295200208558698,-2.0734338052325576,0.3535910886627907,2.5519026369624387e-05,0.07574301000000001,0.2863539,9.77737194,0.002441,-0.000615,0.003999,0.12021065050466492
1757946311.1481936,-0.04224924098580413,0.09184883996605256,1.9002726209492051,-0.2763463814053957,0.6523639115764044,-2.0734338052325576,0.3535910886627907,2.3558343744894505e-05,0.0865242,0.31449879,9.76164651,0.003383,-0.000367,0.005526,0.1149189734382848
1757946311.1688516,-0.04894554612402724,0.1063283324981758,1.9167057425289702,-0.29040194047989787,0.6737550644991163,-2.0734338052325576,0.3535910886627907,2.176388071147528e-05,0.06960195,0.28994436,9.78829047,0.00409,-0.001058,0.00346,0.11282519229049576
1757946311.1898093,-0.05150886983506656,0.11081912645047598,1.9313471020064252,-0.303981317348172,0.6921857240431245,-2.0734338052325576,0.3535910886627907,2.017570502972246e-05,0.07125003,0.28680516,9.780815250000002,0.001146,0.001279,0.004708,0.108351454904967
1757946311.2121618,-0.058347150654548714,0.12469111761095446,1.944567794291025,-0.3174355000257667,0.7092828300505521,-2.0734338052325576,0.3535910886627907,1.8710733364215477e-05,0.07079877000000001,0.29533986,9.765246780000002,0.004402,-0.001743,0.003486,0.10671155434305564
1757946311.2313213,-0.06094650850446641,0.12879501814516592,1.9564540689154981,-0.3300771944883507,0.7240008262977005,-2.0734338052325576,0.3535910886627907,1.7403756727903652e-05,0.07079877000000001,0.29533986,9.765246780000002,0.004402,-0.001743,0.003486,0.10282088081070635
1757946311.2573755,-0.07122488865083072,0.1475333151919814,1.977121442310871,-0.3539273634613946,0.7496241622135169,-2.0734338052325576,0.3535910886627907,1.508150803328755e-05,0.07184844,0.29159244,9.77392863,0.003136,-0.000591,0.004317,0.09833496208115718
1757946311.282155,-0.07811730938872898,0.16022778944797872,1.98611513084826,-0.36484816996438557,0.7603967554102072,-2.0734338052325576,0.3535910886627907,1.4061763296819134e-05,0.07380063,0.29278926000000005,9.75640797,0.002596,0.000545,0.002597,0.09730326603213135
1757946311.3028917,-0.08198113774493948,0.16641976699111916,1.994333455464682,-0.3749727575488092,0.7698222147734758,-2.0734338052325576,0.3535910886627907,1.3132468796098927e-05,0.07813665,0.29952873,9.78560253,0.003454,-0.000878,0.005108,0.09482161343499684
1757946311.323912,-0.08903693292321872,0.17899952668187952,2.0019123604410627,-0.38458156627042656,0.7784185887362883,-2.0734338052325576,0.3535910886627907,1.2262588603321255e-05,0.07275096,0.29189655000000003,9.79817895,0.004075,0.000328,0.00459,0.09399358627739077
1757946311.344408,-0.09275470715472939,0.18468335746677744,2.0088745097830882,-0.39342252850622883,0.7859013450065727,-2.0734338052325576,0.3535910886627907,1.1467982157194433e-05,0.08292393,0.30266793,9.767189160000001,0.002166,0.001979,0.005231,0.09166042265155126
1757946311.3647418,-0.09275470715472939,0.18468335746677744,2.0088745097830882,-0.39342252850622883,0.7859013450065727,-2.0734338052325576,0.3535910886627907,1.1467982157194433e-05,0.08292393,0.30266793,9.767189160000001,0.002166,0.001979,0.005231,0.09166042265155126
1757946311.3881078,-0.10805969888531657,0.21129489863100734,2.0214195552810583,-0.40989590963841965,0.7991930926431428,-2.0734338052325576,0.3535910886627907,9.986918861922645e-06,0.08382645000000001,0.30161826,9.77886306,0.004737,0.001434,0.002705,0.09008351896268094
1757946311.4093933,-0.1111213232708332,0.21546395439403107,2.0269668243023045,-0.4169718709213172,0.8043644648419517,-2.0734338052325576,0.3535910886627907,9.34907393432526e-06,0.07693983,0.29878317000000004,9.75446559,0.002867,-0.000431,0.004263,0.08775663511245851
1757946311.4300818,-0.1147660351016317,0.22076751014751894,2.032110374644528,-0.42346843116729377,0.8088530490514358,-2.0734338052325576,0.3535910886627907,8.76288647828409e-06,0.07005321,0.3122523,9.76628664,0.005557,0.001337,0.003474,0.08598232480206165
1757946311.4506807,-0.12330170681314023,0.23532355714971395,2.036938053481668,-0.4296131134979236,0.812942286728344,-2.0734338052325576,0.3535910886627907,8.204393424822713e-06,0.06706116000000001,0.30027429,9.774968490000001,0.002132,-0.000154,0.002793,0.08628655686095929
1757946311.4710379,-0.12636659058306288,0.23945793564123866,2.041427082025157,-0.4352187025321599,0.8164397735560621,-2.0734338052325576,0.3535910886627907,7.692735549834125e-06,0.08053028999999999,0.29578131,9.75416148,0.003839,-0.001471,0.004363,0.08424964447796493
1757946311.495245,-0.1392435404213225,0.2618693912317855,2.045694916640019,-0.4405961915285047,0.8196752273778879,-2.0734338052325576,0.3535910886627907,7.191254903660359e-06,0.08471916,0.29713509,9.780511140000002,0.004336,-0.00072,0.004218,0.08614339098742066
1757946311.5165024,-0.14028577259832245,0.26217778420737586,2.0496589951751325,-0.4454272448911912,0.8223475088214195,-2.0734338052325576,0.3535910886627907,6.739038597891435e-06,0.07035732,0.30446316,9.78904584,0.000511,-0.000658,0.003944,0.08309727399682479
1757946311.5375066,-0.1480748117354799,0.273429632247133,2.056870133465205,-0.4539736382519808,0.8265881104768031,-2.0734338052325576,0.3535910886627907,5.9295824170369095e-06,0.08188407,0.29369178,9.803260530000001,0.003187,7.4e-05,0.004106,0.08024378557758999
1757946311.5582838,-0.1480748117354799,0.273429632247133,2.056870133465205,-0.4539736382519808,0.8265881104768031,-2.0734338052325576,0.3535910886627907,5.9295824170369095e-06,0.08188407,0.29369178,9.803260530000001,0.003187,7.4e-05,0.004106,0.08024378557758999
1757946311.578846,-0.15943154225917497,0.2911257532843509,2.0632904639285643,-0.4613154038286956,0.8296817993965994,-2.0734338052325576,0.3535910886627907,5.218091713660608e-06,0.07739109000000001,0.31030011,9.78859458,0.003739,0.000592,0.002709,0.07901170196019025
1757946311.604538,-0.1686095532201153,0.3061880863664948,2.066251233520294,-0.4645956892749118,0.8308621956696154,-2.0734338052325576,0.3535910886627907,4.8924211098280435e-06,0.08007903000000001,0.29249496,9.79892451,0.001069,6.3e-05,0.005904,0.07983755213428359
1757946311.6248662,-0.1704917770858485,0.30818256077662726,2.069032937458589,-0.46759887143258244,0.8318202968234581,-2.0734338052325576,0.3535910886627907,4.594718360714683e-06,0.0782838,0.30266793,9.780658290000002,0.003025,0.001017,0.004329,0.07779484054411559
1757946311.6458066,-0.179456469660257,0.322758518139465,2.0716928446073872,-0.4704031839574052,0.8325841088462274,-2.0734338052325576,0.3535910886627907,4.308990073233582e-06,0.07260381,0.30027429,9.7724277,0.003225,-0.000297,0.003475,0.0785800184795453
1757946311.66691,-0.182050838192547,0.3260389689542739,2.074202197575026,-0.4729828269666881,0.8331806834702784,-2.0734338052325576,0.3535910886627907,4.046343690199748e-06,0.07724394000000001,0.28725642,9.79727643,0.000304,9.8e-05,0.004218,0.07687376179059306
1757946311.6874003,-0.1923239328544003,0.3428147426300069,2.0766149201326964,-0.47538194338895173,0.8335870823145066,-2.0734338052325576,0.3535910886627907,3.7923197996271957e-06,0.07693983,0.29982303,9.772280550000001,0.005827,-0.000403,0.004,0.07810043156101285
1757946311.7077434,-0.19298261144199666,0.3427207486551809,2.0788855647108777,-0.4775910729254,0.833884752862984,-2.0734338052325576,0.3535910886627907,3.561807051918022e-06,0.07903917,0.3005784,9.78560253,0.002546,-0.00144,0.002562,0.07566783448908154
1757946311.7281702,-0.20197859119909856,0.35718137680018036,2.081067903893617,-0.47963872506118765,0.8340237691083601,-2.0734338052325576,0.3535910886627907,3.3404474878005522e-06,0.07320222,0.28845324,9.7954812,0.003022,0.000712,0.003475,0.07655562576340157
1757946311.7482462,-0.20370195480502454,0.35898863621589705,2.083131361077662,-0.48153658423234497,0.8340876737609325,-2.0734338052325576,0.3535910886627907,3.1378471398434507e-06,0.06271533,0.30072555,9.779010210000001,0.004178,-0.001257,0.003571,0.07468190929274468
1757946311.7684443,-0.21382596205156795,0.3753304607664633,2.085124272130627,-0.48328469767860804,0.8339909320423721,-2.0734338052325576,0.3535910886627907,2.9418663332160615e-06,0.07289811,0.28800198,9.80236782,0.001002,0.001425,0.004062,0.07599840671734395
1757946311.7887492,-0.21382596205156795,0.3753304607664633,2.085124272130627,-0.48328469767860804,0.8339909320423721,-2.0734338052325576,0.3535910886627907,2.9418663332160615e-06,0.07289811,0.28800198,9.80236782,0.001002,0.001425,0.004062,0.07599840671734395
1757946311.8113537,-0.2266161191805047,0.3950369681027709,2.0888875356992997,-0.4863277802173994,0.8333487649552056,-2.0734338052325576,0.3535910886627907,2.577975736107692e-06,0.07693983,0.29847906,9.77601816,0.002556,-0.00271,0.004126,0.07489277130456634
1757946311.8314111,-0.22690142161080767,0.39443379759156677,2.09061408701389,-0.4877171521366052,0.8330464251420502,-2.0734338052325576,0.3535910886627907,2.421540015806359e-06,0.07020036,0.29233800000000004,9.799670070000001,0.001037,-0.002618,0.005345,0.07270121470855459
1757946311.8517277,-0.23989098677110424,0.4155121749407345,2.092276260695291,-0.4889999315193405,0.8326586749483856,-2.0734338052325576,0.3535910886627907,2.272783961307995e-06,0.08188407,0.30221667,9.765246780000002,0.003586,0.001457,0.005508,0.07579378626254543
1757946311.872122,-0.23548150718561514,0.4069718931513257,2.0938548924582356,-0.4902133180015857,0.8322827698299281,-2.0734338052325576,0.3535910886627907,2.13646909618724e-06,0.08188407,0.30221667,9.765246780000002,0.003586,0.001457,0.005508,0.07164931754024698
1757946311.8970928,-0.24634034161478346,0.42338123834193486,2.096844179297819,-0.49236139373698956,0.8313124469392831,-2.0734338052325576,0.3535910886627907,1.8837541057633534e-06,0.08442486000000002,0.28785483,9.791292330000001,0.005107,-0.003099,0.00311,0.07131709450692608
1757946311.9178667,-0.24634034161478346,0.42338123834193486,2.096844179297819,-0.49236139373698956,0.8313124469392831,-2.0734338052325576,0.3535910886627907,1.8837541057633534e-06,0.08442486000000002,0.28785483,9.791292330000001,0.005107,-0.003099,0.00311,0.07131709450692608
1757946311.9381597,-0.25677929736150745,0.43906816891272515,2.0996049656223654,-0.49420764503964326,0.8301837310044525,-2.0734338052325576,0.3535910886627907,1.6606514105008097e-06,0.07574301000000001,0.28905165000000005,9.768385980000001,0.003935,-0.00158,0.005508,0.07079533749622777
1757946311.95942,-0.25677929736150745,0.43906816891272515,2.0996049656223654,-0.49420764503964326,0.8301837310044525,-2.0734338052325576,0.3535910886627907,1.6606514105008097e-06,0.06601149,0.27932013,9.791292330000001,0.002702,5e-06,0.003074,0.07079533749622777
1757946311.980315,-0.2665949371567693,0.45370571956135847,2.1021581331609998,-0.4957972455437074,0.8289440269639741,-2.0734338052325576,0.3535910886627907,1.4642117082747493e-06,0.06691401,0.30670965,9.780962400000002,0.003272,-0.000988,0.003662,0.07011892013300573
1757946312.00624,-0.2767725620985606,0.4698157844776386,2.103372389132657,-0.49647897792494095,0.8282312015584904,-2.0734338052325576,0.3535910886627907,1.373365100819438e-06,0.07334937000000001,0.29668383,9.77302611,0.00528,-0.001051,0.004565,0.07175433253638966
1757946312.0270875,-0.2773293287217397,0.46987559789971844,2.104528491825368,-0.49715181790163754,0.8275936080907178,-2.0734338052325576,0.3535910886627907,1.290518633290809e-06,0.0663156,0.30386475,9.755662410000001,0.000891,-6e-05,0.003887,0.06981259039428964
1757946312.047704,-0.28527247576169096,0.48223615379954243,2.1056516318750056,-0.497746967175812,0.8268777018059336,-2.0734338052325576,0.3535910886627907,1.2112025306440184e-06,0.08248248000000001,0.29757654,9.74848149,0.004448,-0.002433,0.004191,0.07070351371522934
1757946312.0684192,-0.2872618660148325,0.48470794152138474,2.1067262244492344,-0.4983266746987111,0.8262111734596629,-2.0734338052325576,0.3535910886627907,1.1381198006880258e-06,0.06990606,0.29398608000000004,9.787093650000001,0.004232,-0.001175,0.003605,0.0693941570342356
1757946312.0889864,-0.29786572339977113,0.5014525635572812,2.1077784146567264,-0.4988013159468453,0.8254051781630041,-2.0734338052325576,0.3535910886627907,1.0670432242176438e-06,0.07469334000000001,0.29069973,9.771525180000001,0.001717,0.000208,0.004424,0.07116103992202052
1757946312.1096997,-0.2981689317498506,0.5011514513782673,2.1087812076291526,-0.49928844107837816,0.8246959318155288,-2.0734338052325576,0.3535910886627907,1.002331398337251e-06,0.07380063,0.31674527999999996,9.760008240000001,0.004726,-0.00215,0.003693,0.06913215660268601
1757946312.1301537,-0.30810566092746783,0.5167608802255362,2.1097622507129703,-0.499680126930649,0.8238630685629214,-2.0734338052325576,0.3535910886627907,9.396810674586403e-07,0.07304526,0.29114118,9.77452704,0.002817,-0.000434,0.005289,0.0706852667491204
1757946312.151074,-0.30784070416620873,0.5155535815253741,2.1106965679115506,-0.5000978739751506,0.8231450676412092,-2.0734338052325576,0.3535910886627907,8.828166168942831e-07,0.07079877000000001,0.3065625,9.77692068,0.001614,-0.001169,0.003239,0.06852586939068282
1757946312.1765363,-0.3167747574808284,0.5287531971678734,2.1124771973762657,-0.5008153047556083,0.8216517265626216,-2.0734338052325576,0.3535910886627907,7.784934139829676e-07,0.08846658,0.30551283,9.76508982,0.002328,0.000636,0.004317,0.06798394031151786
1757946312.1975105,-0.3167747574808284,0.5287531971678734,2.1124771973762657,-0.5008153047556083,0.8216517265626216,-2.0734338052325576,0.3535910886627907,7.784934139829676e-07,0.08846658,0.30551283,9.76508982,0.002328,0.000636,0.004317,0.06798394031151786
1757946312.2202957,-0.328261085121472,0.5461404291399489,2.1141473989696227,-0.5013884628964697,0.8200930789033434,-2.0734338052325576,0.3535910886627907,6.85776291911454e-07,0.07005321,0.30252078000000004,9.780658290000002,0.003788,-0.000175,0.003374,0.06828093091222642
1757946312.243312,-0.3345276043956461,0.5556846565353242,2.114942244789976,-0.5016331900145073,0.8193075830806271,-2.0734338052325576,0.3535910886627907,6.435826211108908e-07,0.07873506000000001,0.29593827,9.7781175,0.000365,0.000214,0.005442,0.0686621590478837
1757946312.2634864,-0.33562549501925026,0.5567953383076074,2.115703851782703,-0.5018980993472426,0.8186059619584667,-2.0734338052325576,0.3535910886627907,6.048447060030706e-07,0.06900354,0.30221667,9.77317326,0.004658,-4.8e-05,0.003366,0.06724308595345149
1757946312.2874212,-0.3457620936154593,0.5726446709200361,2.1164521202956488,-0.5020722097813533,0.8177776667310561,-2.0734338052325576,0.3535910886627907,5.671994342052129e-07,0.06511878,0.29623257000000003,9.763598700000001,0.002879,0.001706,0.003374,0.06906077206808327
1757946312.3074324,-0.34544731387773736,0.5714736822593296,2.1171665922862886,-0.5022889598968058,0.8170700970797682,-2.0734338052325576,0.3535910886627907,5.32969865829781e-07,0.0779895,0.30386475,9.80236782,0.00201,-0.001427,0.005129,0.06704510640572395
1757946312.3279104,-0.3547330164219566,0.585921353010941,2.1178674065057406,-0.5024266193495512,0.8162557244773524,-2.0734338052325576,0.3535910886627907,4.998744653296563e-07,0.06825798,0.30266793,9.75836016,0.004074,-0.000425,0.003698,0.0685941648526855
1757946312.3479357,-0.3547726208913589,0.585351359946434,2.1185376109775422,-0.5026048215904381,0.8155536100379248,-2.0734338052325576,0.3535910886627907,4.6969774205635283e-07,0.07155414,0.29548701,9.7664436,0.002761,0.000866,0.004197,0.06676326956847049
1757946312.3694808,-0.3636977032612216,0.5992010407238176,2.119194801335606,-0.5027094464551638,0.8147529233104251,-2.0734338052325576,0.3535910886627907,4.405739766208633e-07,0.05837931,0.29847906,9.78889869,0.003118,-0.002146,0.003718,0.06822163305010293
1757946312.3902442,-0.3638285833831164,0.5988019112776712,2.119823789742358,-0.5028552857425047,0.8140616717378344,-2.0734338052325576,0.3535910886627907,4.139891881572729e-07,0.06242103,0.29862621,9.783954450000001,0.004607,0.000459,0.00389,0.06646893381023099
1757946312.412103,-0.37287699322872964,0.612840240017068,2.120441163739417,-0.5029262561625463,0.8132678621517511,-2.0734338052325576,0.3535910886627907,3.8830329767417067e-07,0.07155414,0.30282489,9.77826465,0.003256,-0.002392,0.003778,0.06799760264300458
1757946312.4328897,-0.3741863616780407,0.6143653451455485,2.1210342168081286,-0.5030256452462532,0.8125567369294646,-2.0734338052325576,0.3535910886627907,3.646863514001329e-07,0.08786817,0.30326634,9.78455286,0.004698,-0.000783,0.003934,0.06664964714480709
1757946312.4572082,-0.38220054694266126,0.626153057290852,2.1221685207458805,-0.5031707063719469,0.8111275117766246,-2.0734338052325576,0.3535910886627907,3.2153367227421794e-07,0.07634142000000001,0.28934595,9.78170796,0.003238,0.000714,0.005647,0.06614379666226991
1757946312.4776607,-0.38220054694266126,0.626153057290852,2.1221685207458805,-0.5031707063719469,0.8111275117766246,-2.0734338052325576,0.3535910886627907,3.2153367227421794e-07,0.07634142000000001,0.28934595,9.78170796,0.003238,0.000714,0.005647,0.06614379666226991
1757946312.498374,-0.39104298953180394,0.6392890702832873,2.123239324012655,-0.5032279349400975,0.8096539881817816,-2.0734338052325576,0.3535910886627907,2.8320649999593315e-07,0.08891784,0.27841761000000004,9.80191656,0.002456,-0.00129,0.002935,0.0657985639829883
1757946312.519049,-0.39104298953180394,0.6392890702832873,2.123239324012655,-0.5032279349400975,0.8096539881817816,-2.0734338052325576,0.3535910886627907,2.8320649999593315e-07,0.08891784,0.27841761000000004,9.80191656,0.002456,-0.00129,0.002935,0.0657985639829883
1757946312.5392022,-0.39909902789777885,0.6511734662394366,2.1242446957400407,-0.5032659357942016,0.8082494272720019,-2.0734338052325576,0.3535910886627907,2.496208610064813e-07,0.07603731000000001,0.29398608000000004,9.783208890000001,0.003771,0.00105,0.003681,0.0653878405645687
1757946312.5640197,-0.40738804298427933,0.6639580545859396,2.124727246844296,-0.5032509659171092,0.8075237737899216,-2.0734338052325576,0.3535910886627907,2.3420447751496814e-07,0.07993188000000001,0.30985866000000006,9.78874173,0.002547,-0.001017,0.005137,0.06681383268570423
1757946312.5848665,-0.40791042474962474,0.6642839298674821,2.1251906400112146,-0.5032772829344789,0.8068929561652594,-2.0734338052325576,0.3535910886627907,2.2006613066579132e-07,0.07184844,0.28441152000000003,9.79038981,0.003772,-0.001279,0.002484,0.06537412017510219
1757946312.605973,-0.41691082802863677,0.6782026908912018,2.1256466183736684,-0.5032287496889051,0.8061540973706236,-2.0734338052325576,0.3535910886627907,2.0638773005688505e-07,0.08023599000000001,0.31270356000000005,9.780511140000002,0.003671,-0.000266,0.004356,0.06700498675727862
1757946312.6269908,-0.416285450063737,0.676705821592779,2.1260831787219647,-0.503238499614012,0.8055373173604489,-2.0734338052325576,0.3535910886627907,1.9393526108297918e-07,0.07349652000000001,0.29173959000000005,9.795775500000001,0.003056,-0.002579,0.004632,0.06512876072596825
1757946312.6474645,-0.4237270097750393,0.6881258418993185,2.126511116325993,-0.5031964522804547,0.804851330760236,-2.0734338052325576,0.3535910886627907,1.8199052491935278e-07,0.07199559,0.29249496,9.78005988,0.002819,-0.000634,0.004129,0.06629727600838933
1757946312.6675818,-0.42483268279761693,0.6894154104326861,2.126923068976602,-0.503188157540209,0.8042430978563893,-2.0734338052325576,0.3535910886627907,1.7098620057148268e-07,0.07933347,0.30625839,9.759409830000001,0.003004,0.000446,0.003825,0.0651261382544749
1757946312.6909318,-0.43600672214421793,0.7067935346908848,2.127331204247893,-0.5030683835047324,0.8034631356608247,-2.0734338052325576,0.3535910886627907,1.6020341486127762e-07,0.07409493,0.30117681,9.77737194,0.003962,-0.002688,0.003463,0.06747312318072841
1757946312.7119598,-0.43482462681374634,0.7044399239302856,2.1277214547112546,-0.5030208924384478,0.8028247656882784,-2.0734338052325576,0.3535910886627907,1.5043161615951922e-07,0.0666099,0.29878317000000004,9.7784118,0.003687,-0.00043,0.003866,0.06528787731221503
1757946312.7362068,-0.44099974486436394,0.7133867529239458,2.1284689094714366,-0.5029078941182261,0.8015696330070415,-2.0734338052325576,0.3535910886627907,1.326330960995034e-07,0.07739109000000001,0.30357045,9.77751909,0.005059,-0.000516,0.003971,0.06452792697434388
1757946312.7567928,-0.44099974486436394,0.7133867529239458,2.1284689094714366,-0.5029078941182261,0.8015696330070415,-2.0734338052325576,0.3535910886627907,1.326330960995034e-07,0.07739109000000001,0.30357045,9.77751909,0.005059,-0.000516,0.003971,0.06452792697434388
1757946312.7776058,-0.448958210919851,0.7251922517531688,2.129175126606402,-0.502766116665219,0.8003312160396944,-2.0734338052325576,0.3535910886627907,1.1690397181567338e-07,0.08232552,0.29653668000000005,9.767189160000001,0.00391,-0.001323,0.004681,0.06442887906607078
1757946312.7982984,-0.448958210919851,0.7251922517531688,2.129175126606402,-0.502766116665219,0.8003312160396944,-2.0734338052325576,0.3535910886627907,1.1690397181567338e-07,0.08232552,0.29653668000000005,9.767189160000001,0.00391,-0.001323,0.004681,0.06442887906607078
1757946312.818396,-0.4568484242966541,0.7369012520904044,2.1298424164221723,-0.5025970127794229,0.7991078313575353,-2.0734338052325576,0.3535910886627907,1.0301835908902252e-07,0.07229970000000001,0.28590264,9.76943565,0.001209,0.00092,0.003089,0.06429213235527545
1757946312.8400278,-0.471183743299003,0.7596937983819857,2.1298424164221723,-0.5025970127794229,0.7991078313575353,-2.0734338052325576,0.3535910886627907,1.0301835908902252e-07,0.07559586,0.30042144,9.763598700000001,0.004649,-0.000323,0.004397,0.0704335900037445
1757946312.8601158,-0.46439279464952504,0.748073270175285,2.1304717896125407,-0.5024254569315963,0.797937386831124,-2.0734338052325576,0.3535910886627907,9.081450868996802e-08,0.06990606,0.29069973,9.78455286,0.00396,-0.000536,0.002845,0.06415041418299638
1757946312.8810217,-0.46439279464952504,0.748073270175285,2.1304717896125407,-0.5024254569315963,0.797937386831124,-2.0734338052325576,0.3535910886627907,9.081450868996802e-08,0.06870924,0.29429019,9.78620094,0.001157,0.000924,0.004692,0.06415041418299638
1757946312.9015737,-0.47242080613883697,0.7600248747195822,2.1310679670268726,-0.5022086742109177,0.796744717953209,-2.0734338052325576,0.3535910886627907,8.000001532532409e-08,0.07708698000000001,0.30880899,9.75805605,0.004065,-0.001787,0.004026,0.06409089862876408
1757946312.9259446,-0.48085368097542397,0.7730111083784992,2.131355229653284,-0.5020677669409503,0.7961132202229104,-2.0734338052325576,0.3535910886627907,7.502816038732286e-08,0.06900354,0.29653668000000005,9.76809168,0.001286,0.000262,0.004289,0.06575211496108069
1757946312.9462297,-0.4799114599418664,0.7711358297134762,2.1316306634416096,-0.5019902765254756,0.7955993688549516,-2.0734338052325576,0.3535910886627907,7.04977661351267e-08,0.07708698000000001,0.28396026,9.78290478,0.003998,-0.00212,0.005828,0.0639743082892566
1757946312.9665964,-0.486451818845169,0.7811234507788862,2.1319007733674074,-0.5018712956406426,0.7950281514413843,-2.0734338052325576,0.3535910886627907,6.616317574660844e-08,0.063765,0.28979721,9.77018121,0.002883,-0.000896,0.002735,0.06504238517264413
1757946312.9868593,-0.48711583183172863,0.7818061471497831,2.1321611107918113,-0.5017911928406414,0.7945327411327024,-2.0734338052325576,0.3535910886627907,6.216818443707967e-08,0.07155414,0.29637972,9.77856876,0.003854,-0.000703,0.003109,0.06393956359444078
1757946313.0073142,-0.4957039027501786,0.7950362013130398,2.1324179986885383,-0.5016359919062586,0.7939239566556432,-2.0734338052325576,0.3535910886627907,5.8298980563682465e-08,0.07155414,0.30237363,9.784248750000001,0.00493,-0.001354,0.003779,0.06566589336727953
1757946313.0278711,-0.4943653466024454,0.7925599571934386,2.132664138291064,-0.5015488331618968,0.7934382129930935,-2.0734338052325576,0.3535910886627907,5.478005258449278e-08,0.06556023,0.29952873,9.790988220000001,0.001511,0.001479,0.00532,0.0637631225606286
1757946313.0485303,-0.5012895657418698,0.8031586132989191,2.132905947693793,-0.5014126673574374,0.7928817849966687,-2.0734338052325576,0.3535910886627907,5.1403171516332893e-08,0.06975891000000001,0.29474145,9.76584519,0.004205,-0.001608,0.003715,0.06499452460418834
1757946313.0719132,-0.5091828520081229,0.8152864934940762,2.1331440001754274,-0.5012021057993454,0.7922132003913877,-2.0734338052325576,0.3535910886627907,4.815666508067976e-08,0.08277678,0.30252078000000004,9.768533130000002,0.004725,-3.4e-05,0.004916,0.06624866703453625
1757946313.0931585,-0.515802330584992,0.8253995677744133,2.1333743103618,-0.5010135606288196,0.7915904774688537,-2.0734338052325576,0.3535910886627907,4.5149806628738384e-08,0.06526593,0.31210515000000005,9.7667379,0.004994,-0.001101,0.004921,0.06730828019311844
1757946313.1134987,-0.5093232820524018,0.8148260113111607,2.1335946962072594,-0.5009045577793713,0.7911078190195869,-2.0734338052325576,0.3535910886627907,4.2423527535175706e-08,0.06526593,0.31210515000000005,9.7667379,0.004994,-0.001101,0.004921,0.06335818330974816
1757946313.135755,-0.515198295880971,0.8234451644260627,2.1340193034194836,-0.5006565940009043,0.7901200224043328,-2.0734338052325576,0.3535910886627907,3.741380473131179e-08,0.07724394000000001,0.30221667,9.783650340000001,0.003192,0.001485,0.003905,0.06312755736175046
1757946313.156443,-0.515198295880971,0.8234451644260627,2.1340193034194836,-0.5006565940009043,0.7901200224043328,-2.0734338052325576,0.3535910886627907,3.741380473131179e-08,0.07724394000000001,0.30221667,9.783650340000001,0.003192,0.001485,0.003905,0.06312755736175046
1757946313.176619,-0.5217465360524715,0.8331402356993304,2.134421007348786,-0.5004167041284104,0.7891790466517883,-2.0734338052325576,0.3535910886627907,3.29961289503303e-08,0.060920100000000005,0.30177522,9.76404996,0.001813,0.001117,0.002516,0.06312123368287677
1757946313.197059,-0.5217465360524715,0.8331402356993304,2.134421007348786,-0.5004167041284104,0.7891790466517883,-2.0734338052325576,0.3535910886627907,3.29961289503303e-08,0.060920100000000005,0.30177522,9.76404996,0.001813,0.001117,0.002516,0.06312123368287677
1757946313.2203887,-0.5310153129365722,0.847134115972205,2.1348033175768544,-0.5001200513898921,0.788177084426435,-2.0734338052325576,0.3535910886627907,2.9056956822758852e-08,0.08292393,0.2980278,9.79338186,0.005308,-5.4e-05,0.003804,0.06391476386636896
1757946313.245187,-0.536621556868586,0.8556643232263821,2.1349871543449446,-0.49995733300773026,0.7876640847540318,-2.0734338052325576,0.3535910886627907,2.7259559472173754e-08,0.07424208,0.3005784,9.78290478,0.001719,0.00081,0.004806,0.06469341052306368
1757946313.2661154,-0.5350915902587543,0.852956885868316,2.135163458275711,-0.4998614477688197,0.7872670566546526,-2.0734338052325576,0.3535910886627907,2.5622079551642927e-08,0.07110288000000001,0.29878317000000004,9.79009551,0.005434,-0.001436,0.003692,0.06295213005449116
1757946313.2864013,-0.5437722135257774,0.8663322404774377,2.135337902822359,-0.49968717845119454,0.7867497443899816,-2.0734338052325576,0.3535910886627907,2.4029765437225052e-08,0.06586434000000001,0.29608542000000004,9.787996170000001,0.001764,0.001262,0.003501,0.064952619464711
1757946313.3073199,-0.5421777856024667,0.8635332411258607,2.13550517893062,-0.4995807445127097,0.7863492741389665,-2.0734338052325576,0.3535910886627907,2.258016304430324e-08,0.07634142000000001,0.29878317000000004,9.787849020000001,0.003548,-0.000729,0.003302,0.06313002206042423
1757946313.3289437,-0.5493911963642584,0.8746003188461452,2.135670001704632,-0.4994160645098482,0.7858610297784077,-2.0734338052325576,0.3535910886627907,2.118316073652048e-08,0.07005321,0.30117681,9.78455286,0.004138,-0.000286,0.004052,0.06461513935015203
1757946313.3498812,-0.5482765118732922,0.8725664417513722,2.1358283285629014,-0.4993110373934296,0.7854757768168208,-2.0734338052325576,0.3535910886627907,1.990653001031505e-08,0.07065162,0.30161826,9.791439480000001,-0.000142,-0.000428,0.003946,0.06302768668186474
1757946313.3752916,-0.5541638911753335,0.8812788453080327,2.136134401823022,-0.4990374376772337,0.7846209016461555,-2.0734338052325576,0.3535910886627907,1.754926995817589e-08,0.06601149,0.2977335,9.78261048,0.005071,0.000274,0.004401,0.06286632537969633
1757946313.3956966,-0.5541638911753335,0.8812788453080327,2.136134401823022,-0.4990374376772337,0.7846209016461555,-2.0734338052325576,0.3535910886627907,1.754926995817589e-08,0.06601149,0.2977335,9.78261048,0.005071,0.000274,0.004401,0.06286632537969633
1757946313.4161866,-0.5608054777286972,0.8911877133904536,2.1364247940861762,-0.4987443623151306,0.7837580771256173,-2.0734338052325576,0.3535910886627907,1.5464855826131754e-08,0.06287229,0.28709946000000003,9.787544910000001,0.004031,-0.000223,0.004587,0.06297139334540773
1757946313.436748,-0.5608054777286972,0.8911877133904536,2.1364247940861762,-0.4987443623151306,0.7837580771256173,-2.0734338052325576,0.3535910886627907,1.5464855826131754e-08,0.06287229,0.28709946000000003,9.787544910000001,0.004031,-0.000223,0.004587,0.06297139334540773
1757946313.4606686,-0.5688915391630135,0.9033743735356596,2.13670180877269,-0.4983670646268743,0.7827819942644857,-2.0734338052325576,0.3535910886627907,1.3604589639879676e-08,0.07304526,0.30221667,9.78889869,0.004536,-0.000269,0.004694,0.06336927221802607
1757946313.4867399,-0.5748491572427729,0.9124770084924355,2.136834873267036,-0.4981761368660854,0.7822983167908467,-2.0734338052325576,0.3535910886627907,1.2759540691993537e-08,0.07424208,0.28410741,9.79712928,0.003273,-0.003007,0.004429,0.06443110230400864
1757946313.507334,-0.5728679475536304,0.9091173929869208,2.1369624378352405,-0.4980579953636311,0.7819366772535146,-2.0734338052325576,0.3535910886627907,1.1990740232080696e-08,0.06720831000000001,0.29653668000000005,9.80416305,0.001262,-0.002035,0.004551,0.06263373655971483
1757946313.5273733,-0.5779276656131807,0.9168150566759092,2.1370875000491765,-0.4979145161978957,0.7815392264088553,-2.0734338052325576,0.3535910886627907,1.1257748199376843e-08,0.06511878,0.29593827,9.783650340000001,0.004462,-0.002074,0.004397,0.0635653478978485
1757946313.548367,-0.5787382481527363,0.9178461358555615,2.137208493005531,-0.4978014316810284,0.7811952744414158,-2.0734338052325576,0.3535910886627907,1.0577882912419847e-08,0.07349652000000001,0.29084688000000003,9.77706783,0.002141,-0.001472,0.004447,0.06287407378779979
1757946313.5735655,-0.5896294913438833,0.9346958247150637,2.137329222249627,-0.4975595242630629,0.7806496288267029,-2.0734338052325576,0.3535910886627907,9.90747934608867e-09,0.06182262000000001,0.28410741,9.79038981,0.000229,-0.003011,0.00461,0.06563916980130016
1757946313.599769,-0.5886216905182815,0.9326471242865717,2.1375568240538643,-0.4972647472236036,0.7798741672789594,-2.0734338052325576,0.3535910886627907,8.735167996218384e-09,0.08412075,0.29922462000000005,9.767787570000001,0.002226,-0.000896,0.004202,0.06300205482881618
1757946313.6205482,-0.5892249218398162,0.9333661851883862,2.1376652004326093,-0.49716334490652564,0.779566510681217,-2.0734338052325576,0.3535910886627907,8.21083642458115e-09,0.07110288000000001,0.28725642,9.791586630000001,0.003086,-0.001552,0.005066,0.062390959447616454
1757946313.6451943,-0.5969996561720026,0.9453311548848982,2.1377724251190893,-0.4969916649292913,0.7791505635178936,-2.0734338052325576,0.3535910886627907,7.702051620287634e-09,0.07663572,0.29862621,9.79024266,0.002719,-0.002131,0.004642,0.06427528707998056
1757946313.6655724,-0.5949747827824315,0.9419361542717624,2.137875275462873,-0.4968877026005139,0.7788467440571574,-2.0734338052325576,0.3535910886627907,7.238613378065573e-09,0.07364367000000001,0.30611124,9.7664436,0.000354,0.00017,0.00415,0.06249937885576597
1757946313.69281,-0.6060639075164758,0.9590966774208398,2.1379780746009143,-0.4966512320305509,0.7783354299902929,-2.0734338052325576,0.3535910886627907,6.780310496250028e-09,0.08128566000000001,0.31075136999999997,9.77946147,0.003687,-0.001612,0.002727,0.06544347279288744
1757946313.7190344,-0.6046348139207065,0.9564294304451695,2.138171867188218,-0.4963671495367975,0.7776250697318503,-2.0734338052325576,0.3535910886627907,5.978927318850479e-09,0.06975891000000001,0.29219085,9.77347737,0.003482,0.000237,0.00403,0.06278498623531735
1757946313.7391741,-0.6057991186437657,0.9580454286836568,2.1382643429228256,-0.4962629841326235,0.7773357263838071,-2.0734338052325576,0.3535910886627907,5.619037134157376e-09,0.0754389,0.31000581,9.77960862,0.004551,-0.003345,0.004263,0.062429159730087655
1757946313.7595322,-0.6057991186437657,0.9580454286836568,2.1382643429228256,-0.4962629841326235,0.7773357263838071,-2.0734338052325576,0.3535910886627907,5.619037134157376e-09,0.0754389,0.31000581,9.77960862,0.004551,-0.003345,0.004263,0.062429159730087655
1757946313.780179,-0.6129757858121762,0.9688765922632363,2.138444685110213,-0.49591143023294326,0.776539168434835,-2.0734338052325576,0.3535910886627907,4.944967738666213e-09,0.07603731000000001,0.29578131,9.77617512,0.004197,-0.001514,0.005593,0.06288296099093443
1757946313.8009644,-0.6154442710885175,0.9725420799471247,2.1385305723137176,-0.49578099407303133,0.7762179882501472,-2.0734338052325576,0.3535910886627907,4.643981626636287e-09,0.07933347,0.29653668000000005,9.780815250000002,0.004287,-0.000372,0.003327,0.06295699246647281
1757946313.8216422,-0.6162950592198532,0.9736777966783614,2.1386137932096165,-0.49567691090145877,0.7759418932018742,-2.0734338052325576,0.3535910886627907,4.363968786160853e-09,0.07184844,0.29338767,9.77797035,0.00319,0.000136,0.005227,0.06246852836992084
1757946313.8456936,-0.6233736683542227,0.9845635702723695,2.13869604485299,-0.49550591739852473,0.7755625369224151,-2.0734338052325576,0.3535910886627907,4.093176165592715e-09,0.07454619,0.29173959000000005,9.78470001,0.003293,-0.002859,0.004191,0.06414529225616065
1757946313.865837,-0.6225538592922812,0.9830892596650266,2.1387752917637313,-0.49538269381300787,0.7752620008030724,-2.0734338052325576,0.3535910886627907,3.844420244837912e-09,0.07229970000000001,0.29054277,9.76613949,0.002585,0.000691,0.002418,0.06283773610393174
1757946313.8861775,-0.6225538592922812,0.9830892596650266,2.1387752917637313,-0.49538269381300787,0.7752620008030724,-2.0734338052325576,0.3535910886627907,3.844420244837912e-09,0.07229970000000001,0.29054277,9.76613949,0.002585,0.000691,0.002418,0.06283773610393174
1757946313.9069376,-0.6309627377185362,0.9958709640561855,2.1389305145233184,-0.4949227419679365,0.7743309953355926,-2.0734338052325576,0.3535910886627907,3.375807854036928e-09,0.06601149,0.30955455000000004,9.76688505,0.003565,-0.000178,0.005118,0.06348844353372098
1757946313.9273515,-0.6295848382098708,0.9935322593873078,2.139003528072273,-0.4947982329305212,0.7740369990547333,-2.0734338052325576,0.3535910886627907,3.171902874635571e-09,0.07349652000000001,0.29114118,9.77482134,0.0015,-0.000586,0.005352,0.06219835978626777
1757946313.9482274,-0.6309071670895786,0.9954209425637788,2.139074433934775,-0.49469741153286195,0.7737833064172689,-2.0734338052325576,0.3535910886627907,2.9812574956201e-09,0.06765957,0.29474145,9.78036399,0.003244,-0.001317,0.00422,0.06208367819623869
1757946313.9704916,-0.6400515925944041,1.009544648610224,2.139145026549336,-0.4944973938921625,0.7733750550233692,-2.0734338052325576,0.3535910886627907,2.794357942913114e-09,0.06481467,0.29982303,9.77871591,0.003455,-0.000262,0.003419,0.06457098501798178
1757946313.9915378,-0.6372002131362048,1.0049099192094864,2.1392126106408575,-0.494376323022625,0.7730942733745841,-2.0734338052325576,0.3535910886627907,2.624837827411913e-09,0.06706116000000001,0.29129814000000004,9.771525180000001,0.002185,-0.00042,0.005204,0.06253021845017284
1757946314.0159087,-0.6397475818160123,1.0085509330624667,2.139342325203722,-0.4941659805338388,0.7725903890197379,-2.0734338052325576,0.3535910886627907,2.316863344276258e-09,0.07155414,0.30746502000000003,9.767493270000001,0.002822,0.001173,0.00313,0.06203456035063855
1757946314.0363111,-0.6397475818160123,1.0085509330624667,2.139342325203722,-0.4941659805338388,0.7725903890197379,-2.0734338052325576,0.3535910886627907,2.316863344276258e-09,0.07155414,0.30746502000000003,9.767493270000001,0.002822,0.001173,0.00313,0.06203456035063855
1757946314.0598075,-0.6463621302972853,1.0185579784277825,2.1394666648428737,-0.49386092502389767,0.7719458601368505,-2.0734338052325576,0.3535910886627907,2.03973000884876e-09,0.07499745000000001,0.28620675,9.808803180000002,0.004511,-0.000265,0.004401,0.06261337416609945
1757946314.0802455,-0.6463621302972853,1.0185579784277825,2.1394666648428737,-0.49386092502389767,0.7719458601368505,-2.0734338052325576,0.3535910886627907,2.03973000884876e-09,0.07499745000000001,0.28620675,9.808803180000002,0.004511,-0.000265,0.004401,0.06261337416609945
1757946314.1052692,-0.6531579536417067,1.0288541933603095,2.1395854770913347,-0.49346216060627446,0.7711621764480954,-2.0734338052325576,0.3535910886627907,1.7927120985531527e-09,0.05613282,0.29578131,9.79069392,0.004156,-0.001964,0.005007,0.0630328602188229
1757946314.1261535,-0.6521230171215314,1.0270786684987685,2.139641482937515,-0.49335650856489005,0.7709216172827278,-2.0734338052325576,0.3535910886627907,1.6846589995215645e-09,0.08067744,0.28874754,9.80266212,0.003885,-0.000903,0.002384,0.061995637951027964
1757946314.1461475,-0.6533798892382976,1.0288870232516851,2.1396959065395365,-0.49327211782652675,0.7707167107843064,-2.0734338052325576,0.3535910886627907,1.583499679770162e-09,0.08038314,0.29578131,9.77407578,0.001658,-0.000196,0.004858,0.061942424840967854
1757946314.167523,-0.6607530387699223,1.0402524164153002,2.1397498563753654,-0.4931145868532403,0.7703982936712201,-2.0734338052325576,0.3535910886627907,1.485189170789854e-09,0.0691605,0.28769787,9.79772769,0.005166,-0.00104,0.003369,0.06392315184127531
1757946314.1875608,-0.6578113866444385,1.0355053782790697,2.1398015289136447,-0.4930298823827647,0.7701966480164048,-2.0734338052325576,0.3535910886627907,1.3958413855837754e-09,0.06615864,0.29293641,9.79847325,0.000297,-0.000449,0.00344,0.062025465955569084
1757946314.2088513,-0.6644374029276973,1.0457060586072326,2.1398526371177145,-0.4928814721025128,0.769896375753455,-2.0734338052325576,0.3535910886627907,1.309400038826841e-09,0.06511878,0.30311919,9.78470001,0.002772,-0.000945,0.004005,0.06374962927619104
1757946314.229762,-0.6615168994824768,1.0409972919844432,2.139901598839894,-0.49280409918164186,0.7697099092908134,-2.0734338052325576,0.3535910886627907,1.2307852913221187e-09,0.06615864,0.30297204000000005,9.787397760000001,0.003431,-0.000923,0.002105,0.061903660402075934
1757946314.255738,-0.6655905104276949,1.047071661107844,2.139996458005176,-0.49259263771448786,0.7692527692668556,-2.0734338052325576,0.3535910886627907,1.085418125263463e-09,0.06436341000000001,0.29233800000000004,9.79877736,0.003463,-0.002109,0.001762,0.061988570001785516
1757946314.276162,-0.6655905104276949,1.047071661107844,2.139996458005176,-0.49259263771448786,0.7692527692668556,-2.0734338052325576,0.3535910886627907,1.085418125263463e-09,0.06436341000000001,0.29233800000000004,9.79877736,0.003463,-0.002109,0.001762,0.061988570001785516
1757946314.3002214,-0.6717464066489112,1.0564037690601802,2.140087246644505,-0.49228714873049567,0.7686541600516633,-2.0734338052325576,0.3535910886627907,9.552261895369821e-10,0.07125003,0.29474145,9.80626239,0.003444,-0.001716,0.003905,0.06251403189625701
1757946314.3206425,-0.6728545481075439,1.0579970481679923,2.140130375797824,-0.49218984246389597,0.7684446017494553,-2.0734338052325576,0.3535910886627907,8.973587323143656e-10,0.08397360000000001,0.29383893,9.77797035,0.004514,-0.001058,0.005742,0.062328524837925975
1757946314.3410378,-0.6728545481075439,1.0579970481679923,2.140130375797824,-0.49218984246389597,0.7684446017494553,-2.0734338052325576,0.3535910886627907,8.973587323143656e-10,0.08397360000000001,0.29383893,9.77797035,0.004514,-0.001058,0.005742,0.062328524837925975
1757946314.3614662,-0.6831136027257652,1.0738773284320269,2.1401735570821954,-0.4919518395957844,0.7680152122161282,-2.0734338052325576,0.3535910886627907,8.402074340160244e-10,0.07499745000000001,0.30132396,9.7667379,0.00166,-0.000771,0.005405,0.06521030045645801
1757946314.3858206,-0.6819011979857686,1.0717179351554658,2.140255794234422,-0.49154269865871864,0.7672661117132024,-2.0734338052325576,0.3535910886627907,7.384982181002738e-10,0.06466752,0.2948886,9.79069392,0.0024,-0.002858,0.003352,0.06264231022100222
1757946314.4061737,-0.681772101150339,1.071386791347279,2.1402946828071236,-0.49142337486054427,0.7670279370344374,-2.0734338052325576,0.3535910886627907,6.937043497794276e-10,0.0811287,0.2948886,9.771829290000001,0.002132,0.000285,0.003105,0.06207920133185743
1757946314.4265094,-0.680578521146311,1.0693966833914494,2.1403321893970055,-0.4913560315061894,0.7668729598005898,-2.0734338052325576,0.3535910886627907,6.523581116499075e-10,0.06571719000000001,0.29833191000000003,9.74982546,0.006154,-0.002571,0.003898,0.06125866098070589
1757946314.4473772,-0.687733465916826,1.080437196191738,2.1403694115337517,-0.4912248898130086,0.7666190065918368,-2.0734338052325576,0.3535910886627907,6.120938182123598e-10,0.07229970000000001,0.29623257000000003,9.78574968,0.001038,-0.000616,0.005515,0.06340699990282911
1757946314.4679422,-0.6846931239252863,1.0755687348687248,2.140405070538119,-0.4911637182632406,0.7664762725180818,-2.0734338052325576,0.3535910886627907,5.754320075287665e-10,0.07963758,0.30147111000000004,9.787849020000001,0.002444,-0.001696,0.003842,0.061650065911263194
1757946314.4953947,-0.6879051970910395,1.080338904665392,2.140474026145501,-0.49101339076930356,0.7661504782506854,-2.0734338052325576,0.3535910886627907,5.078392280651382e-10,0.06900354,0.28336185,9.78560253,0.000897,0.000914,0.004149,0.06173264666126176
1757946314.5157225,-0.7002892165984289,1.09966225235126,2.140474026145501,-0.49101339076930356,0.7661504782506854,-2.0734338052325576,0.3535910886627907,5.078392280651382e-10,0.0896634,0.29458449000000003,9.755368110000001,0.003759,-0.001215,0.004753,0.06716481954756187
1757946314.5358949,-0.6915639366359589,1.08581236374299,2.140539395685373,-0.49088138057475317,0.7658581262827516,-2.0734338052325576,0.3535910886627907,4.482075217279398e-10,0.063765,0.30416886,9.768238830000001,0.004686,-0.000831,0.004242,0.061979653415173114
1757946314.5567102,-0.6915639366359589,1.08581236374299,2.140539395685373,-0.49088138057475317,0.7658581262827516,-2.0734338052325576,0.3535910886627907,4.482075217279398e-10,0.063765,0.30416886,9.768238830000001,0.004686,-0.000831,0.004242,0.061979653415173114
1757946314.5799985,-0.6973298580177696,1.0945785514084583,2.1406019154484763,-0.490669142317628,0.7654442321121976,-2.0734338052325576,0.3535910886627907,3.948108926281033e-10,0.054936000000000006,0.29264211,9.77976558,0.004457,-0.001592,0.00363,0.06269351272860435
1757946314.603308,-0.7004019921587599,1.0992586430696951,2.1406319823201523,-0.49055384132454877,0.7652245293978754,-2.0734338052325576,0.3535910886627907,3.705189974561681e-10,0.07304526,0.3008727,9.76434426,0.00159,0.000511,0.00337,0.06316655749603126
1757946314.6238072,-0.6984154065308603,1.096049520370334,2.140660898510074,-0.4904900986529606,0.7650868101438061,-2.0734338052325576,0.3535910886627907,3.482321741863852e-10,0.08248248000000001,0.29697813,9.783208890000001,0.001991,6.3e-05,0.003138,0.061840800565520514
1757946314.6440287,-0.7043855890514668,1.1052526808987717,2.140689498613087,-0.4903630719644321,0.7648508632020421,-2.0734338052325576,0.3535910886627907,3.266981292893798e-10,0.06526593,0.29173959000000005,9.78156081,0.003154,-0.000987,0.004374,0.06348028331024094
1757946314.664612,-0.7021541718183631,1.1016650144496392,2.1407169774101114,-0.4902908002317673,0.7647017970399799,-2.0734338052325576,0.3535910886627907,3.0698140237342177e-10,0.07125003,0.29922462000000005,9.78170796,0.002985,0.000514,0.003116,0.062006318390666226
1757946314.6857092,-0.7084824183270377,1.1114286831406666,2.1407441896470267,-0.49014604849720295,0.7644400638345329,-2.0734338052325576,0.3535910886627907,2.878982096803433e-10,0.08801532000000001,0.29728224000000003,9.78649524,0.003505,-0.003715,0.004724,0.06373604486151432
1757946314.7059617,-0.7055758627467218,1.1067913668705647,2.1407702706145804,-0.4900670228068123,0.7642823279843033,-2.0734338052325576,0.3535910886627907,2.7050641572709986e-10,0.05538726,0.28021284,9.79473564,0.001605,-0.000163,0.003129,0.061990123690958195
1757946314.726976,-0.7104803006366052,1.1143368168470233,2.1407959766605256,-0.4899404277671669,0.7640509822296891,-2.0734338052325576,0.3535910886627907,2.5381436782281824e-10,0.07888221,0.3008727,9.75716334,0.001938,-0.000813,0.004335,0.06326479521251945
1757946314.7477856,-0.7086228201860222,1.1113388604003154,2.1408207094368086,-0.4898638596034412,0.7638989518520122,-2.0734338052325576,0.3535910886627907,2.3848545326500385e-10,0.07708698000000001,0.29728224000000003,9.78141366,0.004676,-0.001073,0.004066,0.0619845422827201
1757946314.7687008,-0.7143341917537155,1.1201447774821698,2.1408451579325956,-0.489725258997692,0.7636506012399743,-2.0734338052325576,0.3535910886627907,2.236989064056626e-10,0.06452037000000001,0.29414304,9.78829047,0.001059,-0.000492,0.004495,0.06353386416014525
1757946314.791235,-0.7187778264399052,1.1269744482449364,2.1408691955780785,-0.48952948151326175,0.7633135020316868,-2.0734338052325576,0.3535910886627907,2.0960749044434186e-10,0.05732964000000001,0.30926025,9.76254903,0.003347,-0.000187,0.002859,0.06431112123953592
1757946314.8166833,-0.7150066314138975,1.120900933473549,2.140914532413678,-0.48930656556985225,0.7629060374308834,-2.0734338052325576,0.3535910886627907,1.848550319143493e-10,0.08143281,0.29414304,9.775566900000001,0.001818,-0.001972,0.005991,0.06169591434422403
1757946314.843884,-0.7201017891724044,1.1287502200872572,2.1409364772702837,-0.4891760434929202,0.7626737344880943,-2.0734338052325576,0.3535910886627907,1.7344609057398237e-10,0.07933347,0.28515708,9.768385980000001,0.003083,-0.001914,0.004203,0.0631475037907369
1757946314.8646116,-0.7175182780384914,1.1246293031845849,2.1409575369443044,-0.4891071634762082,0.7625387181433683,-2.0734338052325576,0.3535910886627907,1.630087237597911e-10,0.05867361000000001,0.29997999,9.74563659,0.002081,0.000189,0.003647,0.06168279402972191
1757946314.8855803,-0.7237882920787495,1.134312213756719,2.140978407573102,-0.48897113073058524,0.7622993068695962,-2.0734338052325576,0.3535910886627907,1.5289323804127256e-10,0.07739109000000001,0.29757654,9.768690090000002,0.002503,-0.001036,0.004731,0.06352363850968293
1757946314.9056952,-0.7204560385691533,1.129026905342717,2.140998379274709,-0.48890592602007005,0.762171478443998,-2.0734338052325576,0.3535910886627907,1.4368687896251725e-10,0.06856209,0.29189655000000003,9.76434426,0.002946,-0.002695,0.003461,0.06172390361022193
1757946314.9267507,-0.7259705531123606,1.137534035682937,2.141018121769294,-0.48878463176739745,0.7619565678817728,-2.0734338052325576,0.3535910886627907,1.3480383223752298e-10,0.07648857,0.30536568000000003,9.75461274,0.00204,0.000528,0.004995,0.06330969630264661
1757946314.9472337,-0.723312828534623,1.1333031171758197,2.141037060958869,-0.48872308612106496,0.7618358434599761,-2.0734338052325576,0.3535910886627907,1.2668013674538374e-10,0.08457201,0.29982303,9.76988691,0.004406,-0.000898,0.003597,0.06179002878479001
1757946314.9678228,-0.729376033899521,1.1426674250403421,2.141055821027381,-0.48859353695982893,0.7616093693749609,-2.0734338052325576,0.3535910886627907,1.1881589034628518e-10,0.07844076,0.2863539,9.76060665,0.003921,0.00019,0.005064,0.06354809217649639
1757946314.9878542,-0.7264011602310704,1.1379448229394098,2.1410737945558846,-0.48852801714155486,0.7614837213562463,-2.0734338052325576,0.3535910886627907,1.116407398900662e-10,0.07619427,0.31629402,9.77092677,0.001303,0.00054,0.003521,0.06187639073656083
1757946315.009221,-0.7316189992553659,1.1459933346811941,2.1410915458685196,-0.48840720625349826,0.7612722197113515,-2.0734338052325576,0.3535910886627907,1.0473095931188455e-10,0.08098155,0.29458449000000003,9.79189074,0.002704,0.000955,0.002601,0.06334397636983624
1757946315.0296612,-0.7290529360104829,1.1419106137000654,2.1411085788606172,-0.4883439966031371,0.7611514416803655,-2.0734338052325576,0.3535910886627907,9.840714066631688e-11,0.08098155,0.29458449000000003,9.79189074,0.002704,0.000955,0.002601,0.061863995127436504
1757946315.0498219,-0.7358178015658688,1.152372078357986,2.1411254967408677,-0.4881972988544354,0.7609006818629241,-2.0734338052325576,0.3535910886627907,9.225978453905362e-11,0.0811287,0.29818476,9.79398027,0.005278,-0.000828,0.003608,0.06385790050409659
1757946315.075848,-0.7330962547456612,1.1479698808560577,2.1411573719195047,-0.48806831519005867,0.7606580824448109,-2.0734338052325576,0.3535910886627907,8.144322618620092e-11,0.07079877000000001,0.30386475,9.78485697,0.002623,-0.000205,0.003646,0.061960887362871205
1757946315.0993392,-0.7360409024664097,1.1524804711011911,2.1411727749852663,-0.4879879038774288,0.7605127633814177,-2.0734338052325576,0.3535910886627907,7.646430101267128e-11,0.07304526,0.30282489,9.77108373,0.003538,-3.5e-05,0.004048,0.0626584007404107
1757946315.1194715,-0.7369347554251274,1.1537959898715469,2.1411877472991474,-0.4879124480062302,0.7603757172740148,-2.0734338052325576,0.3535910886627907,7.180008683666937e-11,0.06765957,0.29233800000000004,9.77781339,0.004744,-9.6e-05,0.003042,0.06250821319967999
1757946315.1405404,-0.7361987438489657,1.152572747972694,2.1412022150913117,-0.4878666379574601,0.7602855524801415,-2.0734338052325576,0.3535910886627907,6.747216553947611e-11,0.07215255000000001,0.29533986,9.77392863,0.001457,-0.000826,0.005217,0.06184330467365497
1757946315.16087,-0.7361987438489657,1.152572747972694,2.1412022150913117,-0.4878666379574601,0.7602855524801415,-2.0734338052325576,0.3535910886627907,6.747216553947611e-11,0.07215255000000001,0.29533986,9.77392863,0.001457,-0.000826,0.005217,0.06184330467365497
1757946315.1816797,-0.7413125544874298,1.1603918295430675,2.141230542754432,-0.4875920268939893,0.7598205725811928,-2.0734338052325576,0.3535910886627907,5.933932699550395e-11,0.08038314,0.3008727,9.78679935,0.002404,0.000932,0.002925,0.06240846345724062
1757946315.2021284,-0.7437111541611592,1.1640561283500892,2.14124406098572,-0.48748033579167344,0.7596289116997988,-2.0734338052325576,0.3535910886627907,5.5685153684080484e-11,0.07289811,0.2894931,9.77661657,0.002949,0.000128,0.0051,0.06286672144316686
1757946315.2229745,-0.7433043689075427,1.163349962001385,2.1412571356186803,-0.487395284166802,0.759479387930737,-2.0734338052325576,0.3535910886627907,5.229110937442974e-11,0.07873506000000001,0.29503575000000004,9.790988220000001,0.005137,-0.000882,0.004375,0.06227505948159327
1757946315.248045,-0.7489861304817749,1.1721318011306245,2.141270074920019,-0.48723841650791117,0.759218117425431,-2.0734338052325576,0.3535910886627907,4.9015612557335804e-11,0.08427771,0.28994436,9.80461431,0.000407,-0.00064,0.004079,0.06386621840940591
1757946315.275305,-0.7451952148932526,1.1660853917381324,2.141294384772336,-0.4871089164870045,0.7589848358202427,-2.0734338052325576,0.3535910886627907,4.3268845536627026e-11,0.06481467,0.29593827,9.78934014,0.003856,-0.00141,0.004863,0.061700455121200634
1757946315.2954445,-0.7464769530778071,1.1680143314578966,2.141306041816403,-0.48706202701800344,0.7588968002350245,-2.0734338052325576,0.3535910886627907,4.0653896968251855e-11,0.06960195,0.30177522,9.79084107,0.002309,-0.001754,0.005112,0.06193988920446405
1757946315.3176613,-0.7487412027905118,1.1714749471634296,2.141317436345573,-0.4870025868754631,0.7587895577900876,-2.0734338052325576,0.3535910886627907,3.81770045847141e-11,0.07858791000000001,0.28500993,9.7692885,0.005653,-0.002582,0.003291,0.062449126268214555
1757946315.3384137,-0.748240636428107,1.17062876948966,2.14132845422308,-0.48696710085434003,0.7587201183434064,-2.0734338052325576,0.3535910886627907,3.587309171946746e-11,0.0865242,0.29982303,9.771829290000001,0.000477,0.000745,0.004095,0.06190728311794426
1757946315.3587863,-0.748240636428107,1.17062876948966,2.14132845422308,-0.48696710085434003,0.7587201183434064,-2.0734338052325576,0.3535910886627907,3.587309171946746e-11,0.0865242,0.29982303,9.771829290000001,0.000477,0.000745,0.004095,0.06190728311794426
1757946315.3794048,-0.7519145895267008,1.1762226191931806,2.1413499306714048,-0.48675194862906773,0.7583570700280735,-2.0734338052325576,0.3535910886627907,3.1572422668059073e-11,0.06795387,0.30237363,9.80790066,0.004681,-0.001079,0.004814,0.062118661712606764
1757946315.3999257,-0.7519145895267008,1.1762226191931806,2.1413499306714048,-0.48675194862906773,0.7583570700280735,-2.0734338052325576,0.3535910886627907,3.1572422668059073e-11,0.06795387,0.30237363,9.80790066,0.004681,-0.001079,0.004814,0.062118661712606764
1757946315.420392,-0.7549493269282154,1.1808237898865963,2.141370302317278,-0.48649457452839856,0.7579296083694441,-2.0734338052325576,0.3535910886627907,2.7776361851528354e-11,0.07753824,0.30581694000000004,9.768533130000002,0.00499,-0.005091,0.004148,0.06214119470576724
1757946315.4462054,-0.7591900233041085,1.1873682893941597,2.141380088975006,-0.4863622468601831,0.7577107990589247,-2.0734338052325576,0.3535910886627907,2.6048963124061633e-11,0.07139718,0.29264211,9.76044969,0.003185,-0.000798,0.003285,0.06333677150203054
1757946315.4676583,-0.7552585522926072,1.1811823981062721,2.1413894189151783,-0.4863075098726097,0.7576134964705546,-2.0734338052325576,0.3535910886627907,2.4479458174260104e-11,0.07963758,0.29608542000000004,9.775272600000001,0.00313,-0.001335,0.005919,0.061494252500816526
1757946315.4880774,-0.7560116932757761,1.1822955867036906,2.141398487347754,-0.48626853762303657,0.7575412061923699,-2.0734338052325576,0.3535910886627907,2.3004735227348793e-11,0.05837931,0.29713509,9.768385980000001,0.005663,-0.00179,0.005532,0.06164779632566131
1757946315.5086405,-0.7576851728955137,1.184843310515558,2.1414073325616236,-0.48622827977350996,0.7574672475182656,-2.0734338052325576,0.3535910886627907,2.161113910381504e-11,0.06735546,0.29713509,9.78261048,0.001404,0.000502,0.003434,0.06206414604972373
1757946315.5302432,-0.7680129249770926,1.2008735470390446,2.1414159729135154,-0.48617405211825454,0.7573717754089283,-2.0734338052325576,0.3535910886627907,2.0291762484310935e-11,0.06271533,0.2948886,9.759252870000001,0.002618,-0.000414,0.004294,0.06616885655552222
1757946315.5505104,-0.7593624072136309,1.1873399200844172,2.1414243253470993,-0.4861406601094165,0.757309117893655,-2.0734338052325576,0.3535910886627907,1.906356827578722e-11,0.06271533,0.2948886,9.759252870000001,0.002618,-0.000414,0.004294,0.06202668844790685
1757946315.5778618,-0.7625358609492041,1.1921700727615727,2.1414405796549705,-0.4859354255906641,0.7569684693056158,-2.0734338052325576,0.3535910886627907,1.677600658709831e-11,0.07289811,0.29833191000000003,9.77661657,0.003748,0.00076,0.004068,0.062123208360213136
1757946315.5981684,-0.7625358609492041,1.1921700727615727,2.1414405796549705,-0.4859354255906641,0.7569684693056158,-2.0734338052325576,0.3535910886627907,1.677600658709831e-11,0.07289811,0.29833191000000003,9.77661657,0.003748,0.00076,0.004068,0.062123208360213136
1757946315.6181989,-0.7671644273203317,1.1993245701369355,2.1414483978228827,-0.48581561673817386,0.7567717802056876,-2.0734338052325576,0.3535910886627907,1.573153480916497e-11,0.06271533,0.29757654,9.763598700000001,0.003436,-0.001756,0.003635,0.06346400094984783
1757946315.6391788,-0.7705618345116128,1.2045617379986098,2.1414560662544995,-0.48564682900267253,0.7564989234517127,-2.0734338052325576,0.3535910886627907,1.473938410920805e-11,0.07574301000000001,0.31464594,9.77003406,0.003956,-0.001635,0.003967,0.06409083775184445
1757946315.659986,-0.7670464436509671,1.1989783458307357,2.14147054581362,-0.4854215223344619,0.7561292868240297,-2.0734338052325576,0.3535910886627907,1.2979851673586412e-11,0.05703534,0.29429019,9.768385980000001,0.001972,0.001472,0.002793,0.06182715607211863
1757946315.680562,-0.7654715652138017,1.1964728597507697,2.1414773533326734,-0.4853899172335564,0.7560714177150842,-2.0734338052325576,0.3535910886627907,1.2202165864598505e-11,0.07844076,0.29608542000000004,9.768533130000002,0.00305,-0.00043,0.003256,0.061168565633365465
1757946315.701879,-0.7700416749596317,1.2035396830589125,2.141484073048643,-0.485319226637821,0.7559528518195924,-2.0734338052325576,0.3535910886627907,1.1452833289172982e-11,0.06975891000000001,0.28575549,9.78170796,0.002702,-0.001798,0.003487,0.06273070270504255
1757946315.7221358,-0.7711026317100766,1.2051411282074957,2.141490603998415,-0.4852468776855676,0.7558319108029943,-2.0734338052325576,0.3535910886627907,1.074895927982557e-11,0.08248248000000001,0.30716091,9.78455286,0.002896,-0.000866,0.004524,0.06274627969093985
1757946315.7426343,-0.7683279732583188,1.2007690383772562,2.1414968509086734,-0.4852296652359565,0.7557972220252994,-2.0734338052325576,0.3535910886627907,1.0103181410150956e-11,0.06825798,0.28965006000000004,9.765246780000002,0.004099,-0.000148,0.004211,0.061457083412046934
1757946315.7669113,-0.7751182968780126,1.2112958090167831,2.1415030729478346,-0.4851266134854794,0.7556288365817154,-2.0734338052325576,0.3535910886627907,9.472824128903507e-12,0.08172711,0.2977335,9.76659075,0.002068,-0.000473,0.005083,0.06369427608578497
1757946315.7871826,-0.7709127910097638,1.2046964476452144,2.141508984550298,-0.48509807935140714,0.7555769020539804,-2.0734338052325576,0.3535910886627907,8.900701902462395e-12,0.0663156,0.28800198,9.76809168,0.001876,-0.00203,0.004802,0.061711270162300415
1757946315.8077679,-0.7754016087710659,1.2116396745272542,2.1415148163123146,-0.4850194396465246,0.755447043468782,-2.0734338052325576,0.3535910886627907,8.350353048515265e-12,0.07768539,0.30027429,9.76284333,0.005392,-0.000954,0.005114,0.06313049239110899
1757946315.8277187,-0.7719669530220575,1.206242451857881,2.1415203748202645,-0.4850030126488341,0.7554144388283354,-2.0734338052325576,0.3535910886627907,7.84780139275913e-12,0.08023599000000001,0.29967588,9.7781175,0.002868,-0.000144,0.00439,0.06154050551710765
1757946315.8477917,-0.7772172114008907,1.2143728324589083,2.141525876745054,-0.4849246913944731,0.7552855112467257,-2.0734338052325576,0.3535910886627907,7.361792965713973e-12,0.08038314,0.29578131,9.77826465,0.004109,0.000529,0.003109,0.06325500262475213
1757946315.8743339,-0.7743057237699023,1.2097462345337389,2.1415361971635214,-0.48490552292167555,0.755242701925093,-2.0734338052325576,0.3535910886627907,6.5018405572933205e-12,0.07260381,0.29054277,9.79443153,0.003015,0.000524,0.005289,0.06174944347266097
1757946315.894409,-0.7752406851617897,1.2111574504971032,2.141541136996352,-0.48490104440819115,0.7552295738641862,-2.0734338052325576,0.3535910886627907,6.109095741835379e-12,0.07603731000000001,0.2894931,9.78919299,0.004533,-0.000692,0.003535,0.06194258123183244
1757946315.9148743,-0.7752406851617897,1.2111574504971032,2.141541136996352,-0.48490104440819115,0.7552295738641862,-2.0734338052325576,0.3535910886627907,6.109095741835379e-12,0.07603731000000001,0.2894931,9.78919299,0.004533,-0.000692,0.003535,0.06194258123183244
1757946315.936198,-0.7883531374589214,1.2315352664099999,2.141546030631332,-0.48481908833830173,0.755095758134994,-2.0734338052325576,0.3535910886627907,5.728923231260203e-12,0.07679268,0.30431601,9.75491685,0.003385,-0.000319,0.004295,0.0670177241514526
1757946315.957223,-0.7794599466003526,1.2176403847496606,2.1415507330940153,-0.48476234144297464,0.755001418457024,-2.0734338052325576,0.3535910886627907,5.3774042675884e-12,0.07679268,0.30431601,9.75491685,0.003385,-0.000319,0.004295,0.06266085431285905
1757946315.9776268,-0.784436869320789,1.2253482307127115,2.141555379080444,-0.48462810551499863,0.754786406262714,-2.0734338052325576,0.3535910886627907,5.039134181810319e-12,0.06795387,0.29563416000000003,9.78335604,0.004997,0.000374,0.004781,0.06404104093740759
1757946316.0087438,-0.7836549776179011,1.224045322551293,2.141564167677215,-0.4844196506563443,0.7544505389689298,-2.0734338052325576,0.3535910886627907,4.4342622382273444e-12,0.07693983,0.29069973,9.78201207,0.004426,-0.004257,0.004901,0.06283353264171929
1757946316.02965,-0.781478690340421,1.220614344005447,2.1415683033151147,-0.48436877439595105,0.754366099349285,-2.0734338052325576,0.3535910886627907,4.165236329102976e-12,0.07484049000000001,0.28665801,9.7929306,0.002234,-0.000254,0.002642,0.06179611412054102
1757946316.0508795,-0.7883517959099323,1.2312773676164739,2.141572426649571,-0.48422256055754187,0.7541331847498028,-2.0734338052325576,0.3535910886627907,3.902767805106931e-12,0.0779895,0.30027429,9.78844743,0.003743,-0.00075,0.00447,0.06405468851829085
1757946316.074933,-0.7819224605637761,1.2211839500339465,2.1415800631136435,-0.484145359326279,0.7540034199109564,-2.0734338052325576,0.3535910886627907,3.4452842739165155e-12,0.06765957,0.29907747,9.77737194,0.000618,-0.000736,0.003649,0.061196727260250834
1757946316.095612,-0.782299411667522,1.2217317413856452,2.1415836801612587,-0.48414933714859315,0.7540052099945516,-2.0734338052325576,0.3535910886627907,3.2387355944829746e-12,0.08471916,0.30206952000000004,9.771378030000001,0.003495,-0.002472,0.002503,0.06137818950498276
1757946316.1159484,-0.782299411667522,1.2217317413856452,2.1415836801612587,-0.48414933714859315,0.7540052099945516,-2.0734338052325576,0.3535910886627907,3.2387355944829746e-12,0.08471916,0.30206952000000004,9.771378030000001,0.003495,-0.002472,0.002503,0.06137818950498276
1757946316.1367843,-0.7842806294304396,1.2247400562656117,2.141590683209701,-0.48406744493466797,0.7538690490093982,-2.0734338052325576,0.3535910886627907,2.8544276032064152e-12,0.06795387,0.29173959000000005,9.77946147,0.002737,-0.000611,0.00339,0.061559263000121434
1757946316.1625278,-0.7887201370795854,1.2316160925028088,2.1415940394160318,-0.4840117121583988,0.7537781162410966,-2.0734338052325576,0.3535910886627907,2.6783134589315353e-12,0.07394778,0.29608542000000004,9.77781339,0.003451,-0.002289,0.004425,0.0630380861519697
1757946316.1834767,-0.7852961273543004,1.2262464807875577,2.1415972254800835,-0.48401397895193876,0.7537777228515806,-2.0734338052325576,0.3535910886627907,2.517288178590041e-12,0.07215255000000001,0.30206952000000004,9.77287896,0.000765,-0.001088,0.004742,0.06150929318924086
1757946316.2075143,-0.7924892539643584,1.2374116885101651,2.141600409085436,-0.4839143782331084,0.753618645604545,-2.0734338052325576,0.3535910886627907,2.3595568219962833e-12,0.07933347,0.28455867,9.7692885,0.003144,-0.001989,0.001556,0.06392649020819693
1757946316.2275727,-0.7881120262953453,1.2305585723261225,2.141603414582322,-0.483888841841639,0.7535751369863746,-2.0734338052325576,0.3535910886627907,2.2164702623735895e-12,0.07095573000000001,0.30012714,9.780658290000002,0.004392,0.000249,0.00381,0.06188788049501744
1757946316.247701,-0.7923313079494124,1.2370934416920667,2.1416063751830388,-0.4838102576196701,0.7534490820388677,-2.0734338052325576,0.3535910886627907,2.0789856226330208e-12,0.06720831000000001,0.29728224000000003,9.76704201,0.003433,-0.001956,0.004956,0.06324018020897115
1757946316.2685964,-0.7881891289574172,1.2306074458762994,2.141609172053718,-0.4838019585358602,0.753432706786601,-2.0734338052325576,0.3535910886627907,1.9539039418294244e-12,0.06720831000000001,0.29728224000000003,9.76704201,0.003433,-0.001956,0.004956,0.06144309531419042
1757946316.2943501,-0.7894951257270606,1.2325719592352884,2.141614566441506,-0.4837106775435781,0.7532839198522172,-2.0734338052325576,0.3535910886627907,1.7220650519045538e-12,0.07275096,0.2951829,9.78021684,0.000634,-0.001358,0.005567,0.0614679179016513
1757946316.3149552,-0.7894951257270606,1.2325719592352884,2.141614566441506,-0.4837106775435781,0.7532839198522172,-2.0734338052325576,0.3535910886627907,1.7220650519045538e-12,0.07275096,0.2951829,9.78021684,0.000634,-0.001358,0.005567,0.0614679179016513
1757946316.335579,-0.790568118333425,1.2341754541863283,2.141619598050184,-0.48363858102911805,0.7531655023148239,-2.0734338052325576,0.3535910886627907,1.5182371364431877e-12,0.07155414,0.29189655000000003,9.76195062,0.002174,0.002018,0.00218,0.06147070441787344
1757946316.3563437,-0.790568118333425,1.2341754541863283,2.141619598050184,-0.48363858102911805,0.7531655023148239,-2.0734338052325576,0.3535910886627907,1.5182371364431877e-12,0.07155414,0.29189655000000003,9.76195062,0.002174,0.002018,0.00218,0.06147070441787344
1757946316.3771653,-0.7918787496356599,1.236150753217493,2.1416243070912397,-0.483552533970754,0.753025755523856,-2.0734338052325576,0.3535910886627907,1.3380469906102738e-12,0.06196977,0.29054277,9.77467419,0.003598,-0.003349,0.004434,0.061487189041258015
1757946316.3975315,-0.7918787496356599,1.236150753217493,2.1416243070912397,-0.483552533970754,0.753025755523856,-2.0734338052325576,0.3535910886627907,1.3380469906102738e-12,0.06196977,0.29054277,9.77467419,0.003598,-0.003349,0.004434,0.061487189041258015
1757946316.41958,-0.7955951856760303,1.2418740745574584,2.1416287576868456,-0.4833707473726483,0.7527371537906883,-2.0734338052325576,0.3535910886627907,1.176948044959258e-12,0.07469334000000001,0.28965006000000004,9.77677353,0.004736,0.000148,0.003982,0.06214344052986176
1757946316.4435453,-0.7979495180662005,1.2455089434744284,2.141630857931487,-0.48329812384726456,0.7526214993647643,-2.0734338052325576,0.3535910886627907,1.1042936106040097e-12,0.07065162,0.29788065,9.764795520000002,0.002713,-0.000105,0.005205,0.06284665322213832
1757946316.4643207,-0.7939749972049513,1.2392886851787352,2.1416328350641836,-0.4832945761597732,0.7526135948876113,-2.0734338052325576,0.3535910886627907,1.0380512190348235e-12,0.07260381,0.28530423000000005,9.78560253,0.002157,-0.001079,0.003259,0.06122369058558513
1757946316.4852366,-0.8000803332530709,1.2487655947712684,2.1416348022255365,-0.4832154119351017,0.7524879615758538,-2.0734338052325576,0.3535910886627907,9.735081710452837e-13,0.07035732,0.29893032,9.77287896,0.004652,-0.004189,0.003839,0.06339383715409921
1757946316.5062494,-0.7955894203644497,1.241742011934181,2.141636646049216,-0.48321075766828986,0.7524785129658008,-2.0734338052325576,0.3535910886627907,9.149029189470396e-13,0.06930765,0.29278926000000005,9.79024266,0.000784,-0.000243,0.002006,0.06146640131423499
1757946316.5286674,-0.8027791807395638,1.2529083252167017,2.141638491059389,-0.4831043850863066,0.7523106355354022,-2.0734338052325576,0.3535910886627907,8.574655661764822e-13,0.07035732,0.29788065,9.77826465,0.00279,-0.001961,0.00509,0.06394604256048157
1757946316.5488176,-0.7982276900033587,1.245791178617456,2.1416402174116316,-0.4830755884592221,0.7522637129018187,-2.0734338052325576,0.3535910886627907,8.053926864848575e-13,0.07574301000000001,0.29398608000000004,9.75865446,0.003487,4.1e-05,0.004187,0.061887563424680395
1757946316.5731637,-0.797070869299227,1.2439321573605093,2.141643480170611,-0.4830340177701835,0.7521951270827584,-2.0734338052325576,0.3535910886627907,7.105711259251692e-13,0.07155414,0.28979721,9.78110955,0.005212,-0.002836,0.00406,0.06122954901069379
1757946316.5935671,-0.797070869299227,1.2439321573605093,2.141643480170611,-0.4830340177701835,0.7521951270827584,-2.0734338052325576,0.3535910886627907,7.105711259251692e-13,0.07155414,0.28979721,9.78110955,0.005212,-0.002836,0.00406,0.06122954901069379
1757946316.618415,-0.8005540323302531,1.2492999774457478,2.1416465560581326,-0.48289853574751046,0.7519804752752729,-2.0734338052325576,0.3535910886627907,6.253667755501221e-13,0.06646275,0.30221667,9.787996170000001,0.002526,-0.000993,0.003194,0.06195831793953712
1757946316.64396,-0.8036032554372257,1.2540207024867904,2.141648005162052,-0.4828363138494642,0.7518818716864706,-2.0734338052325576,0.3535910886627907,5.867227940835344e-13,0.08576883000000002,0.29653668000000005,9.78605379,0.003839,-0.000483,0.00382,0.06295459949474069
1757946316.6641092,-0.7995455566405903,1.2476748682507532,2.1416493592138224,-0.48284198831656167,0.7518891314011352,-2.0734338052325576,0.3535910886627907,5.514984223528731e-13,0.07125003,0.29893032,9.76164651,0.000801,-0.001752,0.002219,0.06129519876468238
1757946316.6846623,-0.7999118460907669,1.2482185098301548,2.1416506598222327,-0.4828604443727789,0.751916408082033,-2.0734338052325576,0.3535910886627907,5.183528182234657e-13,0.07708698000000001,0.29159244,9.76209777,0.004493,-0.002039,0.00391,0.06151076447944982
1757946316.7050886,-0.8007439665557985,1.2494878883032572,2.141651911564722,-0.4828804745532084,0.7519462088182751,-2.0734338052325576,0.3535910886627907,4.870790969026622e-13,0.057633750000000004,0.30101985000000003,9.763893,0.004192,-0.001519,0.003844,0.06182111583090424
1757946316.726792,-0.8072925407866295,1.2596591575459495,2.1416531593628356,-0.4827991018433371,0.7518180303983435,-2.0734338052325576,0.3535910886627907,4.565491180053391e-13,0.0666099,0.29414304,9.77392863,0.001668,0.001163,0.004967,0.0639897505115301
1757946316.7471564,-0.8028573409250516,1.25272686462087,2.1416543176469247,-0.48278830182115395,0.7517998549367243,-2.0734338052325576,0.3535910886627907,4.2883741384844146e-13,0.07888221,0.2951829,9.78201207,0.00538,-0.001359,0.004234,0.06195941118949873
1757946316.7736456,-0.8026085900277402,1.2522889376504394,2.1416564991665386,-0.48275157694695076,0.75174015458489,-2.0734338052325576,0.3535910886627907,3.7818030870853975e-13,0.07784234999999999,0.28740357,9.77781339,0.002222,-0.001273,0.005057,0.061576281643507924
1757946316.7941658,-0.8026085900277402,1.2522889376504394,2.1416564991665386,-0.48275157694695076,0.75174015458489,-2.0734338052325576,0.3535910886627907,3.7818030870853975e-13,0.07784234999999999,0.28740357,9.77781339,0.002222,-0.001273,0.005057,0.061576281643507924
1757946316.8178124,-0.8054156686139723,1.2566106903276915,2.1416585347597756,-0.4826141686869909,0.7515237895212974,-2.0734338052325576,0.3535910886627907,3.327932911559142e-13,0.08172711,0.30027429,9.78305193,0.001457,-0.000744,0.004222,0.06202429815254863
1757946316.8387113,-0.8054156686139723,1.2566106903276915,2.1416585347597756,-0.4826141686869909,0.7515237895212974,-2.0734338052325576,0.3535910886627907,3.327932911559142e-13,0.08172711,0.30027429,9.78305193,0.001457,-0.000744,0.004222,0.06202429815254863
1757946316.8597202,-0.8051309089103605,1.2561191412173978,2.141660377902549,-0.4825126028876796,0.7513635128412819,-2.0734338052325576,0.3535910886627907,2.932087319211728e-13,0.08053028999999999,0.29697813,9.79712928,0.002996,-0.000476,0.004594,0.061524558609020535
1757946316.880068,-0.8048160237467036,1.255605276229526,2.1416612168901903,-0.48252078435735374,0.7513753527920912,-2.0734338052325576,0.3535910886627907,2.7556618668056873e-13,0.07559586,0.2806641,9.774968490000001,0.002195,-0.00143,0.003598,0.06148259732169985
1757946316.9005256,-0.8048160237467036,1.255605276229526,2.1416612168901903,-0.48252078435735374,0.7513753527920912,-2.0734338052325576,0.3535910886627907,2.7556618668056873e-13,0.07559586,0.2806641,9.774968490000001,0.002195,-0.00143,0.003598,0.06148259732169985
1757946316.9213073,-0.8128420282491842,1.2680798606204036,2.141662063445981,-0.4824068870965128,0.7511970311331967,-2.0734338052325576,0.3535910886627907,2.5817540119556536e-13,0.07005321,0.3008727,9.771525180000001,0.003641,-0.001996,0.002621,0.06426703482070734
1757946316.942317,-0.8088913852640759,1.2618821306797317,2.1416636097694255,-0.4822256061838999,0.7509129311135944,-2.0734338052325576,0.3535910886627907,2.2713935576110986e-13,0.07948062,0.3150972,9.764942670000002,0.005474,-0.001562,0.004618,0.06190909627638879
1757946316.966204,-0.8122498099553479,1.2670893060630488,2.141664328658706,-0.4821407652798843,0.7507800286584347,-2.0734338052325576,0.3535910886627907,2.1303562594605697e-13,0.06571719000000001,0.28919880000000003,9.78529842,0.003043,-0.001766,0.003683,0.06307878732096006
1757946316.9867296,-0.8076814742080513,1.2599534736211027,2.1416649831841212,-0.48213423260801935,0.7507691647001542,-2.0734338052325576,0.3535910886627907,2.0022104779390752e-13,0.07439904,0.29054277,9.764795520000002,0.000449,-0.000582,0.003727,0.06126442259332264
1757946317.0139952,-0.8078205743884046,1.2601266243414344,2.1416662091155008,-0.4820975398505094,0.7507108033860344,-2.0734338052325576,0.3535910886627907,1.7658859600708118e-13,0.06675705000000001,0.29578131,9.78605379,0.001791,-0.00069,0.003546,0.061227427278210476
1757946317.0344274,-0.8078205743884046,1.2601266243414344,2.1416662091155008,-0.4820975398505094,0.7507108033860344,-2.0734338052325576,0.3535910886627907,1.7658859600708118e-13,0.06675705000000001,0.29578131,9.78605379,0.001791,-0.00069,0.003546,0.061227427278210476
1757946317.0585413,-0.8106232764210655,1.2644484659948865,2.1416673242354722,-0.4820039431477767,0.7505639188752843,-2.0734338052325576,0.3535910886627907,1.5547137987399256e-13,0.06735546,0.29219085,9.78261048,0.003851,-0.001516,0.003278,0.06188333389862059
1757946317.0795047,-0.8112972707939157,1.2654772020005525,2.14166782356818,-0.4819965999915658,0.7505520065113412,-2.0734338052325576,0.3535910886627907,1.460068105916118e-13,0.06571719000000001,0.29398608000000004,9.763451550000001,0.002366,-0.000213,0.004626,0.06212670510583456
1757946317.0999782,-0.8090363577514766,1.2619360923228986,2.141668280344679,-0.4820305429351084,0.7506044499406649,-2.0734338052325576,0.3535910886627907,1.3725765928132364e-13,0.06840513000000001,0.30551283,9.77077962,0.003496,-0.002805,0.002702,0.061296287092968346
1757946317.1209352,-0.8090363577514766,1.2619360923228986,2.141668280344679,-0.4820305429351084,0.7506044499406649,-2.0734338052325576,0.3535910886627907,1.3725765928132364e-13,0.06840513000000001,0.30551283,9.77077962,0.003496,-0.002805,0.002702,0.061296287092968346
1757946317.1409533,-0.8118543268689282,1.2662837814605514,2.141669149654171,-0.4819518618154921,0.7504810719071562,-2.0734338052325576,0.3535910886627907,1.20836516188575e-13,0.07275096,0.29862621,9.77362452,0.001966,0.000176,0.002213,0.06189189483161754
1757946317.167592,-0.8168559711430824,1.2740523377769406,2.141669550744651,-0.48187752033654824,0.750364908005827,-2.0734338052325576,0.3535910886627907,1.1328766566891289e-13,0.07244685000000001,0.30326634,9.78335604,0.003896,-0.00292,0.004777,0.06360741008166537
1757946317.1885433,-0.8121531280539591,1.266709698753119,2.141669902526866,-0.48187854481805775,0.7503661724700658,-2.0734338052325576,0.3535910886627907,1.0643845226844134e-13,0.05927202,0.29878317000000004,9.7781175,0.001615,0.000101,0.003084,0.061630915359137214
1757946317.2143514,-0.8115807547610487,1.2657800673244028,2.141670539129615,-0.48185589017205627,0.7503303523702941,-2.0734338052325576,0.3535910886627907,9.38640761004318e-14,0.07739109000000001,0.30551283,9.77257485,0.004772,-0.000981,0.004721,0.06126869852644446
1757946317.234724,-0.8115807547610487,1.2657800673244028,2.141670539129615,-0.48185589017205627,0.7503303523702941,-2.0734338052325576,0.3535910886627907,9.38640761004318e-14,0.07739109000000001,0.30551283,9.77257485,0.004772,-0.000981,0.004721,0.06126869852644446
1757946317.25708,-0.8136806016428775,1.2690124105879377,2.1416710896041895,-0.4817847045142986,0.7502190480136325,-2.0734338052325576,0.3535910886627907,8.266436268800898e-14,0.06436341000000001,0.28500993,9.78470001,0.004809,-0.001819,0.005201,0.061719627603414554
1757946317.2774413,-0.8122266729794559,1.266730086767532,2.141671313312367,-0.4818195092150486,0.7502731118709194,-2.0734338052325576,0.3535910886627907,7.771130415841769e-14,0.06601149,0.29114118,9.77273181,0.002406,-4.8e-05,0.00316,0.06127430975480822
1757946317.2983134,-0.8129889060888448,1.2678989165715537,2.14167151658552,-0.48185736721181016,0.75033197645885,-2.0734338052325576,0.3535910886627907,7.303296337134892e-14,0.07275096,0.29862621,9.77797035,0.002277,-0.002648,0.003255,0.061671406170067826
1757946317.3243349,-0.8182979916256113,1.2761480887985206,2.141671715267499,-0.48181672872641046,0.7502685740681929,-2.0734338052325576,0.3535910886627907,6.849312286321636e-14,0.06765957,0.28919880000000003,9.77617512,0.004757,-0.001607,0.0039,0.06351459887204879
1757946317.3444214,-0.8136701181204177,1.2689240656235146,2.1416718752729444,-0.48184434038317514,0.7503114919300204,-2.0734338052325576,0.3535910886627907,6.43691555377207e-14,0.0811287,0.30371760000000003,9.77273181,0.001447,0.000881,0.005102,0.06156401494020332
1757946317.3680801,-0.8205613987905981,1.2796373814043835,2.1416720367543896,-0.481765150222331,0.7501880670267421,-2.0734338052325576,0.3535910886627907,6.032907712500656e-14,0.06870924,0.29728224000000003,9.751326390000001,0.003836,-0.001844,0.00354,0.06398256597764507
1757946317.3885775,-0.8159712752885695,1.2724725393988543,2.141672161819356,-0.48175784493416157,0.7501766298679551,-2.0734338052325576,0.3535910886627907,5.666263378743335e-14,0.0754389,0.30161826,9.76659075,0.005226,-0.000128,0.004085,0.061959827318902906
1757946317.4089882,-0.8206613426404011,1.2797586276794357,2.1416722817715392,-0.4816801833953011,0.7500556377967877,-2.0734338052325576,0.3535910886627907,5.3123705095760854e-14,0.07035732,0.29039562,9.78215922,0.001341,-0.000903,0.003751,0.06356892167334173
1757946317.4298515,-0.8159853227122564,1.272460453449312,2.141672367403304,-0.4816775393437055,0.7500515159561505,-2.0734338052325576,0.3535910886627907,4.991140268737265e-14,0.07110288000000001,0.29548701,9.78110955,0.004149,-0.002216,0.003295,0.06162263397236787
1757946317.4502637,-0.8253806299640105,1.2870737971785953,2.14167244833887,-0.4816124133331269,0.7499501130671646,-2.0734338052325576,0.3535910886627907,4.680844623710047e-14,0.06137136000000001,0.29967588,9.76508982,0.003058,-0.000425,0.004848,0.06542777076183198
1757946317.4741583,-0.8161054328784086,1.2725981294093283,2.1416725292222445,-0.48164056401784927,0.7499941131568191,-2.0734338052325576,0.3535910886627907,4.133707103613297e-14,0.0754389,0.29742939,9.79562835,0.003984,-0.002344,0.004002,0.06158434305070873
1757946317.495232,-0.8162928430921406,1.272873932925781,2.141672544338377,-0.4816699603350798,0.7500400274739968,-2.0734338052325576,0.3535910886627907,3.884468639402072e-14,0.053886329999999996,0.29414304,9.76464837,0.002551,0.000174,0.00319,0.061725660146932655
1757946317.5192935,-0.8192391796248066,1.2774459976451746,2.1416725502899734,-0.48166118113746526,0.7500264907067065,-2.0734338052325576,0.3535910886627907,3.6460694030028796e-14,0.07244685000000001,0.29249496,9.780658290000002,0.003267,-0.000565,0.004155,0.06276819680404866
1757946317.539552,-0.8167167628900099,1.2735025352452563,2.1416725333025894,-0.4816901463686218,0.750071749599901,-2.0734338052325576,0.3535910886627907,3.426226505785689e-14,0.07155414,0.28889469,9.78170796,0.003395,-0.001284,0.003641,0.061709084149335264
1757946317.5599165,-0.8167167628900099,1.2735025352452563,2.1416725333025894,-0.4816901463686218,0.750071749599901,-2.0734338052325576,0.3535910886627907,3.426226505785689e-14,0.07155414,0.28889469,9.78170796,0.003395,-0.001284,0.003641,0.061709084149335264
1757946317.5843074,-0.8221513921604574,1.2819342093418646,2.141672491060465,-0.4814652299979287,0.7497216663870974,-2.0734338052325576,0.3535910886627907,3.008060165726887e-14,0.060920100000000005,0.30371760000000003,9.74877579,0.004632,-0.001072,0.004119,0.06286233118788885
1757946317.6047487,-0.8213355922461825,1.2806487211501256,2.141672439994922,-0.48141375816212667,0.7496416635364548,-2.0734338052325576,0.3535910886627907,2.8232315632386492e-14,0.06107706,0.29159244,9.787849020000001,0.002687,-0.000965,0.003621,0.06243103484069441
1757946317.624775,-0.8197183005931625,1.2781153811719046,2.1416723713800563,-0.4813968772094237,0.7496155749706479,-2.0734338052325576,0.3535910886627907,2.6518149021957204e-14,0.07888221,0.2977335,9.783503190000001,0.002903,0.000271,0.003794,0.06181525610745052
1757946317.6488886,-0.825262601363146,1.2867339445379102,2.1416723017437924,-0.48129864927065613,0.7494628091287238,-2.0734338052325576,0.3535910886627907,2.4854252294758768e-14,0.07184844,0.30491442,9.771976440000001,0.005769,-0.001871,0.004132,0.06377354605586422
1757946317.6732266,-0.8185058005748871,1.2761834690112328,2.1416720977690904,-0.4813033083271046,0.7494705681501738,-2.0734338052325576,0.3535910886627907,2.194637184561622e-14,0.06167547,0.29369178,9.77601816,0.004018,-0.000966,0.005355,0.061169458028428006
1757946317.693472,-0.8188350498737464,1.2766819383577355,2.1416719759367755,-0.4813390622608521,0.749526557895671,-2.0734338052325576,0.3535910886627907,2.0628011844698952e-14,0.07559586,0.30491442,9.7607538,0.001761,-0.000787,0.00272,0.061474986929158336
1757946317.71396,-0.8188350498737464,1.2766819383577355,2.1416719759367755,-0.4813390622608521,0.749526557895671,-2.0734338052325576,0.3535910886627907,2.0628011844698952e-14,0.07559586,0.30491442,9.7607538,0.001761,-0.000787,0.00272,0.061474986929158336
1757946317.7340705,-0.8193945994241856,1.2775252281611187,2.141671707664565,-0.48133014148441194,0.7495132617876549,-2.0734338052325576,0.3535910886627907,1.8183458062656612e-14,0.07439904,0.29907747,9.77976558,0.004083,-0.000459,0.00412,0.061441613253252585
1757946317.7544851,-0.8193945994241856,1.2775252281611187,2.141671707664565,-0.48133014148441194,0.7495132617876549,-2.0734338052325576,0.3535910886627907,1.8183458062656612e-14,0.07439904,0.29907747,9.77976558,0.004083,-0.000459,0.00412,0.061441613253252585
1757946317.776156,-0.8214406965730892,1.280683940682535,2.141671400814179,-0.4812645057624867,0.7494116415692232,-2.0734338052325576,0.3535910886627907,1.6010664000483086e-14,0.07619427,0.29398608000000004,9.77677353,0.003239,-0.001648,0.003,0.06185406207243186
1757946317.7975597,-0.8214406965730892,1.280683940682535,2.141671400814179,-0.4812645057624867,0.7494116415692232,-2.0734338052325576,0.3535910886627907,1.6010664000483086e-14,0.07619427,0.29398608000000004,9.77677353,0.003239,-0.001648,0.003,0.06185406207243186
1757946317.8184335,-0.8213683449861398,1.28054451504757,2.141671051188853,-0.48121724411574696,0.7493386884761853,-2.0734338052325576,0.3535910886627907,1.4107989958224708e-14,0.08846658,0.30880899,9.774968490000001,0.002982,-0.000917,0.003748,0.0616012460014524
1757946317.84538,-0.8264677577216049,1.2884720072530567,2.14167086650561,-0.4811550766952805,0.7492422164577418,-2.0734338052325576,0.3535910886627907,1.3228977531428984e-14,0.08053028999999999,0.29922462000000005,9.77826465,0.003785,-0.000788,0.003862,0.06345617086433873
1757946317.8668256,-0.8216510463472573,1.2809585802204717,2.1416706646583386,-0.4811679071923553,0.7492625554817773,-2.0734338052325576,0.3535910886627907,1.2431197023954267e-14,0.05792805,0.29503575000000004,9.77976558,0.003694,-0.000202,0.004235,0.06150392798634371
1757946317.8871777,-0.8215571881612238,1.280799613178616,2.141670453885258,-0.4811948009871743,0.7493048283112641,-2.0734338052325576,0.3535910886627907,1.168197510844292e-14,0.0751446,0.27917298,9.76464837,0.001215,-0.000567,0.004922,0.06160460169242262
1757946317.9081872,-0.8231195862458472,1.2832198629169338,2.1416702366343445,-0.48120804568564113,0.7493258583110898,-2.0734338052325576,0.3535910886627907,1.0971040520417087e-14,0.09190989000000001,0.28725642,9.77871591,0.004524,-0.001146,0.005186,0.0622360275270505
1757946317.9339075,-0.82231814542748,1.281946919554803,2.1416697815196324,-0.4811734129032227,0.749272700607775,-2.0734338052325576,0.3535910886627907,9.6666142097548e-15,0.06930765,0.29219085,9.78275763,0.003726,-0.001064,0.004686,0.061561355748803386
1757946317.9543073,-0.82231814542748,1.281946919554803,2.1416697815196324,-0.4811734129032227,0.749272700607775,-2.0734338052325576,0.3535910886627907,9.6666142097548e-15,0.06930765,0.29219085,9.78275763,0.003726,-0.001064,0.004686,0.061561355748803386
1757946317.9776416,-0.8243761406952248,1.2851271549897563,2.141669300725769,-0.48107344316973233,0.7491177993821413,-2.0734338052325576,0.3535910886627907,8.50740983810314e-15,0.0691605,0.29907747,9.76404996,0.002843,-0.000262,0.004836,0.061944632767517244
1757946317.9997702,-0.8258319083943036,1.2873820558426858,2.1416690482928775,-0.48104907104499434,0.7490802668423889,-2.0734338052325576,0.3535910886627907,7.985607350698951e-15,0.06287229,0.28470582,9.78290478,0.004517,-0.00194,0.002972,0.062496954080540054
1757946318.0201597,-0.823701920110102,1.2840534487002364,2.1416687864292783,-0.48106187978718973,0.7491006530885238,-2.0734338052325576,0.3535910886627907,7.502930406202565e-15,0.07753824,0.28860039000000004,9.77362452,0.004439,-0.000473,0.003867,0.06168753830673563
1757946318.0404515,-0.823701920110102,1.2840534487002364,2.1416687864292783,-0.48106187978718973,0.7491006530885238,-2.0734338052325576,0.3535910886627907,7.502930406202565e-15,0.07753824,0.28860039000000004,9.77362452,0.004439,-0.000473,0.003867,0.06168753830673563
1757946318.0607102,-0.8263666311482121,1.288179518958498,2.1416682553071205,-0.4809201650250695,0.7488808041808029,-2.0734338052325576,0.3535910886627907,6.598092817690917e-15,0.06900354,0.29144529,9.77661657,0.005301,-0.001103,0.003632,0.06218798698033291
1757946318.0818596,-0.8263083022571464,1.2880772332618549,2.1416679777561747,-0.48090090059854806,0.7488512563422043,-2.0734338052325576,0.3535910886627907,6.195135753055635e-15,0.06615864,0.3005784,9.76613949,0.003181,0.001155,0.004857,0.06218315201061394
1757946318.1020682,-0.8264193906482484,1.2882388918652234,2.141667694560031,-0.4808885942623156,0.7488325605156407,-2.0734338052325576,0.3535910886627907,5.816887822367267e-15,0.07888221,0.29219085,9.78620094,0.001659,-0.001619,0.004566,0.06222852713053917
1757946318.122418,-0.8264193906482484,1.2882388918652234,2.141667694560031,-0.4808885942623156,0.7488325605156407,-2.0734338052325576,0.3535910886627907,5.816887822367267e-15,0.07888221,0.29219085,9.78620094,0.001659,-0.001619,0.004566,0.06222852713053917
1757946318.1426713,-0.8284635792218016,1.2913997034368778,2.1416671211691956,-0.48070348435940097,0.7485451755368434,-2.0734338052325576,0.3535910886627907,5.1117721617678565e-15,0.09340101,0.30371760000000003,9.77617512,0.001296,-0.000292,0.003407,0.062376575911619436
1757946318.1631286,-0.8277800740558632,1.2903243954248202,2.1416668236924457,-0.48067603043622975,0.7485028965659488,-2.0734338052325576,0.3535910886627907,4.7993172643926344e-15,0.07394778,0.29818476,9.77273181,0.005587,0.000191,0.005129,0.06213900344832834
1757946318.1836843,-0.8277800740558632,1.2903243954248202,2.1416668236924457,-0.48067603043622975,0.7485028965659488,-2.0734338052325576,0.3535910886627907,4.7993172643926344e-15,0.07394778,0.29818476,9.77273181,0.005587,0.000191,0.005129,0.06213900344832834
1757946318.2056284,-0.8334893765989738,1.2992039589218227,2.141666526891491,-0.48055881574004766,0.7483208273395082,-2.0734338052325576,0.3535910886627907,4.4959147041639045e-15,0.07155414,0.29847906,9.76913154,0.003861,-0.00068,0.003111,0.0641273352228218
1757946318.2256656,-0.8287550659703682,1.2918103480689271,2.141665915856567,-0.4803971463321734,0.748069996749463,-2.0734338052325576,0.3535910886627907,3.955327792783428e-15,0.07903917,0.2894931,9.77077962,0.005231,-0.001442,0.003562,0.06179610939681761
1757946318.2457926,-0.8297463892156649,1.2933435270773397,2.1416656026892706,-0.4803653378930132,0.7480209697714718,-2.0734338052325576,0.3535910886627907,3.7128124407602135e-15,0.05732964000000001,0.30297204000000005,9.7579089,0.00245,0.002103,0.004173,0.062289108046255065
1757946318.2668455,-0.8251993366191043,1.2862525513168377,2.1416652816462243,-0.48040802955153955,0.7480879734170576,-2.0734338052325576,0.3535910886627907,3.4917299902119733e-15,0.06720831000000001,0.31120263000000004,9.779010210000001,0.004835,-0.001651,0.004055,0.06073641350137865
1757946318.2926009,-0.8249416994603961,1.285831033904791,2.141664627047648,-0.4805570370369355,0.7483211276237334,-2.0734338052325576,0.3535910886627907,3.087511851290705e-15,0.06870924,0.2920437,9.79218504,0.002807,-0.001926,0.003894,0.061217588962035455
1757946318.3131237,-0.8249416994603961,1.285831033904791,2.141664627047648,-0.4805570370369355,0.7483211276237334,-2.0734338052325576,0.3535910886627907,3.087511851290705e-15,0.06870924,0.2920437,9.79218504,0.002807,-0.001926,0.003894,0.061217588962035455
1757946318.333699,-0.8256474244095625,1.2869100669169367,2.141663959584494,-0.480646236834393,0.7484611013526733,-2.0734338052325576,0.3535910886627907,2.7234525336902097e-15,0.07364367000000001,0.29982303,9.75910572,0.003162,-0.000502,0.004607,0.061393357850515154
1757946318.3542023,-0.8256474244095625,1.2869100669169367,2.141663959584494,-0.480646236834393,0.7484611013526733,-2.0734338052325576,0.3535910886627907,2.7234525336902097e-15,0.07364367000000001,0.29982303,9.75910572,0.003162,-0.000502,0.004607,0.061393357850515154
1757946318.3745596,-0.8267025415395798,1.288533594688276,2.1416632792333434,-0.4806851677210295,0.7485227522852264,-2.0734338052325576,0.3535910886627907,2.4002747243821556e-15,0.07888221,0.29429019,9.77706783,0.005834,0.00034,0.00491,0.061578418167796134
1757946318.3950143,-0.8267025415395798,1.288533594688276,2.1416632792333434,-0.4806851677210295,0.7485227522852264,-2.0734338052325576,0.3535910886627907,2.4002747243821556e-15,0.07888221,0.29429019,9.77706783,0.005834,0.00034,0.00491,0.061578418167796134
1757946318.4154577,-0.8268502139354693,1.2887444774200456,2.1416625870425454,-0.4807076012188914,0.7485587127784714,-2.0734338052325576,0.3535910886627907,2.1156948590882198e-15,0.06601149,0.28829628,9.76988691,0.003185,3.6e-05,0.003583,0.061467629622719365
1757946318.435886,-0.8268502139354693,1.2887444774200456,2.1416625870425454,-0.4807076012188914,0.7485587127784714,-2.0734338052325576,0.3535910886627907,2.1156948590882198e-15,0.06601149,0.28829628,9.76988691,0.003185,3.6e-05,0.003583,0.061467629622719365
1757946318.456616,-0.8277904443159863,1.2901899345093444,2.141661885518517,-0.48069325762832593,0.7485374087064087,-2.0734338052325576,0.3535910886627907,1.863900639904746e-15,0.0577809,0.28695231,9.78021684,0.000551,-0.000109,0.004348,0.06161954667784689
1757946318.476922,-0.826980363192215,1.288919319333133,2.1416615296838017,-0.4807420368802047,0.7486139117160235,-2.0734338052325576,0.3535910886627907,1.7519123446780632e-15,0.07244685000000001,0.30625839,9.764795520000002,0.00532,-0.000675,0.005098,0.061472470558340736
1757946318.4969509,-0.8269369954657239,1.2888427356659125,2.141661171560388,-0.4807988589038537,0.7487029519184961,-2.0734338052325576,0.3535910886627907,1.646600754919071e-15,0.08038314,0.28216503000000004,9.77766624,0.002192,0.001201,0.003734,0.06160437134305001
1757946318.5216432,-0.831382464870538,1.29575626420015,2.141660813043691,-0.4807886921943728,0.7486876599415516,-2.0734338052325576,0.3535910886627907,1.5448007816638181e-15,0.07529175,0.2977335,9.768533130000002,0.003782,-0.000483,0.004434,0.06322902410828767
1757946318.5420887,-0.826966252643824,1.2888704515298792,2.14166045074227,-0.480839259837636,0.7487669472862837,-2.0734338052325576,0.3535910886627907,1.4520482149895156e-15,0.06151851,0.29862621,9.763147440000001,0.004533,0.000695,0.003361,0.061461593868364826
1757946318.5633726,-0.8444017750452012,1.3160211939364563,2.14166045074227,-0.480839259837636,0.7487669472862837,-2.0734338052325576,0.3535910886627907,1.4520482149895156e-15,0.07753824,0.29967588,9.75880161,0.001778,0.00011,0.0035,0.06928628975482566
1757946318.5844457,-0.8301635750863057,1.2938318396289596,2.1416597254634393,-0.4807503063139167,0.7486294604596088,-2.0734338052325576,0.3535910886627907,1.277432813897098e-15,0.0751446,0.29623257000000003,9.76688505,0.003925,0.000231,0.00301,0.06221410757557198
1757946318.610394,-0.8360350834071535,1.3029663761332517,2.1416593622946376,-0.480638450535071,0.748455782137029,-2.0734338052325576,0.3535910886627907,1.1966794452444114e-15,0.06975891000000001,0.2920437,9.78545538,0.003606,0.000236,0.004066,0.06422406706190383
1757946318.631332,-0.8311226563013684,1.2953081748100181,2.141658996321288,-0.4806073135037646,0.7484078151356028,-2.0734338052325576,0.3535910886627907,1.1235322896873057e-15,0.08397360000000001,0.28800198,9.783650340000001,0.001366,-0.000396,0.004114,0.06211663618281217
1757946318.6524625,-0.8281270210523731,1.2906265948248703,2.141658260922666,-0.4806058114782688,0.7484065711663921,-2.0734338052325576,0.3535910886627907,9.915070388219802e-16,0.07963758,0.30311919,9.768385980000001,0.001237,-0.000692,0.003073,0.061130173754163804
1757946318.674061,-0.8289527373520569,1.2919041884707194,2.141657891348564,-0.4806383077004922,0.7484577479841006,-2.0734338052325576,0.3535910886627907,9.317366855555244e-16,0.07409493,0.28111536000000004,9.79847325,0.003225,-0.000472,0.003989,0.061658642549853475
1757946318.694246,-0.8283586125469994,1.29097087709685,2.141657520453263,-0.48068707719973247,0.7485342693429268,-2.0734338052325576,0.3535910886627907,8.757475243140409e-16,0.07095573000000001,0.29833191000000003,9.771230880000001,0.005575,-0.001669,0.003845,0.06156245683433826
1757946318.7151213,-0.8283586125469994,1.29097087709685,2.141657520453263,-0.48068707719973247,0.7485342693429268,-2.0734338052325576,0.3535910886627907,8.757475243140409e-16,0.07095573000000001,0.29833191000000003,9.771230880000001,0.005575,-0.001669,0.003845,0.06156245683433826
1757946318.7353928,-0.829817845897724,1.2932271698843307,2.141656777301753,-0.48067496843903035,0.7485165148082654,-2.0734338052325576,0.3535910886627907,7.715495548407891e-16,0.07409493,0.29293641,9.783208890000001,0.004967,6.3e-05,0.002282,0.06185718966944896
1757946318.7558162,-0.829817845897724,1.2932271698843307,2.141656777301753,-0.48067496843903035,0.7485165148082654,-2.0734338052325576,0.3535910886627907,7.715495548407891e-16,0.07409493,0.29293641,9.783208890000001,0.004967,6.3e-05,0.002282,0.06185718966944896
1757946318.7765129,-0.8300994307340771,1.293649934237761,2.1416560320558053,-0.4806253516601869,0.7484403224112868,-2.0734338052325576,0.3535910886627907,6.795593503018017e-16,0.06900354,0.29474145,9.784405710000001,0.001443,-0.001241,0.003625,0.06167785875512165
1757946318.796885,-0.8300994307340771,1.293649934237761,2.1416560320558053,-0.4806253516601869,0.7484403224112868,-2.0734338052325576,0.3535910886627907,6.795593503018017e-16,0.06900354,0.29474145,9.784405710000001,0.001443,-0.001241,0.003625,0.06167785875512165
1757946318.8177876,-0.831960257244494,1.296532235473738,2.1416552864240046,-0.48051670839491184,0.7482721997885861,-2.0734338052325576,0.3535910886627907,5.979603138983343e-16,0.07634142000000001,0.28965006000000004,9.780815250000002,-0.000173,0.00027,0.005073,0.06204498410653351
1757946318.8395586,-0.8328449224848403,1.2979022809359864,2.1416549132296296,-0.4804942372636785,0.7482377525380332,-2.0734338052325576,0.3535910886627907,5.613169157111194e-16,0.07229970000000001,0.29173959000000005,9.77856876,0.003977,-0.001317,0.004901,0.06241492582827123
1757946318.8596656,-0.8300187658622445,1.2934938385575194,2.1416545394756197,-0.48051897690163414,0.7482768323064374,-2.0734338052325576,0.3535910886627907,5.275460413801619e-16,0.06167547,0.30161826,9.75446559,0.003976,-0.000942,0.004009,0.061414988886406986
1757946318.8800428,-0.8310546311381373,1.2950995095273579,2.141654165684387,-0.48054065970330795,0.7483111616831808,-2.0734338052325576,0.3535910886627907,4.955743999201329e-16,0.07275096,0.30192237,9.76913154,0.00224,-0.000668,0.005227,0.06195440628725159
1757946318.900893,-0.8300747403089389,1.293566274984215,2.1416537915535425,-0.4805817230804301,0.748375672005371,-2.0734338052325576,0.3535910886627907,4.65719782043076e-16,0.08471916,0.29309337,9.78529842,0.004345,-0.002925,0.002995,0.061667086551265515
1757946318.9253654,-0.8364080828733844,1.3034214567580482,2.1416534179319875,-0.4805209843357745,0.7482816259695645,-2.0734338052325576,0.3535910886627907,4.3653651049755407e-16,0.07095573000000001,0.30806343,9.77347737,0.002933,0.00075,0.002855,0.06393144107033398
1757946318.9467387,-0.831487071044609,1.2957511315436652,2.1416530439622683,-0.48053350619401164,0.7483016635539225,-2.0734338052325576,0.3535910886627907,4.1007204953403446e-16,0.07364367000000001,0.31015296,9.755662410000001,0.00289,-0.000749,0.005299,0.061858639279932036
1757946318.9734404,-0.8312209034961303,1.2953295456036813,2.1416526701981464,-0.4805566197371679,0.7483382049023848,-2.0734338052325576,0.3535910886627907,3.8525029540365815e-16,0.07693983,0.29862621,9.78110955,0.000978,0.000626,0.00188,0.06185328867545964
1757946318.987494,-0.8313673268072053,1.2955505330328259,2.1416522966155984,-0.4805828642531391,0.7483796257701325,-2.0734338052325576,0.3535910886627907,3.619044420280777e-16,0.07693983,0.29862621,9.78110955,0.000978,0.000626,0.00188,0.061979706269829876
1757946319.012484,-0.8311717505313678,1.2952321230369037,2.1416515503482234,-0.48060092544862476,0.7484088379942322,-2.0734338052325576,0.3535910886627907,3.19109991053229e-16,0.07948062,0.29862621,9.78290478,0.003601,5.1e-05,0.003838,0.06180145596387664
1757946319.037698,-0.833760432996159,1.2992564876794626,2.1416511778036407,-0.4805922162681347,0.7483958152140439,-2.0734338052325576,0.3535910886627907,2.99502486694346e-16,0.06840513000000001,0.29069973,9.77677353,0.001841,-0.000956,0.004533,0.06277204885667222
1757946319.0584376,-0.8316151689598664,1.2959090616041744,2.141650805689176,-0.48061432295471024,0.748430779422113,-2.0734338052325576,0.3535910886627907,2.8136373903855326e-16,0.06452037000000001,0.30551283,9.74728467,0.005909,-0.000552,0.003702,0.06190340939935252
1757946319.0797808,-0.8351682655989889,1.301435386607552,2.1416504341951654,-0.48058140959767587,0.7483800559377946,-2.0734338052325576,0.3535910886627907,2.6394504804487183e-16,0.06526593,0.29862621,9.77692068,0.002815,-0.001095,0.003236,0.06317997559412869
1757946319.1000898,-0.8340054379054075,1.2996179685389508,2.14165006341526,-0.4805629885113866,0.7483518962486205,-2.0734338052325576,0.3535910886627907,2.477510677689319e-16,0.08067744,0.3008727,9.76539393,0.001346,-0.001554,0.006524,0.06256506671858102
1757946319.1204615,-0.834214384194945,1.2999367968107343,2.1416496934580795,-0.480541658736718,0.748319207427298,-2.0734338052325576,0.3535910886627907,2.325466844957239e-16,0.08262963000000001,0.29952873,9.77287896,0.002858,-0.00067,0.003904,0.06256700339661224
1757946319.141048,-0.8321427507474919,1.2967042901741372,2.1416493243306416,-0.48055392550546644,0.7483388414756023,-2.0734338052325576,0.3535910886627907,2.1847136899923126e-16,0.07275096,0.29907747,9.771378030000001,0.000243,-0.002796,0.003156,0.06178548450640562
1757946319.162146,-0.8322749933872234,1.2969038163269755,2.1416489559700853,-0.48057123481705744,0.7483663340923384,-2.0734338052325576,0.3535910886627907,2.0523365393942472e-16,0.07963758,0.28650105,9.77452704,0.002603,-0.00188,0.004886,0.0619284375005278
1757946319.1824484,-0.8325167093314063,1.2972738840257236,2.141648588332812,-0.4805893314649357,0.7483950529312314,-2.0734338052325576,0.3535910886627907,1.9277771728661699e-16,0.056878380000000006,0.30775932,9.76659075,0.001839,-0.001353,0.003745,0.06206724113473507
1757946319.2028682,-0.8328720558253969,1.2978209658461226,2.1416482214355836,-0.48060424817937264,0.7484188165771828,-2.0734338052325576,0.3535910886627907,1.8105245631039865e-16,0.07260381,0.29414304,9.76164651,0.002268,0.000275,0.004799,0.06220857322344515
1757946319.223664,-0.8335468259804962,1.298865529886495,2.141647855329044,-0.4806090327810359,0.7484267963847,-2.0734338052325576,0.3535910886627907,1.6999723237160594e-16,0.07529175,0.2860596,9.78934014,0.004247,-0.00139,0.004899,0.062425964105489104
1757946319.2446132,-0.8331736609057921,1.2982782658495606,2.141647490154062,-0.4806186677639413,0.7484423257087248,-2.0734338052325576,0.3535910886627907,1.5964744092617517e-16,0.06137136000000001,0.30132396,9.77482134,0.002776,-0.000141,0.003383,0.06223729798823378
1757946319.2654328,-0.8333512331330908,1.298548697396573,2.141647125935876,-0.48062600704216557,0.7484542777179696,-2.0734338052325576,0.3535910886627907,1.4992055712398435e-16,0.08382645000000001,0.30611124,9.76224492,0.004513,0.000712,0.005485,0.0622805272222709
1757946319.2858176,-0.8336937032741965,1.299075976204487,2.1416467627170617,-0.4806279812761197,0.7484578719110306,-2.0734338052325576,0.3535910886627907,1.4077091862210208e-16,0.0779895,0.29862621,9.78290478,0.003786,-0.001097,0.004138,0.0623703336956379
1757946319.3064413,-0.8354001897279796,1.3017274222288167,2.1416464004897726,-0.4806008318509873,0.7484161055059547,-2.0734338052325576,0.3535910886627907,1.3209438851976788e-16,0.0691605,0.30670965,9.76030254,0.001685,0.000652,0.002064,0.0629077756431997
1757946319.3271103,-0.8405161849644144,1.3096883646997257,2.141646039314927,-0.4804712990042447,0.7482148747076598,-2.0734338052325576,0.3535910886627907,1.2371103559892073e-16,0.06870924,0.2860596,9.771976440000001,0.003872,-0.00136,0.005302,0.06448453033113581
1757946319.3521914,-0.8336443883598773,1.298975579887829,2.141645322416272,-0.48041460918989815,0.7481275916756399,-2.0734338052325576,0.3535910886627907,1.0908852033586935e-16,0.07110288000000001,0.29757654,9.774968490000001,0.002308,-0.001458,0.003132,0.061662167445766566
1757946319.373045,-0.8337271191641165,1.2990986726346598,2.1416449661193564,-0.48041597416868276,0.7481302344034543,-2.0734338052325576,0.3535910886627907,1.0247592386394086e-16,0.08772102000000001,0.30746502000000003,9.77048532,0.004405,-0.001134,0.003715,0.061837137416309154
1757946319.393389,-0.833919902562948,1.2993932025198887,2.1416446110187293,-0.48042300377805186,0.7481417011492609,-2.0734338052325576,0.3535910886627907,9.625540091684174e-17,0.0691605,0.30072555,9.763893,0.000964,-0.000549,0.003055,0.06199650080071416
1757946319.413557,-0.8348338322593363,1.3008107952828691,2.1416442570112233,-0.4804214138218755,0.748139741489604,-2.0734338052325576,0.3535910886627907,9.037900945171632e-17,0.06990606,0.29114118,9.77976558,0.000964,-0.000549,0.003055,0.062359415451409696
1757946319.4344845,-0.8348338322593363,1.3008107952828691,2.1416442570112233,-0.4804214138218755,0.748139741489604,-2.0734338052325576,0.3535910886627907,9.037900945171632e-17,0.06990606,0.29114118,9.77976558,0.000964,-0.000549,0.003055,0.062359415451409696
1757946319.454806,-0.8390074327794329,1.3073045723477603,2.14164390388465,-0.48034785736140223,0.7480256921758565,-2.0734338052325576,0.3535910886627907,8.472220956673714e-17,0.06331374,0.28305774,9.771976440000001,0.001784,-0.001532,0.002941,0.06374913785915357
1757946319.4791884,-0.8374435106365878,1.3048580988398784,2.141643202704893,-0.4801312745332458,0.7476893642939137,-2.0734338052325576,0.3535910886627907,7.443661189876005e-17,0.07349652000000001,0.28276344,9.765246780000002,0.00389,-0.002332,0.004082,0.062378400932486935
1757946319.4997308,-0.8343012952280723,1.2999594372192829,2.141642855279361,-0.4801268481908998,0.7476829634865703,-2.0734338052325576,0.3535910886627907,6.994775593455453e-17,0.09176274,0.28709946000000003,9.78215922,0.002985,0.00012,0.00272,0.06132163259745768
1757946319.5203292,-0.834414652364657,1.300130603561421,2.1416425093198574,-0.48013871363475247,0.7477019482474525,-2.0734338052325576,0.3535910886627907,6.572268542320927e-17,0.07559586,0.29474145,9.76913154,0.003465,-0.000338,0.003503,0.06160273817429077
1757946319.5409708,-0.8346170674854843,1.300440509609421,2.141642164636389,-0.48015993118761013,0.7477355001815527,-2.0734338052325576,0.3535910886627907,6.174489867523715e-17,0.0754389,0.29578131,9.76404996,0.004752,-0.001704,0.004276,0.06183166345067572
1757946319.561575,-0.8347810567715757,1.3006906290247071,2.141641821166174,-0.48018650906543686,0.747777396853448,-2.0734338052325576,0.3535910886627907,5.800214493703442e-17,0.060772950000000006,0.28800198,9.77946147,0.002613,-0.000273,0.003879,0.06198372221278603
1757946319.5824602,-0.8348666162719129,1.3008186645367772,2.1416414789176965,-0.4802164065229845,0.7478244577939005,-2.0734338052325576,0.3535910886627907,5.4483215244989155e-17,0.06990606,0.29458449000000003,9.771682140000001,0.004928,-0.001406,0.004564,0.062067583385634756
1757946319.6027057,-0.8351786952359963,1.301299501331492,2.1416411378884987,-0.4802440455867929,0.747867995581314,-2.0734338052325576,0.3535910886627907,5.117061492810454e-17,0.07963758,0.29309337,9.78515127,0.00302,-0.000927,0.003745,0.062206440816662927
1757946319.6227539,-0.8353074559380136,1.3014949132288067,2.141640798160177,-0.4802701255997269,0.7479090992927053,-2.0734338052325576,0.3535910886627907,4.80569229017135e-17,0.08217837000000001,0.28441152000000003,9.78201207,0.00137,0.000449,0.004662,0.06224990173260225
1757946319.6431131,-0.8361198691995162,1.3027550020693675,2.1416404596907856,-0.48028283907909497,0.7479293808115413,-2.0734338052325576,0.3535910886627907,4.5118239550959927e-17,0.07424208,0.29728224000000003,9.78455286,0.003251,-0.002565,0.004517,0.06251834544903516
1757946319.6637201,-0.8362263413508589,1.3029158004830526,2.1416401226802098,-0.4802912665445839,0.7479429819607999,-2.0734338052325576,0.3535910886627907,4.235896309566583e-17,0.07693983,0.30311919,9.76508982,0.000626,0.000927,0.002786,0.06248819730216121
1757946319.6841323,-0.8358701991000678,1.3023562335564085,2.1416397872578745,-0.4803035828906635,0.7479626361932724,-2.0734338052325576,0.3535910886627907,3.977554904114479e-17,0.07320222,0.29757654,9.78185511,0.001654,-0.003539,0.004863,0.062310366880245806
1757946319.7048795,-0.8368594950017161,1.3038919219033025,2.141639453236989,-0.48029961471696925,0.7479569271205073,-2.0734338052325576,0.3535910886627907,3.733559674120765e-17,0.07289811,0.28441152000000003,9.760008240000001,0.003947,-0.000668,0.004691,0.06263492986332003
1757946319.7318554,-0.8359992301747501,1.3025425786313596,2.1416387903196963,-0.48031853150906484,0.7479873226809926,-2.0734338052325576,0.3535910886627907,3.2923992350003605e-17,0.07724394000000001,0.29173959000000005,9.772280550000001,0.004276,-0.001045,0.003429,0.0622668191390241
1757946319.7523823,-0.8359992301747501,1.3025425786313596,2.1416387903196963,-0.48031853150906484,0.7479873226809926,-2.0734338052325576,0.3535910886627907,3.2923992350003605e-17,0.07724394000000001,0.29173959000000005,9.772280550000001,0.004276,-0.001045,0.003429,0.0622668191390241
1757946319.7725186,-0.8364728981395131,1.3032706877605602,2.1416381332365724,-0.48021810838968054,0.7478318380343197,-2.0734338052325576,0.3535910886627907,2.89706507274337e-17,0.07275096,0.29728224000000003,9.771682140000001,0.002204,7.5e-05,0.003605,0.06201172544658222
1757946319.793455,-0.8360180454249391,1.3025576770848046,2.1416378078974567,-0.48022106647587337,0.7478369043225122,-2.0734338052325576,0.3535910886627907,2.7210998119319457e-17,0.0577809,0.29847906,9.78290478,0.004874,-0.002663,0.004638,0.06193650573293357
1757946319.8135142,-0.8361757050425301,1.3027985617179008,2.141637484197144,-0.48022832910746255,0.7478486772525127,-2.0734338052325576,0.3535910886627907,2.555630040458998e-17,0.06960195,0.29563416000000003,9.771378030000001,0.003013,0.001141,0.003279,0.062076894197538326
1757946319.834443,-0.8367424182607551,1.303676499163067,2.1416371620151287,-0.4802310783401318,0.7478534200151427,-2.0734338052325576,0.3535910886627907,2.3996675591479953e-17,0.06406911000000001,0.30551283,9.78529842,0.003911,-0.000513,0.005266,0.06231821052500149
1757946319.855263,-0.8365269052870442,1.3033363380706882,2.1416368414952043,-0.48023893852428856,0.7478661188292635,-2.0734338052325576,0.3535910886627907,2.2534591416157882e-17,0.07289811,0.29338767,9.765246780000002,0.004163,-0.002129,0.004507,0.062233838361608576
1757946319.8758748,-0.8366711644993291,1.3035564856419561,2.1416365225729477,-0.4802465098282567,0.7478783646807632,-2.0734338052325576,0.3535910886627907,2.1160553110403328e-17,0.07380063,0.29533986,9.76972995,0.002877,-0.001035,0.003673,0.062290181174347134
1757946319.8959162,-0.8378163312769727,1.3053353659911147,2.141636205088485,-0.48023650370974574,0.7478632319796347,-2.0734338052325576,0.3535910886627907,1.986144845410363e-17,0.07619427,0.29713509,9.7724277,0.003379,-0.001664,0.002872,0.06267590558156429
1757946319.91613,-0.837034448446245,1.3041133342938853,2.14163588946019,-0.4802375234203846,0.7478652658696672,-2.0734338052325576,0.3535910886627907,1.864897801652327e-17,0.07125003,0.29278926000000005,9.78574968,0.00263,-7.9e-05,0.003752,0.06231829416246096
1757946319.936355,-0.837034334627871,1.3041087787548318,2.141635575537242,-0.48023996978942224,0.7478695197417817,-2.0734338052325576,0.3535910886627907,1.7510875845497568e-17,0.08098155,0.29668383,9.763294590000001,0.001025,-0.001327,0.004327,0.06231078856007788
1757946319.9570408,-0.8369846915208573,1.304027133863188,2.141635263323928,-0.48024451771681004,0.7478770443093723,-2.0734338052325576,0.3535910886627907,1.6442856575997717e-17,0.06691401,0.3005784,9.759556980000001,0.005451,-0.000139,0.00333,0.06228648087445847
1757946319.9779494,-0.8372563666185637,1.3044459128688022,2.141634952757462,-0.4802460122345256,0.7478798111411316,-2.0734338052325576,0.3535910886627907,1.543852481115473e-17,0.08457201,0.2860596,9.783807300000001,0.001609,-0.001586,0.001701,0.0623764987633804
1757946319.9990003,-0.8373465037154364,1.3045820260901573,2.141634643886963,-0.4802464978946059,0.7478810037727684,-2.0734338052325576,0.3535910886627907,1.449535862297279e-17,0.06137136000000001,0.30431601,9.771378030000001,0.00311,-0.000908,0.002851,0.062383802414934644
1757946320.0192356,-0.8373587283973749,1.3045968476318455,2.141634336739479,-0.4802472008479619,0.7478825319667352,-2.0734338052325576,0.3535910886627907,1.361008364690955e-17,0.0782838,0.30611124,9.75805605,0.002621,-0.000871,0.003616,0.062363259230653195
1757946320.0392854,-0.8380166792752572,1.3056172875798406,2.1416340312021127,-0.48023774831670607,0.747868241454601,-2.0734338052325576,0.3535910886627907,1.2775795966562175e-17,0.08861373,0.3097017,9.7610481,0.003421,-0.000122,0.004324,0.06256919796121027
1757946320.0596082,-0.8379722007407565,1.305543882808529,2.1416337274486406,-0.48022825098793165,0.7478538777465278,-2.0734338052325576,0.3535910886627907,1.1993403986582152e-17,0.06615864,0.28965006000000004,9.78634809,0.004874,-0.000262,0.004347,0.0624907721761537
1757946320.0801885,-0.8378512153270576,1.305351373832824,2.141633425503885,-0.48022100558559166,0.7478430187446353,-2.0734338052325576,0.3535910886627907,1.125990391741415e-17,0.08322804,0.28216503000000004,9.79368597,0.003757,0.000678,0.002471,0.06240643204255868
1757946320.10099,-0.8383525605368151,1.3061280503872643,2.141633125245292,-0.480206673097492,0.747821120424471,-2.0734338052325576,0.3535910886627907,1.0569451601233406e-17,0.07484049000000001,0.2951829,9.7784118,0.002528,0.000172,0.00463,0.06255531916555353
1757946320.1218612,-0.8378399082429762,1.3053256784635976,2.141632826885541,-0.4802008939321128,0.7478125401242598,-2.0734338052325576,0.3535910886627907,9.923825399573089e-18,0.06720831000000001,0.29637972,9.77721498,0.004796,-0.000346,0.003013,0.06232459191940705
1757946320.1422174,-0.8381241378657132,1.3057643199293838,2.1416325302466337,-0.48019268281414396,0.7478001708196864,-2.0734338052325576,0.3535910886627907,9.316770116652522e-18,0.07708698000000001,0.29324052,9.77706783,0.002774,0.000491,0.00261,0.06241905193871491
1757946320.163347,-0.8385325423303358,1.3063963740455502,2.1416322353069344,-0.4801790757823058,0.747779395462206,-2.0734338052325576,0.3535910886627907,8.745674614147685e-18,0.06421626,0.2920437,9.7610481,0.002867,-0.003072,0.003746,0.06253446977655391
1757946320.1835902,-0.838449559532591,1.306263231583119,2.141631942179675,-0.48016736676961225,0.747761573043163,-2.0734338052325576,0.3535910886627907,8.210199902398076e-18,0.07409493,0.29039562,9.764795520000002,0.004232,-0.00082,0.0046,0.06245723286232435
1757946320.2046778,-0.83830247702504,1.3060303037328174,2.1416316508737,-0.48015939733487234,0.747749572219029,-2.0734338052325576,0.3535910886627907,7.708225632577285e-18,0.06720831000000001,0.31270356000000005,9.76195062,0.004328,-0.001352,0.002481,0.06237668403285648
1757946320.2263978,-0.8479506374822435,1.3210514971702236,2.1416313613222027,-0.48015144981108515,0.7477376034167352,-2.0734338052325576,0.3535910886627907,7.236770410807144e-18,0.07289811,0.28905165000000005,9.74862864,0.004629,0.001832,0.003742,0.06668397435785786
1757946320.2512543,-0.8386157969786375,1.306506816650104,2.1416307874909677,-0.48013681508501405,0.7477156210071603,-2.0734338052325576,0.3535910886627907,6.3785320694062074e-18,0.07529175,0.2832147,9.78634809,0.001255,-0.00082,0.004945,0.06243545000026733
1757946320.2733328,-0.8396973517602319,1.3081873791505905,2.141630503006053,-0.4801121686366031,0.7476776374782131,-2.0734338052325576,0.3535910886627907,5.985820603000922e-18,0.06392196,0.29159244,9.77617512,0.004844,-0.001614,0.003417,0.06278081832152249
1757946320.2985556,-0.8418731909397069,1.3115720970805862,2.1416302199487145,-0.4800476960504349,0.7475776242919836,-2.0734338052325576,0.3535910886627907,5.612754953602405e-18,0.06526593,0.29938158000000004,9.75431844,0.001556,0.003152,0.003902,0.06342648777676917
1757946320.3192523,-0.841464541074328,1.3109320298021403,2.1416299389524305,-0.47998679807344724,0.7474831735304863,-2.0734338052325576,0.3535910886627907,5.264533485119424e-18,0.07708698000000001,0.30027429,9.780511140000002,0.00518,-0.000896,0.004686,0.0630591388238088
1757946320.3396564,-0.8392026355630782,1.307405927589769,2.1416296603529723,-0.4799644744229179,0.7474487961700073,-2.0734338052325576,0.3535910886627907,4.942921997765942e-18,0.07275096,0.283509,9.78156081,0.003254,-0.000887,0.005168,0.06214997167463502
1757946320.3598292,-0.839185772144573,1.30737606176207,2.1416293835988114,-0.47995045984409046,0.7474273617614384,-2.0734338052325576,0.3535910886627907,4.6410273077240035e-18,0.06287229,0.29010132000000005,9.755368110000001,0.001324,0.001465,0.004215,0.062212877317297965
1757946320.3801503,-0.8389325162085144,1.3069780954940673,2.1416291086618084,-0.4799468555165658,0.7474221395593467,-2.0734338052325576,0.3535910886627907,4.3580444962339365e-18,0.06885639,0.30565998000000005,9.76044969,0.006394,-0.00175,0.005342,0.06217181750885265
1757946320.4003694,-0.8391179345440499,1.307263309745309,2.1416288354008275,-0.47994604024177123,0.7474212592324306,-2.0734338052325576,0.3535910886627907,4.092000222031083e-18,0.07439904,0.30446316,9.764795520000002,0.001594,-0.001607,0.003278,0.06228423261917594
1757946320.4211538,-0.8402835337982627,1.309074991974528,2.1416285636056713,-0.4799300188833719,0.7473966938904285,-2.0734338052325576,0.3535910886627907,3.840418953827596e-18,0.07155414,0.28141947,9.787250610000001,0.004525,-0.000734,0.003832,0.06270392098485734
1757946320.441678,-0.8394009635369954,1.3076970877287888,2.1416282937299895,-0.4799284792215907,0.7473946772251565,-2.0734338052325576,0.3535910886627907,3.6057549373884236e-18,0.07289811,0.2860596,9.764795520000002,0.005423,-0.000578,0.00319,0.062328935445855584
1757946320.461868,-0.8392536081325401,1.3074641682005517,2.1416280255965106,-0.47993234645465294,0.7474010788331731,-2.0734338052325576,0.3535910886627907,3.38566207198088e-18,0.07394778,0.3005784,9.78185511,0.002043,0.001523,0.004373,0.06229097651356485
1757946320.4835496,-0.839696594064522,1.3081506204886462,2.1416277590653525,-0.4799319116907492,0.7474007780380091,-2.0734338052325576,0.3535910886627907,3.178448817734849e-18,0.07364367000000001,0.29878317000000004,9.78904584,0.006021,-0.001817,0.005277,0.062461671720463435
1757946320.5044339,-0.8397097674199118,1.308167754482932,2.1416274942338385,-0.47993223551859865,0.7474016552173322,-2.0734338052325576,0.3535910886627907,2.983960818386945e-18,0.07304526,0.29114118,9.78993855,0.001634,0.000187,0.004161,0.062446114404525084
1757946320.5245779,-0.8410105242551327,1.3101900781970242,2.1416272308511015,-0.47991183626930517,0.7473702553036665,-2.0734338052325576,0.3535910886627907,2.7999624349954485e-18,0.07888221,0.30161826,9.791439480000001,0.003248,-0.00019,0.004613,0.06287646344516327
