timestamp,x,y,theta,vx,vy,bias_accel_x,bias_accel_y,bias_angular_velocity,accel_x,accel_y,accel_z,gyro_x,gyro_y,gyro_z,cov_trace
1758011894.8487332,0.0,0.0,0.0,0.0,0.0,-2.2998813232277233,0.42456908798019805,0.017660724752475244,0.07693983,0.31554846000000003,9.78215922,0.000759,-0.003034,0.004055,3.13
1758011894.8698113,-4.225504765728342e-06,-1.2075823087490287e-05,-9.7693352199002e-06,1.9153192219204364e-05,5.473678853133192e-05,-2.2998810698613203,0.4245698120612315,-0.01184265340870624,0.06900354,0.3356001,9.76164651,0.005375,-0.000455,0.004343,0.7970765541564436
1758011894.8980865,-4.924409403485265e-05,-0.00014455360131269843,-2.3126824113539612e-05,0.003945347588842831,0.0115849968693498,-2.2996025873809876,0.4253869718704827,-0.013018097294831858,0.08038314,0.3179421,9.80461431,0.003421,0.000754,0.004432,0.41021322858941245
1758011894.9188068,-6.235031823165817e-05,-0.00018166289296223462,-2.2619273213564384e-05,0.005184579200892553,0.015139169772509998,-2.299256717596272,0.42639699330724745,-0.01298871189264423,0.07784234999999999,0.31584276000000006,9.7954812,0.002668,0.000146,0.00476,0.34563187230592074
1758011894.9393294,-6.927745557259857e-05,-0.0002066298743365542,-2.1443610155991166e-05,0.005700646913347579,0.016910392562002143,-2.298834295213064,0.42765014891081193,-0.01292648470129167,0.08308089000000002,0.33724818,9.76254903,0.001737,0.001775,0.004979,0.30406943882789095
1758011894.9615326,-8.88743187512017e-05,-0.0002598136061999456,-2.175199698895014e-05,0.0065381727705504395,0.019184054006778993,-2.2982555463923107,0.42934841386043116,-0.012933229949947675,0.0751446,0.32931189000000005,9.79758054,0.007217,0.000904,0.004695,0.2749398328762399
1758011894.98239,-0.00010544074248476067,-0.0003041967224597801,-2.2028833341014575e-05,0.0063099132627767885,0.01829289170737157,-2.297757937847912,0.43079108473456734,-0.01288408629365483,0.07110288000000001,0.32242527000000004,9.80251497,0.00318,-0.000612,0.005057,0.2528732454829898
1758011895.0030425,-0.00012693597749980444,-0.0003706390360566248,-2.2563063877711897e-05,0.0069204607150627675,0.020219961646035137,-2.2971133089708653,0.43267467917618674,-0.012892186521997827,0.07963758,0.32258223,9.77946147,0.003112,0.001366,0.004716,0.23607340545690106
1758011895.0232444,-0.00014800301474047025,-0.0004281985313861565,-2.2730355684341674e-05,0.006498841913215184,0.018802006189872655,-2.2965840735191216,0.43420609044157654,-0.013010459016996889,0.06960195,0.33050871,9.78245352,0.004404,-0.001949,0.003787,0.2221471552310399
1758011895.043494,-0.00016318667367637343,-0.000477527831925504,-1.9527772346261685e-05,0.006491779898004784,0.01902903972393767,-2.2960499045657734,0.4357716371184249,-0.01281620000877356,0.08322804,0.32122845000000005,9.799974180000001,0.002842,0.000166,0.006407,0.21096975080111202
1758011895.0643206,-0.0001785511631480576,-0.0005190513108835652,-2.0772945484193173e-05,0.0063767348276177,0.018520825043761315,-2.2955428917850336,0.43724480883325495,-0.01303348997485981,0.06960195,0.33889626,9.77018121,0.004011,0.002439,0.002723,0.20153687140469967
1758011895.0845764,-0.0002040287582979117,-0.0005991777025851502,-2.1378808614080924e-05,0.0069488150546958985,0.020398603823674106,-2.294868204875985,0.43922555211821557,-0.01304198069207505,0.07679268,0.34623414,9.75416148,0.003853,-1.7e-05,0.00454,0.19373856591919986
1758011895.104653,-0.00023062347352955422,-0.0006777378164257594,-2.1005350173020076e-05,0.006097523670145336,0.017923395421593075,-2.294406642955743,0.4405824085262077,-0.013045414359389053,0.07844076,0.33081282000000006,9.80191656,0.004599,0.002747,0.004581,0.18625972147345546
1758011895.1252766,-0.0002504275083793059,-0.0007308798417589695,-2.2592750061001254e-05,0.006501246562340498,0.018894045100075637,-2.2938655845345304,0.44215503112984905,-0.013073316713458967,0.07139718,0.33095997000000005,9.81014715,0.001293,-0.000228,0.004294,0.18037059261357813
1758011895.1455436,-0.00027382066059540046,-0.0007895270872702113,-2.328115824834498e-05,0.006662863753309822,0.01899024537378087,-2.2933013580883332,0.44376300993956774,-0.013034604312618533,0.06271533,0.33380487000000003,9.76988691,0.003192,-0.001497,0.005052,0.17494819106504497
1758011895.1663315,-0.000301389562068928,-0.0008784843495014055,-3.577043394153989e-05,0.0069036583371519765,0.020058314552023587,-2.2926582272168363,0.4456323652348189,-0.013175267928224283,0.07978473,0.329616,9.80071974,0.004002,-0.000459,0.002891,0.17014113859811425
1758011895.186935,-0.0003274662922971049,-0.0009565722917031927,-3.599207691662443e-05,0.006075432290952829,0.017765336739981666,-2.2922054772230656,0.4469563462699373,-0.013168574631934028,0.07858791000000001,0.33514884,9.78529842,0.002867,-0.003359,0.004572,0.16530979497068884
1758011895.207479,-0.0003575350182984233,-0.0010289521749341634,-3.655719791595402e-05,0.006874308432083875,0.01952869294797661,-2.2915908379275964,0.44870226071610325,-0.013142381778905447,0.06151851,0.33021441000000007,9.7695828,0.005009,0.003161,0.004837,0.1616779107925919
1758011895.2281444,-0.0003823091404701004,-0.0011026880217303828,-3.769046120583042e-05,0.006474779455325354,0.018561185942959406,-2.2910697225615912,0.45019570300405687,-0.0130642455213794,0.07603731000000001,0.32213097,9.77512545,0.002422,-0.0019,0.00558,0.1577852026987392
1758011895.2487109,-0.0004115533018008897,-0.0011848639473504526,-3.3355819761826666e-05,0.006890090145391587,0.01970547225621855,-2.290448070152496,0.4519732062163396,-0.012994078202838419,0.07215255000000001,0.32467176000000003,9.799218810000001,0.002734,0.002506,0.005562,0.15460044112095941
1758011895.2692468,-0.00043770403513527915,-0.0012595966511659803,-3.7561868356128514e-05,0.006137753165605099,0.017569076874838017,-2.2900001620176567,0.4532549134755757,-0.012931308468625391,0.07215255000000001,0.32467176000000003,9.799218810000001,0.002734,0.002506,0.005562,0.15109290009749118
1758011895.2893305,-0.0004634766615534988,-0.0013296502829999149,-5.36499631751397e-05,0.006823021509965668,0.019401991156240552,-2.289405880743196,0.45494580655498257,-0.013074746563531282,0.0691605,0.31943322,9.75910572,0.00076,-7.2e-05,0.002669,0.14859361316539801
1758011895.3094184,-0.000491038372751235,-0.0014025758680392437,-5.721048019369235e-05,0.006719846294394764,0.018918675226295895,-2.288845833163926,0.4565223081092314,-0.013064130053056457,0.06452037000000001,0.32063004,9.78649524,0.004127,0.001452,0.004741,0.14577699417327383
1758011895.33721,-0.0005418364678634872,-0.001569166143166711,-5.5618181439509584e-05,0.006003922749789688,0.017584069032306027,-2.287798559666077,0.45958048800644263,-0.013018853151996133,0.07978473,0.32782077000000004,9.759704130000001,0.004563,0.001209,0.005141,0.14060446222042877
1758011895.363278,-0.0005737939916100851,-0.0016568558179981831,-6.461642115151989e-05,0.006827178353557438,0.01977422483785905,-2.2871722063232873,0.4613955307964027,-0.013084528451735111,0.07139718,0.33006726000000003,9.79203789,0.002581,-0.00021,0.003658,0.13886236964982665
1758011895.3833873,-0.0006037519212206317,-0.0017375606370129196,-6.551458958981016e-05,0.006159290847773357,0.017567580030592264,-2.2867214662632978,0.46268137292603595,-0.013108912817746489,0.06556023,0.31314501,9.77646942,0.002012,0.00196,0.004201,0.13631135587449375
1758011895.403763,-0.000626345089095873,-0.0017944931119573395,-7.115581276062599e-05,0.006598383805834349,0.018545880399874305,-2.2861859815507195,0.46418637612789165,-0.013126557250766615,0.06301944000000001,0.32213097,9.76764042,0.003862,0.000955,0.004279,0.13462101157263737
1758011895.4243379,-0.0006428766393897808,-0.0018562324426940088,-7.789427282567374e-05,0.006356441464554143,0.018505829840268093,-2.285671574645332,0.4656860718231963,-0.013302359685167318,0.08562168,0.33425613,9.783208890000001,0.002447,-0.001101,0.001795,0.13277277944365068
1758011895.4474688,-0.0006910501250111498,-0.0020012906826199174,-7.354103858991934e-05,0.007164837845123048,0.02097871893583602,-2.284939864672052,0.4678292601243332,-0.013293120845465469,0.08053028999999999,0.31674527999999996,9.77632227,0.003722,-0.000714,0.004499,0.13134887866954262
1758011895.467876,-0.0007293288322005989,-0.0021127561248516892,-7.420746020603275e-05,0.006012948780330919,0.017553055916649525,-2.2844996145929577,0.46911462139102356,-0.013265629150634594,0.07439904,0.32976315,9.768690090000002,0.003404,3.4e-05,0.004798,0.12891076426530118
1758011895.4890876,-0.0007506542379096237,-0.0021750837702587756,-7.233333907041839e-05,0.006184446737604314,0.018036774255636063,-2.2840264330652387,0.47049487370527826,-0.013240119810643483,0.07784234999999999,0.31778514,9.77781339,0.003404,3.4e-05,0.004798,0.12748230075191283
1758011895.5095246,-0.0007771862966578555,-0.0022495716209850625,-7.91943258247052e-05,0.006630983071387333,0.019221533854005896,-2.283452364611399,0.4721600614063329,-0.013308986188143959,0.07394778,0.32272938,9.772133400000001,0.004031,0.000291,0.003339,0.12622122086409998
1758011895.5298507,-0.0008099314518380035,-0.0023373784881470907,-8.452563174055072e-05,0.006727777258141746,0.019258840260417368,-2.282864016882478,0.4738446726584802,-0.013343742379124758,0.06870924,0.32198382,9.77482134,0.002173,-0.000556,0.003807,0.12472746639363902
1758011895.5498402,-0.0008382294025090478,-0.0024127290954754593,-8.608471643434257e-05,0.006169865450784636,0.01744548789763626,-2.2824141895477146,0.47511702595241195,-0.013410240728292094,0.06436341000000001,0.31734369000000007,9.779010210000001,0.00437,0.000451,0.003254,0.12295622642504557
1758011895.5712965,-0.0008663451351957675,-0.0024976279929407163,-9.789270079796353e-05,0.006783368079420346,0.019395815177309268,-2.2818067627871286,0.47685456542220295,-0.013476356123310307,0.07334937000000001,0.32827203,9.78485697,0.00272,-0.001711,0.003208,0.1220739028580951
1758011895.5924175,-0.0008920730283155218,-0.002574409297370532,-0.00010205109553496072,0.005989864569854308,0.01728951934418165,-2.2813744846499677,0.47810166163929735,-0.013387123841421546,0.07963758,0.32227812,9.807007950000001,0.004235,-0.000705,0.001921,0.1203325017092365
1758011895.6163943,-0.0009261236304344968,-0.00268265370065446,-0.00010664976327579012,0.00597227953553837,0.017588679391616666,-2.2804375063591684,0.4808490857136761,-0.013542164077821665,0.08322804,0.32407335000000004,9.779010210000001,0.002975,-0.002097,0.003982,0.11808343409104273
1758011895.6421149,-0.0009576682913238878,-0.002760245002880005,-0.00011178253759958068,0.006752462010199146,0.019341781839816937,-2.279835907117103,0.4825726769851719,-0.013561475761728942,0.06646275,0.32063004,9.78230637,0.004556,-0.001186,0.003809,0.1173498515938577
1758011895.6630807,-0.0009834765112486197,-0.0028340138585297597,-0.00011117493563483904,0.0059711350080191,0.017113519253970307,-2.2794116972016125,0.4837891359850618,-0.013609795247422056,0.07289811,0.32213097,9.765246780000002,0.002043,-0.002378,0.003309,0.11576526077399861
1758011895.6835225,-0.0010067484098207826,-0.0028970023479543095,-0.00011898148316502599,0.006527666555336577,0.0185892156682305,-2.2788635348793123,0.4853505095400578,-0.013649511058152212,0.06751242,0.33200964,9.763451550000001,0.00375,0.0015,0.003408,0.11512223158961961
1758011895.7043152,-0.0010270924653977627,-0.0029637842829821517,-0.00011891876342007279,0.006111107195570261,0.017774880244143837,-2.2783948285998052,0.4867151842449161,-0.013713573435853775,0.08322804,0.32602554,9.78261048,0.00395,0.000937,0.002966,0.11391602575156382
1758011895.7243726,-0.0010602580580085326,-0.003066810722967599,-0.00010390355658262962,0.006690582831840682,0.019648950953305887,-2.2777852825592064,0.48850599149916696,-0.01364172173547984,0.08322804,0.31194819,9.802966230000001,0.003626,-0.001262,0.005098,0.11328209306031665
1758011895.7451496,-0.0010874305766643989,-0.0031508546894226308,-0.0001027529861965526,0.005779140563340922,0.01710639363292751,-2.2773755703317624,0.4897193489655785,-0.013581176703578592,0.08308089000000002,0.33095997000000005,9.74607804,0.004307,0.002374,0.005009,0.11176950669853145
1758011895.7661598,-0.001122868995533224,-0.0032554744234851067,-0.00010739940543569304,0.006639366633484626,0.019596745602574035,-2.2767663382087964,0.4915198725201453,-0.013637973098800747,0.07948062,0.32347494000000004,9.775419750000001,0.00339,-0.000127,0.003172,0.11142794483187614
1758011895.7862933,-0.0011541358714392373,-0.0033415138100176345,-0.00010369355693784499,0.0058270419877882495,0.016884312914102716,-2.2763586525154125,0.4927022883451171,-0.01369977019314129,0.06601149,0.32407335000000004,9.78574968,0.003555,0.000254,0.003013,0.10992797865789972
1758011895.8069656,-0.0011728357787459485,-0.0034041752479000258,-0.00010738448443126103,0.006187800111915755,0.018225965773306232,-2.275851416634154,0.49419846209508306,-0.013774716326244399,0.07963758,0.34279083000000005,9.77287896,0.003153,0.000522,0.002747,0.10948054847864337
1758011895.8268764,-0.0011938056521264336,-0.003469567615642725,-0.00010250530487931897,0.005919683629024388,0.017537449961543602,-2.275404281236197,0.4955243191051074,-0.013750767202303128,0.08308089000000002,0.32302368,9.77677353,0.002094,0.002256,0.004277,0.10848243786117556
1758011895.8485622,-0.001218815142492924,-0.003528024700316563,-0.00010349967814260452,0.006266110784017459,0.017935861104881986,-2.2749066734031795,0.4969482549147104,-0.013722406327261509,0.062273880000000004,0.32482872,9.787849020000001,0.005067,-0.000448,0.004372,0.1078179193887359
1758011895.8690941,-0.0012419669781738299,-0.00359166780887495,-0.00010723353669206404,0.006259940030085099,0.017849179997825187,-2.2744185285822125,0.4983398584384001,-0.01372616194962143,0.07139718,0.31569561,9.77108373,0.002832,-0.000807,0.003877,0.10700836710997293
1758011895.8910143,-0.001268394395644926,-0.0036773310932895174,-0.00010453105077923297,0.006514525632414129,0.01893036181583718,-2.2738411605909223,0.5000182719276678,-0.013713440518406256,0.06361785,0.32512302,9.77048532,0.002617,-0.000812,0.001799,0.10653297273967598
1758011895.9136667,-0.0012977618567464346,-0.0037557219388880607,-0.00010226688891723512,0.00588433856125261,0.01680665651361558,-2.2734231275388095,0.5012133927259314,-0.013844742862769996,0.06361785,0.32512302,9.77048532,0.002617,-0.000812,0.001799,0.10529930394613023
1758011895.938604,-0.0013542263731046473,-0.003899314745740512,-0.00010023217784338456,0.005817527643332254,0.01634209623472761,-2.272457946511142,0.5038979883391123,-0.013635888631249897,0.07065162,0.33978897,9.763147440000001,0.00235,-0.000401,0.004605,0.10385329997868105
1758011895.9589148,-0.0013542263731046473,-0.003899314745740512,-0.00010023217784338456,0.005817527643332254,0.01634209623472761,-2.272457946511142,0.5038979883391123,-0.013635888631249897,0.07380063,0.33395202000000007,9.79053696,0.001304,-0.000786,0.005172,0.10385329997868105
1758011895.980472,-0.001419027231399453,-0.00409645797556247,-9.32832021818264e-05,0.005755274185272738,0.016619893903913375,-2.2714313780060307,0.5068459092666723,-0.013482261881183361,0.07844076,0.32377905,9.78230637,0.004066,0.001494,0.005435,0.10257843499750373
1758011896.001324,-0.001441161913719824,-0.004158104979983197,-8.680310403708091e-05,0.0061511452540692416,0.017682701226775673,-2.2709516693354845,0.5082239838677901,-0.013375758509300782,0.07244685000000001,0.32153256,9.801171,0.00147,-0.001301,0.005912,0.10222993641633513
1758011896.0220335,-0.0014583231251681947,-0.004209778213829168,-8.512086305811906e-05,0.0057110721790730856,0.016526198643088685,-2.270556504967301,0.509368450603164,-0.013428939961580842,0.07589016,0.33141123,9.76688505,0.003049,-0.000823,0.003407,0.10137408891876921
1758011896.0421665,-0.001485713109551255,-0.004283911269579172,-0.0001025449866154382,0.006464299830007529,0.018534190687347615,-2.269992673487645,0.5109858347696487,-0.013525270440640601,0.06795387,0.33739533,9.765246780000002,0.004656,0.000254,0.002674,0.10133065132356062
1758011896.063038,-0.0015119655368269155,-0.004363605767053781,-0.00010256262919172698,0.006025938187396734,0.01745402499407378,-2.269534919723667,0.5123126343794256,-0.013566102353221515,0.08098155,0.31165389,9.80595828,0.000918,-0.00139,0.00347,0.10040821106154338
1758011896.083637,-0.0015330493302623145,-0.0044302047280678075,-9.949072361159494e-05,0.006061343533402479,0.017744547112853955,-2.2690594381441467,0.5137059256849695,-0.013568785324395552,0.08007903000000001,0.3270654,9.783208890000001,0.005318,0.000586,0.004051,0.09992586721594625
1758011896.1038136,-0.0015533519928079354,-0.00448253609772182,-0.00010119129403030058,0.005645469011509495,0.01618165775096109,-2.2686771275819275,0.5148016519635406,-0.013571261366638356,0.060920100000000005,0.33904341000000005,9.76060665,0.005318,0.000586,0.004051,0.09905968576723667
1758011896.1240606,-0.0015811289298752,-0.004555375691589175,-0.00010056095414467947,0.006453950834117731,0.018297423334730993,-2.2681234102700842,0.5163700514533617,-0.013528835608213486,0.06571719000000001,0.33275520000000003,9.78290478,0.003504,0.000973,0.004777,0.09909539605382897
1758011896.145085,-0.0016048673110134306,-0.004623083684659202,-0.00010425585416395933,0.005756519395153286,0.016384799388752813,-2.267721951294837,0.5175120873017374,-0.013516689648679086,0.07095573000000001,0.33110712,9.77362452,0.003385,-0.001166,0.004332,0.0980906243901943
1758011896.1655812,-0.0016359822126309187,-0.0047109798819063645,-9.50919924651572e-05,0.0065004584992081555,0.018511578290284946,-2.2671561499448862,0.5191218532634184,-0.013430180599151345,0.07079877000000001,0.32437746,9.76704201,0.003536,0.00091,0.00554,0.09810502698348131
1758011896.186306,-0.0016639566889662223,-0.004786601174182422,-9.837597079220828e-05,0.005740448199612939,0.01621274210878485,-2.266767184694552,0.5202196897102928,-0.013455714578479765,0.06556023,0.31959018000000006,9.78261048,0.003295,-0.000154,0.00381,0.09701634628018334
1758011896.2090764,-0.0016859055479824321,-0.004850623442987977,-0.00010502019687530506,0.006256994526435558,0.017789907656419614,-2.2662702712062432,0.521631977167333,-0.0134799380614205,0.07334937000000001,0.31629402,9.7866522,0.003295,-0.000154,0.00381,0.09692567653943772
1758011896.2306747,-0.0017053988537724866,-0.0049072771973701435,-0.00010757078635537098,0.005890063765249509,0.01682832221923748,-2.2658451848646113,0.5228463657849529,-0.013502726653218167,0.07244685000000001,0.32827203,9.759556980000001,0.003723,0.001435,0.003806,0.09623222349985652
1758011896.258463,-0.0017512336004103385,-0.005046682816286419,-0.00011319714120494595,0.005745131657084572,0.016734775267342048,-2.2649167543024302,0.5255306683248647,-0.013558154500003958,0.08487612,0.30835773000000005,9.815689800000001,0.001586,-0.000979,0.004058,0.09527929736249757
1758011896.2798393,-0.0017512336004103385,-0.005046682816286419,-0.00011319714120494595,0.005745131657084572,0.016734775267342048,-2.2649167543024302,0.5255306683248647,-0.013558154500003958,0.08487612,0.30835773000000005,9.815689800000001,0.001586,-0.000979,0.004058,0.09527929736249757
1758011896.3007674,-0.001829517417875594,-0.005252555452758166,-0.0001203643987852665,0.005589944403101132,0.016032845844765185,-2.263915380417712,0.5283591554064958,-0.013537246269208358,0.08547453,0.31868766000000004,9.779010210000001,0.002605,-0.003425,0.004102,0.09423973828687152
1758011896.3250694,-0.0018538986010392265,-0.005322330866779032,-0.00012116701573194888,0.006134673361950461,0.017593454544632108,-2.263429230097918,0.5297533090096358,-0.013529296266170953,0.07244685000000001,0.32423030999999997,9.77048532,0.003664,-0.001284,0.004252,0.09424249917249648
1758011896.3452513,-0.0018755347323001273,-0.005381888231634369,-0.00012308168460650748,0.0055365544680940106,0.01577348480833041,-2.2630700039467793,0.5307764149213569,-0.013541017868819165,0.06870924,0.31973733,9.77632227,0.002901,-0.000896,0.003938,0.09337034594308032
1758011896.3672972,-0.0019087659109088256,-0.0054852313604618,-0.00011624039062629876,0.006515347956654207,0.018833785021792136,-2.262488052952014,0.5324593150520597,-0.013511113272932052,0.07844076,0.31689243,9.77437008,0.003578,-0.00121,0.004599,0.0937288833880521
1758011896.388219,-0.001936884262061672,-0.005565283109868444,-0.00011514581784100031,0.005513933854270733,0.01586966004725628,-2.262125407474573,0.5335034905638795,-0.013530765585301665,0.06885639,0.33605136,9.768690090000002,0.0037,-0.000902,0.003827,0.09259433281926277
1758011896.413913,-0.001971689968940112,-0.0056567888214599646,-0.00012464834083303344,0.005632451301862137,0.015922645605006013,-2.261316095149747,0.5357975232569375,-0.013626778677494551,0.06751242,0.31973733,9.767787570000001,0.004186,-0.002471,0.003249,0.09188693126225009
1758011896.4347916,-0.001971689968940112,-0.0056567888214599646,-0.00012464834083303344,0.005632451301862137,0.015922645605006013,-2.261316095149747,0.5357975232569375,-0.013626778677494551,0.06751242,0.31973733,9.767787570000001,0.004186,-0.002471,0.003249,0.09188693126225009
1758011896.4553483,-0.0020272690210509105,-0.005809749956385008,-0.00013456291669555753,0.005549108464384007,0.015764373941322782,-2.2603892943543897,0.5384020655248011,-0.013420259709294316,0.0782838,0.32063004,9.765246780000002,0.003326,0.000182,0.006269,0.0911001623347819
1758011896.480146,-0.00205190334626205,-0.005877979921358266,-0.0001464149861827302,0.006294898699811699,0.017846897615622706,-2.259872673948179,0.5398660478969481,-0.013467814343420433,0.0691605,0.32437746,9.7695828,0.003006,-0.000398,0.003467,0.09133535002863147
1758011896.5012333,-0.0020723106426758548,-0.005943314987387301,-0.00015206068448181398,0.005566786258501113,0.01612803611740194,-2.2594986952807723,0.5409489294041119,-0.013288783738796946,0.08592579,0.31434183000000004,9.76599234,0.002168,-0.002716,0.007153,0.09050496169450634
1758011896.523308,-0.0021020056022851936,-0.006024077116979991,-0.00014495771795441925,0.006330858668899278,0.01815921665160996,-2.2589588788077513,0.5424971885924338,-0.013238214528180768,0.07005321,0.32691825,9.759704130000001,0.005139,0.001634,0.005189,0.09074475406401511
1758011896.5443141,-0.00212700149340567,-0.006099151129364624,-0.00014664524150598268,0.005481412189448633,0.01586139941729875,-2.2585992648636384,0.5435382816710652,-0.01319011395280649,0.08053028999999999,0.31479309,9.78470001,0.002618,-0.001744,0.005216,0.08977561715150562
1758011896.5653412,-0.0021622093964141736,-0.006191656589086137,-0.0001681339546886207,0.006427898489169805,0.018298114171606684,-2.2580455939403152,0.5451144827264842,-0.013288512224486015,0.06870924,0.31808925000000005,9.76764042,0.004201,0.001686,0.002888,0.09010775075137416
1758011896.5854695,-0.002189807188811005,-0.006268081810424077,-0.00015960053525532203,0.005541540648716228,0.015698410857694793,-2.2576850394169172,0.546136528693506,-0.013469608868439875,0.06706116000000001,0.32407335000000004,9.768385980000001,0.003123,0.000206,0.001394,0.08910547551437088
1758011896.6135595,-0.002235227835059063,-0.006442416358194877,-0.00013077839200814623,0.0064787213353261095,0.01946776026333434,-2.2570461942284408,0.5480637463079809,-0.013434268814678496,0.09056592000000001,0.33200964,9.78500412,0.002635,0.000656,0.004746,0.08979059258432964
1758011896.6348505,-0.002274430322132191,-0.006561169217588824,-0.00011337498695818127,0.005269937137364452,0.015743232920038968,-2.256702256098784,0.54909568986998,-0.013526466982404381,0.07903917,0.3239262,9.79802199,0.00428,0.001227,0.002737,0.0884585640642553
1758011896.6604104,-0.0023108238945956762,-0.006664175157368181,-0.00010211420178185548,0.005427596822103659,0.015850077753810848,-2.255948035792929,0.5513132769380982,-0.013504088274985523,0.07349652000000001,0.32512302,9.78634809,0.004484,0.000201,0.003798,0.08793921745868942
1758011896.681082,-0.0023274287423827645,-0.006699875803218717,-0.00011108086501021575,0.0058265919792113655,0.016489088868935624,-2.2555274303147703,0.5525025867054516,-0.013570645521328027,0.06107706,0.32437746,9.772280550000001,0.002825,-0.001456,0.003068,0.08787899805389868
1758011896.7013195,-0.0023416940604552264,-0.006735342636163238,-0.00012049816544257297,0.0055666638210053335,0.015603976990628259,-2.255162959336384,0.5535213515212541,-0.013480970723953921,0.06436341000000001,0.31959018000000006,9.78036399,0.003079,-0.000159,0.005576,0.08737395009901766
1758011896.7248178,-0.0023634630544433887,-0.0068129558061263236,-0.00012787816853254697,0.006233624056139405,0.018045756170240162,-2.2546389782209943,0.5550398234650826,-0.013535180954709734,0.08277678,0.31419468,9.78110955,0.005983,-0.000279,0.003303,0.0877147997646443
1758011896.7450953,-0.0023846466050512416,-0.00688058879726744,-0.00012951644380665428,0.00529016515531887,0.015569405493877793,-2.254301460666822,0.5560346887562265,-0.013440731093842414,0.0868185,0.32227812,9.79203789,0.00197,-0.001086,0.005687,0.08676689909569103
1758011896.7660754,-0.0024128014527190337,-0.00695690429825474,-0.00011243291724349902,0.006142284704226777,0.017829689313087174,-2.2537918766863863,0.5575148120093217,-0.013351525096489429,0.07334937000000001,0.32167971,9.78455286,0.00233,0.000165,0.005661,0.0871463135232102
1758011896.786879,-0.002436623367580472,-0.0070217330617691875,-0.00011317734257554335,0.005460395996683824,0.015656436415920953,-2.253432232286536,0.5585460094472988,-0.013363272494718165,0.06646275,0.32856633,9.76988691,0.002228,-0.001908,0.004116,0.08631707437176099
1758011896.8072467,-0.002455598734840024,-0.007067151391345046,-0.00012866973337199994,0.005866418288967629,0.016506382339345812,-2.2530007978068394,0.5597584583705395,-0.013477149933072726,0.06256818,0.32796792,9.78141366,0.001187,-0.000449,0.002435,0.08634767747137306
1758011896.8276508,-0.002472049736552981,-0.007110045819135394,-0.0001397268764646853,0.005476207660856894,0.01534246697336453,-2.2526484282935724,0.5607425453681661,-0.013371525288124013,0.06601149,0.32033574000000004,9.76913154,0.002719,-0.001864,0.005937,0.08578104228614625
1758011896.8486917,-0.0024891771936242893,-0.007164799227045672,-0.00013917840608712595,0.006009307937119653,0.017130089594833964,-2.2521750591184775,0.5620908368785049,-0.013339249261674605,0.07589016,0.33021441000000007,9.775566900000001,0.004425,0.000447,0.004384,0.08604994057395524
1758011896.8687348,-0.002506437859967538,-0.0072171693774536125,-0.00013935249082530632,0.005455669692630576,0.015706974837957736,-2.2518088465023345,0.5631455298392153,-0.01333546528985437,0.07589016,0.33021441000000007,9.775566900000001,0.004425,0.000447,0.004384,0.08542221492955163
1758011896.8958626,-0.0025525889463070897,-0.007350922890173052,-0.00014808176546177165,0.0052651496432353714,0.015154462234912975,-2.250986056819998,0.5655198489597749,-0.0133308456632771,0.06900354,0.33919056000000003,9.74099646,0.004428,-0.000714,0.005101,0.08481490949215137
1758011896.9233522,-0.002576465988191184,-0.0074304247994721705,-0.00016074604619475963,0.005974247802867322,0.01752635569364666,-2.2505000370539046,0.5669499463576766,-0.013453414462536999,0.08232552,0.31913892,9.78545538,0.005148,-0.000794,0.002347,0.08521836778914203
1758011896.9434698,-0.0025993612174907916,-0.007496182445185771,-0.00015475753863158914,0.00522529732483276,0.015213301850699062,-2.2501726907086184,0.5679048698494068,-0.013503583479536011,0.07349652000000001,0.31988447999999997,9.78874173,0.002823,0.001021,0.003378,0.08434869453474575
1758011896.9640727,-0.0026183395801575846,-0.007546269110722387,-0.00016315518722942457,0.0058094728694029875,0.016712326345512285,-2.2497287058834057,0.5691829431342076,-0.013570969908722365,0.06825798,0.33724818,9.77826465,0.00174,-0.00059,0.003059,0.08463425492287627
1758011896.9844575,-0.0026336140583178586,-0.007600231189022967,-0.0001564222104919466,0.005328830250060971,0.015723480766898914,-2.2493707115352257,0.5702426860371701,-0.013595375087356039,0.08772102000000001,0.3239262,9.755966520000001,0.001058,0.000696,0.003688,0.0841111999106851
1758011897.0045118,-0.002653813234497641,-0.007654306624488476,-0.00015596614549462373,0.005752448249779667,0.016736779886947693,-2.248921393249194,0.5715521514718258,-0.013618633555598178,0.06856209,0.34683255,9.70207038,0.001058,0.000696,0.003688,0.08428335065585824
1758011897.025267,-0.002671447560920966,-0.007705521988931147,-0.00014886269567959687,0.005148983388697606,0.014944492504742444,-2.2485894556063832,0.5725177454067508,-0.01374789557089285,0.06840513000000001,0.35491599000000007,9.74607804,0.005807,0.001489,0.001911,0.08361642781631762
1758011897.0453253,-0.0027016423830472235,-0.007793805481943269,-0.0001324219895924017,0.006023264018261467,0.01749042573921822,-2.2481175291934914,0.5738891489862357,-0.01363999280045865,0.08592579,0.27108954,9.919273590000001,0.001261,-0.004231,0.005662,0.08388576157313167
1758011897.0703182,-0.002745353476116133,-0.007895094547451078,-0.00015498672436464744,0.00644978884356776,0.018040019167565514,-2.2475459194886187,0.5754835578075508,-0.013692914495261787,0.05732964000000001,0.33380487000000003,9.78919299,0.002908,-0.002972,0.003184,0.0839598425499474
1758011897.0916853,-0.002711610716062964,-0.0078050920196281615,-0.00018397134163050666,0.008253640930999128,0.023741964164177867,-2.2471971594879294,0.5764867589576053,-0.013557078560636994,0.07739109000000001,0.30117681,9.84936753,0.003235,0.000811,0.002361,0.08544925461180067
1758011897.1137934,-0.00279072646739184,-0.008032773002990998,-0.00015426662553874593,0.004914966768469534,0.014139288816886864,-2.246922971183295,0.5772765617060026,-0.013662334500431333,0.07739109000000001,0.30117681,9.84936753,0.003235,0.000811,0.002361,0.08245243398721033
1758011897.136425,-0.0028228729468334755,-0.008128291700921827,-0.0001620400573716374,0.005221862674196581,0.014987459414589644,-2.246161328160871,0.5794882548466458,-0.013717863401493132,0.06331374,0.33664977,9.721239120000002,0.005233,0.00117,0.004282,0.08238043410713634
1758011897.164703,-0.0028471748795767682,-0.00820119644778181,-0.0001853802692224349,0.005991215147085293,0.017296277445000785,-2.245677600605849,0.5808867288648121,-0.01386630780507613,0.07663572,0.31629402,9.79488279,0.004332,-0.00197,0.001545,0.08283384436276456
1758011897.184581,-0.0028702440835997774,-0.008268703247149291,-0.00017359148372486644,0.005238784784759143,0.01514746347054862,-2.2453545535407367,0.5818227033319435,-0.014019111459688312,0.08083440000000001,0.29443734,9.79758054,-0.001394,-0.000294,0.001272,0.08197990921858775
1758011897.205558,-0.003002780040542919,-0.008527411759391937,-0.0002319422131726867,0.009759068080908113,0.023940203995534672,-2.2446209772349466,0.5835885217453165,-0.013748303479588194,0.09100737,-0.3526695,9.882750960000001,-0.00898,-0.00426,0.008058,0.0819693314418538
1758011897.2262099,-0.003257258130148402,-0.008866940116426312,-0.0005689590447386372,0.01728415495498417,0.03202264839959585,-2.2434107284209714,0.5857334332989156,-0.014472506925818479,-0.15478218000000002,-1.28537487,9.597142620000001,-0.030497,-0.008877,-0.007982,0.08073628538848028
1758011897.2462804,-0.002820056252855598,-0.008033656433481928,-0.0006806259073597332,0.055300248881321276,0.08927111772096218,-2.24341215754749,0.5857357576906903,-0.015520711973655595,-0.24369021,-1.83279249,9.744135660000001,-0.017904,0.005168,-0.013823,0.08603078612019288
1758011897.266396,-0.0020151831627379774,-0.006705108060080908,-0.0006966593399719834,0.08044776740480836,0.13237533237257915,-2.2434111959890006,0.5857366877007871,-0.015178833514952538,-0.07679268,-2.4638796000000003,9.65477637,-0.003795,0.023055,0.007785,0.08950506018067406
1758011897.2867591,0.00016703048395216562,-0.003084181807011313,-0.0008386395509307754,0.12645410656529607,0.22321734705353607,-2.243412741827576,0.5857377710484049,-0.016097854152226913,0.1417545,-2.70532332,9.51721074,0.019244,0.039313,-0.012363,0.09702693377051949
1758011897.306911,0.0016500751237748293,-0.0004371652498853232,-0.0008116248684539862,0.1430361507927401,0.2600297155034253,-2.243413448186343,0.585738030239674,-0.01639981866366981,0.27841761000000004,-2.3534091900000003,9.393271200000001,0.04386,0.053174,-0.003437,0.10046648302776033
1758011897.327799,0.005564214716396153,0.00672413954347506,-0.001219920060040014,0.17297045920723125,0.31049882752267804,-2.2434175684692854,0.5857389789098466,-0.018919814030951443,0.44652177000000004,0.24309180000000002,9.86627997,0.041554,0.014235,-0.00039,0.10798191876189125
1758011897.3481925,0.007668603697208584,0.010528409587929895,-0.0012239449580393469,0.17241776075349144,0.3223187424670239,-2.2434179290121947,0.5857383514635734,-0.018867253943155308,0.44652177000000004,0.24309180000000002,9.86627997,0.041554,0.014235,-0.00039,0.11087015114554988
1758011897.3710968,0.014268762734317606,0.02327236445520188,-0.0010889031878762445,0.14296086724008575,0.30427700016857456,-2.243416775281574,0.5857380591131714,-0.018066517841901112,0.09550035000000001,2.7318201300000005,8.09845911,0.080737,0.099944,5e-05,0.11829722750622525
1758011897.391998,0.014149408777646916,0.023077360990962602,-0.0010970992730259255,0.1429162391916923,0.3042008535561688,-2.243416094900723,0.5857389600079974,-0.018038939837982135,0.09550035000000001,2.7318201300000005,8.09845911,0.080737,0.099944,5e-05,0.11820635672872232
1758011897.4151182,0.019073686657364447,0.034293277529376734,-0.0009749079443666098,0.09446406132138196,0.23837554335675798,-2.243410650310124,0.5857479551225224,-0.018098645709071867,-0.26420292,2.87507556,9.65925954,0.004131,0.03223,-0.014712,0.12468014708077571
1758011897.4400854,0.021210021229333634,0.03979504610391895,-0.0009236486648180886,0.07046657811091037,0.21532138465940642,-2.24340455243905,0.5857576990246391,-0.017605228390965556,0.3122523,2.33005158,9.31901931,-0.002965,0.037001,0.007575,0.1293708008856927
1758011897.4608512,0.022033524328658953,0.042506973726629385,-0.000984954296255225,0.06655291443322431,0.21152949596563683,-2.24339646806619,0.5857702424262725,-0.016527109585433044,0.04190832,1.3822290000000002,9.47904003,0.004907,0.007033,0.017861,0.13236514217651743
1758011897.4819255,0.02353687974039401,0.04751167534874872,-0.0008589788818453847,0.07587569155045547,0.2335177141968043,-2.243385480496738,0.5857893917021861,-0.015495889020013314,0.05223825,0.10223982000000001,10.04022108,0.004907,0.007033,0.017861,0.1385046889854139
1758011897.5023863,0.024445392977105383,0.05051085989679917,-0.000920995171229233,0.08881007607419295,0.26038780270764217,-2.243372370107131,0.5858130211918087,-0.014271792572556398,0.09265545000000001,-0.9906432300000001,9.536968080000001,-0.031299,0.038291,0.02233,0.14238934353305954
1758011897.5231593,0.026515699621236816,0.05675934282185315,-0.0007738199877072027,0.12756468618154435,0.3254312080093691,-2.243355051593206,0.585846657382833,-0.013100199513913634,-0.09684432000000001,-1.8811361700000002,9.93603888,-0.031299,0.038291,0.02233,0.150249762373241
1758011897.543176,0.0279780969237229,0.06057214192023511,-0.0008632051387582607,0.1432090964003465,0.3609314578081935,-2.2433349642069436,0.5858865847838559,-0.011888752857396967,0.2576106,-1.8532953900000002,9.31064157,0.030183,0.064923,0.024533,0.15445855765402583
1758011897.5639873,0.03184836194806547,0.07044398986385395,-0.0009738741584390809,0.19247339459723375,0.439217444923143,-2.243308462419923,0.5859445480567194,-0.012496856621871204,-0.17917965,-2.13800121,10.429864470000002,0.001362,0.065594,-0.003975,0.16471175468013877
1758011897.5843027,0.03330070596441273,0.038599861876813836,0.004975182855772253,0.20398272283813257,0.26045117486301417,-2.2439148576037353,0.6022070058371651,-0.01531406346497221,-0.16750575,-1.3180127400000001,9.47140785,0.043893,0.084436,-0.04114,0.1507917304577
1758011897.6047208,0.03787138224254985,0.04460293229567122,0.004850442349574546,0.2242270004604506,0.29901322365990757,-2.2438938036140246,0.6022324625853303,-0.017739275866846458,-0.018413370000000002,-0.7638654600000001,9.950410530000001,0.022207,0.060183,-0.037,0.1583547803827627
1758011897.6252754,0.04067196763077311,0.04847760870362419,0.004916250686708867,0.22231504235010052,0.3014017101600833,-2.24386654350152,0.6022652842067734,-0.016346089811621823,0.11750418000000001,0.8961827400000001,9.5469939,0.041872,0.039756,0.022894,0.1615069819912605
1758011897.6466546,0.046020473999924344,0.05596053879798499,0.005039807187019463,0.2052953169760059,0.28583412317211904,-2.2438310690010526,0.6023084144371461,-0.01675631267989621,0.18681183,1.80854217,9.955197810000001,-0.002905,0.031289,-0.005311,0.16645958898616947
1758011897.6665096,0.048347042368837405,0.05944919225167641,0.005184916903394399,0.1837717010187029,0.274679361470272,-2.243789875317387,0.6023585747148071,-0.01593601665616043,0.8182030500000002,2.3571468,10.09126251,-0.001918,-0.013049,0.014383,0.16859237640589306
1758011897.687379,0.052266776449967516,0.06563070530032536,0.005717759042605852,0.1648826473254482,0.2449227924307039,-2.2437377407455976,0.6024226445266933,-0.013146463517774362,-0.01092834,2.3659758,8.67760227,0.027978,0.021407,0.046838,0.17276207026217974
1758011897.7080653,0.05463549107014199,0.06958836132807625,0.005953219097533324,0.1564070023954493,0.21983964749535068,-2.2436788504137533,0.6024954821431479,-0.01375768592311287,-0.35521029,2.2829047200000003,9.808351920000002,0.003234,0.059008,-0.005397,0.17593386668400063
1758011897.7337859,0.057772786255262054,0.0749919395802093,0.006405954749726828,0.1365790105582476,0.21183187390212813,-2.243536274172348,0.6026721355315786,-0.013440822611505764,0.09086022,0.8900514900000001,9.92855385,-0.000304,0.020523,0.014605,0.1823136474087319
1758011897.755274,0.057772786255262054,0.0749919395802093,0.006405954749726828,0.1365790105582476,0.21183187390212813,-2.243536274172348,0.6026721355315786,-0.013440822611505764,0.09086022,0.8900514900000001,9.92855385,-0.000304,0.020523,0.014605,0.1823136474087319
1758011897.7763264,0.061272575022215,0.08178825765475893,0.005784695661726236,0.16501896997231133,0.25959946806360457,-2.2433539621349956,0.6029005295199897,-0.014518911655339188,-0.35087427000000004,-1.01833686,9.65552193,-0.046286,0.009138,-0.09271,0.1930209133746628
1758011897.7994537,0.0641480543660854,0.08706936564056725,0.00606729993065791,0.1903493255418538,0.3257619058634141,-2.243245095488693,0.6030383665304936,-0.014999305181938915,0.32782077000000004,-1.8724543200000003,9.75850731,-0.0216,-0.040622,-0.004262,0.20163226077922142
1758011897.8197,0.06569124884434796,0.09066766881624927,0.007585371247228689,0.20594250974954945,0.36574457962779217,-2.24312697121187,0.6031894134676451,-0.014999315692045677,0.28141947,-1.9743900300000001,10.51473078,-0.022955,-0.054256,0.081163,0.2064906178868659
1758011897.846757,0.07059326929503963,0.10055186273336957,0.008043352766812006,0.25077939914657865,0.4284905605178711,-2.242983413783099,0.6033772805783104,-0.014378862606438378,-0.35087427000000004,-1.53027171,9.48592665,0.019361,-0.017188,0.011645,0.2177187151274258
1758011897.867452,0.0722914689073358,0.04719056949238901,0.01188894823171971,0.25713651823540945,0.22676805309225898,-2.243309050751422,0.6209703052439476,-0.013707814194647918,0.27243351000000005,-0.97761555,10.52625753,-0.000361,0.016284,0.013445,0.19409071720700885
1758011897.8886385,0.07543556466757141,0.050963613648523615,0.012703842976408364,0.25341239553435785,0.24658504735954942,-2.243198465306259,0.6210520460937011,-0.012750259711163794,0.47990520000000003,0.10269108,9.94127742,0.014412,-0.019147,0.018491,0.19862172302843029
1758011897.9086688,0.07810195964772562,0.05488933690248941,0.013622349548671586,0.2550399156757128,0.24791087773939482,-2.24307659301524,0.6211373100179147,-0.015105722110334572,-0.2601612,0.7782273000000001,9.80041563,0.037523,-0.005621,-0.031292,0.2019706786166384
1758011897.929136,0.0834697671889234,0.06158926535458429,0.014484648356479557,0.21982739023273618,0.23834511019002358,-2.2429304833562913,0.6212431717772328,-0.01578235934718982,0.70144443,1.75899186,9.59429772,0.051512,0.05227,-0.007635,0.20694575582199481
1758011897.9499993,0.08379991442551785,0.06360518714421694,0.015084328658633517,0.20651775357910135,0.22649172037083593,-2.242777786826227,0.6213585953707906,-0.012851381083992081,0.17543223,2.14997922,9.6338124,0.039663,0.039798,0.047385,0.2072821837387963
1758011897.970319,0.08607392456130343,0.06799497516796923,0.016053677652451803,0.1904219250384256,0.20342131621423543,-2.2426082440731183,0.6214829140125558,-0.013135931001360715,0.3097017,1.9546326900000002,10.15877493,-0.002379,0.016637,0.005959,0.2102035844292761
1758011897.9905133,0.08627299041658988,0.07003270747310711,0.017017190956211792,0.17417611047432124,0.19242276791787954,-2.2424304138540294,0.6216139564668439,-0.013045062755637042,0.3097017,1.9546326900000002,10.15877493,-0.002379,0.016637,0.005959,0.21124453928594944
1758011898.0146406,0.08694987993822266,0.07501953604789376,0.01912476919423467,0.16287362044943768,0.19583687976288372,-2.2420354034040906,0.6219052063090664,-0.014776269899841736,-0.25177365,0.31928607000000003,10.27149183,-0.038705,0.007676,-0.029502,0.21681384165531775
1758011898.0353725,0.08694987993822266,0.07501953604789376,0.01912476919423467,0.16287362044943768,0.19583687976288372,-2.2420354034040906,0.6219052063090664,-0.014776269899841736,-0.12109464000000002,-0.25387299,9.737101890000002,-0.038705,0.007676,-0.029502,0.21681384165531775
1758011898.055943,0.08753608430273038,0.08066966897101524,0.021434615815747904,0.17504652723898842,0.24210323599833788,-2.2415862905442956,0.6222424452554379,-0.01683538881001219,0.41239278,-0.5081972400000001,9.930947490000001,0.003107,0.0041,0.052552,0.22492043329139985
1758011898.079133,0.08849036564474781,0.08496061608692983,0.02235357589778708,0.20078794590542784,0.29642823351174835,-2.241340290903654,0.6224329133204247,-0.01632040613151717,-0.05583852,-1.6769606400000001,10.47028167,0.001587,0.029293,0.008589,0.23180607508149023
1758011898.0998724,0.08849036564474781,0.08496061608692983,0.02235357589778708,0.20078794590542784,0.29642823351174835,-2.241340290903654,0.6224329133204247,-0.01632040613151717,-0.05583852,-1.6769606400000001,10.47028167,0.001587,0.029293,0.008589,0.23180607508149023
1758011898.1204638,0.08849036564474781,0.08496061608692983,0.02235357589778708,0.20078794590542784,0.29642823351174835,-2.241340290903654,0.6224329133204247,-0.01632040613151717,-0.05583852,-1.6769606400000001,10.47028167,0.001587,0.029293,0.008589,0.23180607508149023
1758011898.1412117,0.08849036564474781,0.08496061608692983,0.02235357589778708,0.20078794590542784,0.29642823351174835,-2.241340290903654,0.6224329133204247,-0.01632040613151717,-0.05583852,-1.6769606400000001,10.47028167,0.001587,0.029293,0.008589,0.23180607508149023
1758011898.1647127,0.1008342099378094,0.03596328051341028,0.02096151409616942,0.2882539055901415,0.25029657385658677,-2.2405734207225696,0.6405613770679545,-0.01986244443087064,0.20372427,-1.14871176,9.52783497,0.01709,-0.00763,-0.009168,0.23126225311027326
1758011898.1878004,0.09813319399589046,0.040651698917111345,0.02469238783365535,0.2877358818414809,0.26671759885827473,-2.2401076303292387,0.6408035541762764,-0.02200001907870124,-0.62689824,0.42332112000000005,9.25360623,0.022496,-0.019303,-0.034505,0.23016393013516143
1758011898.207894,0.09573637429648689,0.04537523647021312,0.029587852673783832,0.2619712363728197,0.2576642770593277,-2.2396399490818792,0.6410496490227587,-0.02200009751425851,-0.34293798000000003,1.8179695800000002,10.209365100000001,0.002938,-0.027929,0.10083,0.22725931744617492
1758011898.2283561,0.0941830848928271,0.04723324974693844,0.031011959696694014,0.25143335185011145,0.24926261609733286,-2.2394079765358463,0.64117082182765,-0.022189813230645547,-0.0754389,1.87140465,9.17217342,-0.006463,-0.057191,-0.007131,0.2254651248775033
1758011898.2510684,0.09754687303186552,0.05426411307754478,0.032137374494561666,0.23001419327465303,0.22119976860235174,-2.239146177257514,0.6413050314452843,-0.024362750199575303,-0.05463189,1.96630659,9.545345820000001,-0.017069,-0.027295,-0.035964,0.22880106227372807
1758011898.2719872,0.09585243914994708,0.05590801041615051,0.0331809471770006,0.21212939192709987,0.21778136318717944,-2.238884471418486,0.6414460720757266,-0.022437455068001384,0.6999435,1.6229271600000001,9.26363205,-0.010914,-0.007766,0.022164,0.22752803473646913
1758011898.2920098,0.09520326952847659,0.05878077259456193,0.0344442664582556,0.2086472930352771,0.21899701490735837,-2.2386146279125136,0.641588072973953,-0.02265174763954103,-0.14610033,0.79050942,9.617645520000002,-0.036014,0.003341,-0.008041,0.22868259762469567
1758011898.3126156,0.09520326952847659,0.05878077259456193,0.0344442664582556,0.2086472930352771,0.21899701490735837,-2.2386146279125136,0.641588072973953,-0.02265174763954103,-0.14610033,0.79050942,9.617645520000002,-0.036014,0.003341,-0.008041,0.22868259762469567
1758011898.3339348,0.09520326952847659,0.05878077259456193,0.0344442664582556,0.2086472930352771,0.21899701490735837,-2.2386146279125136,0.641588072973953,-0.02265174763954103,-0.14610033,0.79050942,9.617645520000002,-0.036014,0.003341,-0.008041,0.22868259762469567
1758011898.3556333,0.100063483871818,0.07236080491920024,0.036493063709116313,0.22019025750099988,0.26031691171941074,-2.237925903757404,0.6419631699600029,-0.021600559215863836,0.20477394000000002,-0.71910243,9.79053696,-0.045569,-0.07035,0.017216,0.2436236388827943
1758011898.377682,0.09530019635507077,0.07539301912858075,0.038909670676726904,0.23089198797452884,0.30682983662192376,-2.2372542724368625,0.6423308974919892,-0.024021536136009936,0.33829785,-1.7558526600000002,10.95452289,-0.027338,-0.020425,-0.011412,0.2431029643559872
1758011898.3983011,0.09135126407952822,0.07892581442989967,0.04029642802397326,0.23191697104365896,0.3428615691373237,-2.2365952442055463,0.6427058964144755,-0.022480771852042943,0.21046374,-0.7912549799999999,9.78589683,0.001102,0.045334,-0.008595,0.24216308349507076
1758011898.418556,0.09136008695857543,0.08363008222341059,0.04096886672605926,0.2291044121114788,0.354919579028695,-2.2362533971947856,0.6429057237140994,-0.022683190960854784,0.14115609,0.23246757,9.62962353,0.049842,0.069465,-0.008148,0.24399191295855627
1758011898.4389017,0.09136008695857543,0.08363008222341059,0.04096886672605926,0.2291044121114788,0.354919579028695,-2.2362533971947856,0.6429057237140994,-0.022683190960854784,0.14115609,0.23246757,9.62962353,0.049842,0.069465,-0.008148,0.24399191295855627
1758011898.4598958,0.09185578881338491,0.0944758139561813,0.04202048016188353,0.22154462173877315,0.3745578486115412,-2.235496515858753,0.6433746033017093,-0.020385640885266332,-0.07693983,1.2843252,9.8854389,0.023616,-0.012958,0.019709,0.24828967227727555
1758011898.4809449,0.09086835978892169,0.09789420290656824,0.04239230228512669,0.20570487209116745,0.3601687755119039,-2.2351140540588608,0.6436193803950003,-0.019774225464399955,0.173637,1.90194318,10.1424609,0.003183,0.064144,0.007404,0.2473653855160353
1758011898.5011053,0.09017794593314869,0.10176864570412174,0.042682154890549384,0.1807785887233325,0.35025316508732424,-2.2347216782688073,0.6438787164573957,-0.017973212904606385,0.7231441500000001,1.78144695,10.32987114,0.010429,-0.083285,0.027844,0.24727092054888336
1758011898.5253139,0.09116051485729593,0.10963777154070527,0.04291466101162067,0.1629466543313775,0.329274672039395,-2.2342957237723065,0.644172170007247,-0.017944875904016243,0.03398184,1.6374459600000002,9.92810259,0.0096,0.006514,0.000143,0.25099064184993536
1758011898.5456905,0.08861716535239193,0.1104116019098164,0.04328774520810885,0.15686364271827855,0.3241461145275824,-2.2338773432259926,0.6444652920516893,-0.019834209060906556,-0.08277678,1.0548594900000001,9.882750960000001,0.013404,-0.025854,-0.031471,0.24930821881987597
1758011898.5724967,0.08960049320666946,0.11847015356248884,0.04392774559889201,0.14876116416034582,0.33740493899116175,-2.2334198042963513,0.6448059635048665,-0.01745748922569085,0.23950134000000003,0.55489284,10.042016310000001,-0.009164,0.009,0.035292,0.25591854427816435
1758011898.5945528,0.08437737315478609,0.11903100954736463,0.043678393310245145,0.14865607383435683,0.35341094042352067,-2.232537390021398,0.6454831925489551,-0.01663888435123134,0.19594493999999998,-0.5471135100000001,10.46832948,-0.039025,-0.027669,-0.001029,0.25320415666360085
1758011898.614774,0.08319250039698181,0.12224406855951934,0.04351852900216313,0.15885883090008304,0.37955443025217905,-2.232094087022515,0.645839850941214,-0.01568008187045463,-0.01092834,-0.79874001,9.434129850000001,-0.007884,-0.022401,0.016955,0.2555212863194869
1758011898.6354878,0.08319250039698181,0.12224406855951934,0.04351852900216313,0.15885883090008304,0.37955443025217905,-2.232094087022515,0.645839850941214,-0.01568008187045463,-0.01092834,-0.79874001,9.434129850000001,-0.007884,-0.022401,0.016955,0.2555212863194869
1758011898.6582134,0.08193537005027857,0.130686113772012,0.04307242925259702,0.18865079930327383,0.44032051661204613,-2.231152071859568,0.6466469548802846,-0.013952212044639633,-0.25042968,-0.8818209,9.21648519,0.044558,0.057127,0.013757,0.2615688908115052
1758011898.678703,0.08143455220771273,0.13450656655375995,0.04269180783455795,0.18438069313219616,0.4527360015949051,-2.230678903878029,0.6470704637034405,-0.013729145081035676,0.36733545,0.06811083000000001,9.80969589,0.037565,0.107671,0.007386,0.262691873851622
1758011898.6995966,0.08064595109191106,0.13774349054714521,0.04227194745087326,0.17974521856089484,0.45286248316453837,-2.2302018858368373,0.6475105984357873,-0.01474848372415126,0.10373094000000001,0.6117810300000001,10.39947309,0.037973,0.074641,-0.012972,0.26286332703928095
1758011898.7246234,0.08187554696029074,0.14619159286374075,0.041291443755995694,0.16369358800292497,0.44515497069409954,-2.229693054117564,0.6480025985881883,-0.017314366322891742,0.25925868,1.14092262,10.39468581,0.015124,0.011081,-0.038312,0.26661696405627483
1758011898.7453048,0.07969781824972048,0.14585597737080636,0.040789505160382156,0.15119913695240386,0.4307024381076857,-2.2291993064960027,0.648491263630148,-0.017673688207184613,0.25162650000000003,1.8272498400000001,10.190510280000002,0.016068,-0.059534,-0.005587,0.2638066633226158
1758011898.766138,0.0799697906934098,0.15259895907784535,0.03977258690211993,0.1240049236325652,0.3823246890489165,-2.2286823123124786,0.6490266124028546,-0.02017915915336866,-0.02110131,2.54336022,9.588156660000001,0.009678,-0.004888,-0.040261,0.265742158807403
1758011898.7866917,0.07746972799735923,0.15112115827720596,0.039059831511557785,0.10567931840501478,0.36119318553913626,-2.228184439852162,0.6495538087548925,-0.019476081839251855,0.47346984000000003,2.56057677,10.04306598,0.005785,-0.02754,0.009089,0.2627747231139351
1758011898.8068051,0.07597979854975076,0.1531228483659348,0.038487896549018075,0.0894421289814797,0.3297074211998871,-2.227685516711054,0.6501018180664206,-0.01792955067353159,-0.07753824,2.13500916,10.038425850000001,0.005199,0.002438,0.02353,0.26337223959828837
1758011898.8276167,0.0738103154833751,0.1527312483705948,0.03780294994996947,0.08005006507653468,0.31359429084225365,-2.2271973947942167,0.6506535461696693,-0.017280261526243325,-0.01317483,1.49150259,10.030342410000001,0.010519,-0.012728,0.010458,0.26278900038830344
1758011898.8502479,0.0730352059245331,0.15848645474694742,0.039680745917868965,0.06976531298672947,0.32384058423336487,-2.2267050678959373,0.6512338028964805,-0.017280254813898197,-0.18471249,0.82927854,8.92264626,0.035155,0.029282,0.058176,0.2699705922357378
1758011898.8704674,0.06955924467800176,0.1523031403688114,0.03899688093576481,0.06526673532446288,0.31505059243184863,-2.2262356005717363,0.6517996544356308,-0.01728024889582309,-0.18471249,0.82927854,8.92264626,0.035155,0.029282,0.058176,0.2636148696301369
1758011898.8947022,0.06559269021259989,0.15229022349374666,0.03761182085683368,0.07158547962208184,0.31865126606351185,-2.2253094990751263,0.6529825454614179,-0.018801625303176146,0.33081282000000006,0.36299943,10.147846590000002,0.001672,0.002115,-0.011257,0.26540568897995054
1758011898.9147944,0.06732864027805084,0.16001752642025172,0.041069800046900085,0.07162385523645542,0.3329980842434311,-2.2253094990751263,0.6529825454614179,-0.018801625303176146,0.22872015,0.44786574,9.37919385,-0.086864,-0.011762,0.141456,0.2742606997322028
1758011898.9353569,0.06200397331737689,0.15183924756106967,0.05460039866624111,0.029572846239614987,0.32699333568730876,-2.224425072994216,0.6541864684978157,-0.018801622568916945,2.2598512200000003,1.2666672,10.77983622,-0.022188,-0.075539,0.957327,0.2666458981929788
1758011898.9563882,0.06200397331737689,0.15183924756106967,0.05460039866624111,0.029572846239614987,0.32699333568730876,-2.224425072994216,0.6541864684978157,-0.018801622568916945,2.2598512200000003,1.2666672,10.77983622,-0.022188,-0.075539,0.957327,0.2666458981929788
1758011898.9763913,0.056432852785354946,0.15154368493668074,0.11325713573011953,-0.05881677337333503,0.35582554092996305,-2.2235864321434136,0.6554379733525796,-0.018801635864610748,-1.2524427,1.15021269,8.04921291,-0.012974,0.217717,1.359233,0.26847202408208237
1758011898.9972675,0.05263525739181827,0.151702341599692,0.13887687816081984,-0.06738124915705751,0.3303341579696133,-2.223203295581313,0.6560578333978536,-0.018801653090239064,-0.13067901,1.82605302,7.747888950000001,0.042877,0.178645,1.338385,0.26850238500918966
1758011899.0183392,0.04873518362499709,0.15184316157464575,0.16812134746868557,-0.07047549077317128,0.33498944650370044,-2.2228404265640114,0.6566880174796502,-0.01880167913695959,0.20133063,0.35147268,10.463689350000001,-0.001172,-0.013914,1.394353,0.26967007771387247
1758011899.0441153,0.044330365570314854,0.1545575486946574,0.20530769670534932,-0.04901890653789261,0.32123613759037023,-2.2224936961545088,0.6573540539618921,-0.01880171827329289,-0.85188078,0.79903431,9.05062752,0.011402,0.094212,1.259714,0.2730584031814227
1758011899.0644934,0.041692738034938746,0.1510017379683531,0.21841999374750243,-0.055166317743115575,0.31353222897273575,-2.222171856315143,0.6579940565939577,-0.01880175830885642,0.31404753,0.8942403600000001,9.7926363,0.011402,0.094212,1.259714,0.2702268922235243
1758011899.0871048,0.0384738892269595,0.15100413269163915,0.24744626801280267,-0.06252403792711925,0.310533972934336,-2.221867458471528,0.6586449989667938,-0.018801804418776775,0.24638796000000002,0.7455992400000001,10.26445806,0.002808,0.068424,1.292629,0.2716364813253449
1758011899.1074996,0.03568337836197657,0.14889340632792394,0.26790968375732627,-0.07901933761974382,0.29417191139110604,-2.221583821167658,0.6592849883247328,-0.01880185346721788,0.69889383,1.6181398800000002,10.13258223,-0.021531,0.186434,1.319311,0.2705543747693842
1758011899.1329913,0.029259741234997815,0.14630628170663432,0.32425882407848716,-0.09922048479346177,0.3023111722450704,-2.2210751799218484,0.6605826753503574,-0.018801971636909935,0.17693316,0.44113608000000004,9.46945566,-0.053818,-0.014451,1.478344,0.27138364925474945
1758011899.1537225,0.029259741234997815,0.14630628170663432,0.32425882407848716,-0.09922048479346177,0.3023111722450704,-2.2210751799218484,0.6605826753503574,-0.018801971636909935,0.17693316,0.44113608000000004,9.46945566,-0.053818,-0.014451,1.478344,0.27138364925474945
1758011899.1743255,0.022737691885749943,0.1442843198897546,0.382966312895038,-0.09379752127562743,0.2897876561278141,-2.2206478729157317,0.6618919457668457,-0.01880211727861583,-0.37197558000000003,-0.04775508,9.34386804,-0.015143,0.087439,1.430202,0.2721706809618464
1758011899.1955807,0.019735413025064666,0.14341677276531908,0.4132521599565968,-0.08804743285019258,0.2854091215719416,-2.2204621210304616,0.6625330116307693,-0.018802194320140887,-0.33619851000000006,0.67764537,8.992248210000001,0.043925,0.111435,1.431752,0.2728639693011907
1758011899.2159019,0.01726386394140483,0.14163338453960664,0.4406729481511329,-0.09232048980623525,0.28875155608372804,-2.220292862141199,0.6631666047312061,-0.01880227303000719,0.20597076000000003,0.28530423000000005,10.18841094,-0.027211,0.052166,1.521797,0.27268480934382977
1758011899.2377849,0.014341163171670255,0.14141962555802928,0.4753795048187843,-0.09473067950493382,0.29654918895971966,-2.2201397072107025,0.6638089481349431,-0.01880235627876018,0.07858791000000001,0.24084531,9.93558762,0.027341,-0.047395,1.470033,0.27439508422299863
1758011899.2584634,0.01217245091970926,0.13935301446481493,0.4986820800360614,-0.08423602002439173,0.3083551836342268,-2.220001582718053,0.6644387321667605,-0.01880244009727171,-0.6655202100000001,-0.35521029,9.158557140000001,-0.017198,0.056703,1.430967,0.273515038342324
1758011899.2804365,0.009482169133324506,0.1402958006383497,0.5371862627049051,-0.09811701175722652,0.3256590854089053,-2.2198768478524595,0.6650857963685488,-0.01880252733269206,0.48843009000000004,-0.05149269000000001,10.102043700000001,0.020737,0.013746,1.475808,0.27628225522788724
1758011899.3005834,0.007762350319428688,0.13779981825932955,0.5578794698965601,-0.09493145803697756,0.32802647515437366,-2.2197650163741827,0.6657127222784138,-0.01880261341066623,-0.32302368,0.10912644,10.91485125,0.023609,0.112064,1.535971,0.27431720426964895
1758011899.3217475,0.004818568188241789,0.13991977496568983,0.6027050054866505,-0.11760900922929424,0.343089506994104,-2.2196664862910764,0.6663656303261871,-0.018802704753739397,0.71341263,0.06556023,10.00369845,0.008747,0.136583,1.579309,0.2779140302005161
1758011899.3424451,0.0031420951796709714,0.13739316992424022,0.6223837781236417,-0.11163543932167143,0.3450093095945522,-2.2195799667695706,0.666996524794101,-0.01880279546521687,-0.5815368000000001,0.1357704,9.70252164,0.041599,0.171937,1.527268,0.2756206796353018
1758011899.362712,0.00015867474803663522,0.13939038572921336,0.6637624458689375,-0.1269496022697718,0.3476225456221413,-2.2195069375947893,0.6676496449952726,-0.01880289207916332,0.48364281,0.44712018000000003,11.2184217,0.016385,0.079184,1.550347,0.27830042551354967
1758011899.383129,-0.0011334014585550579,0.13620468308936157,0.6796124777082442,-0.12410027350760477,0.3447892967570704,-2.2194437128007376,0.6682737505524629,-0.018802986282809287,-0.37496763,0.40969503,10.82234295,0.033435,-0.012286,1.487642,0.27521971014585445
1758011899.4041157,-0.0039184355086332385,0.13745965068818183,0.7168616936329721,-0.14249075758675717,0.3427490437589975,-2.219393038625128,0.6689123101025272,-0.018803085400257064,0.67599729,0.5373819900000001,9.88155414,-0.050891,0.018582,1.543977,0.27707435062883123
1758011899.4241683,-0.006164151426970871,0.1366358605776098,0.7440741734514456,-0.13776856117151814,0.33909360441918673,-2.2193538106458095,0.6695453332065249,-0.018803187535114656,-0.33246090000000006,0.6974027100000001,9.230101470000001,-0.003381,-0.020433,1.508761,0.2764465756742623
1758011899.445593,-0.009289437923341796,0.13831432297305737,0.7840942948219025,-0.13443988324093292,0.34426801585848416,-2.219327752458927,0.6701979365716262,-0.018803295975403804,-0.26210358,0.4316988600000001,9.57454038,0.021947,-0.031032,1.522192,0.2787130378128013
1758011899.4656165,-0.010507017229412136,0.13584965755189962,0.8041091869144767,-0.13744725424091261,0.3353558537501206,-2.219308497024591,0.6708282537156115,-0.018803401201748223,0.23127075,0.8616123000000001,9.30899349,0.021947,-0.031032,1.522192,0.2763832370867937
1758011899.487204,-0.01323634859323134,0.13705491679193588,0.8451774326294554,-0.16305897335964023,0.3259561164290254,-2.219299875541092,0.6714733739649759,-0.01880350972084222,0.98270694,0.65967345,9.825715620000002,-0.005475,0.029373,1.644718,0.27841935229418635
1758011899.5079854,-0.014770391014857314,0.13471583028988124,0.867122660336058,-0.16319760648483353,0.32283123840254213,-2.219298732193725,0.6720987654081136,-0.01880361830597884,-0.09400923,0.5266008,10.04500836,0.020241,0.015934,1.551641,0.27650523998035637
1758011899.528792,-0.01879813857288964,0.13737266475210608,0.9137073349558991,-0.15298412312337265,0.3362015869013092,-2.219312658498321,0.6727557012995072,-0.018803738264016986,-0.56177946,0.3501189,10.29454533,-0.012014,-0.048006,1.508214,0.28025616485016025
1758011899.5489411,-0.019446316852405377,0.13406701101321625,0.9301338361605174,-0.15727207481330363,0.33021755256803115,-2.219329598383739,0.6733818536313239,-0.01880385267451821,0.33514884,0.49172625000000003,10.44603135,0.012933,0.003733,1.506578,0.2771574416803955
1758011899.5742521,-0.023502644101542576,0.13289295402336676,0.9930738669557151,-0.18706148118794794,0.3257177279517591,-2.2193880199650553,0.6746552220047152,-0.018804089331012342,-0.1329255,0.15538058999999999,9.835594290000001,-0.010647,0.007352,1.557544,0.2774438314945823
1758011899.5943792,-0.023502644101542576,0.13289295402336676,0.9930738669557151,-0.18706148118794794,0.3257177279517591,-2.2193880199650553,0.6746552220047152,-0.018804089331012342,-0.1329255,0.15538058999999999,9.835594290000001,-0.010647,0.007352,1.557544,0.2774438314945823
1758011899.6146739,-0.02813343327813155,0.13205514035070207,1.055261563719398,-0.1913860214526798,0.3288578333823209,-2.219477384783766,0.6759227360389329,-0.018804343727353373,0.29219085,0.77089923,10.487645370000001,0.045034,-0.049253,1.573258,0.27770635446459074
1758011899.6355162,-0.02813343327813155,0.13205514035070207,1.055261563719398,-0.1913860214526798,0.3288578333823209,-2.219477384783766,0.6759227360389329,-0.018804343727353373,0.29219085,0.77089923,10.487645370000001,0.045034,-0.049253,1.573258,0.27770635446459074
1758011899.658632,-0.03311327670632714,0.13242656339946626,1.1253534710701247,-0.20108964642199204,0.33766292356346095,-2.219594527521355,0.6772082940798329,-0.018804614342796462,0.53094663,0.64950048,9.42559515,0.039688,0.062028,1.58092,0.27925246145450455
1758011899.6792903,-0.034811386577122114,0.1314514398536946,1.1526852887742915,-0.2041769497377952,0.34962268419573583,-2.2196560441172433,0.6778264145794951,-0.018804747039020846,-0.45400680000000004,-0.2140542,9.99516375,-0.044575,0.055987,1.556429,0.2787677049025151
1758011899.7002242,-0.03647664505576951,0.13074159587482004,1.178590346923527,-0.20163189803069806,0.345047368497353,-2.219720074348751,0.6784378519917798,-0.018804879397680184,-0.18067077,0.75547791,11.78558685,-0.009367,-0.039455,1.479306,0.2779072391484008
1758011899.7226603,-0.04041396944836458,0.13399855668803723,1.2261611647276833,-0.2255939321671608,0.3350729649116571,-2.219791470868102,0.6790816719023333,-0.018805018027701424,0.68348232,0.42601887000000005,10.237961250000001,-0.014583,-0.028126,1.57001,0.2816212230707606
1758011899.7434587,-0.040353753499768545,0.1302474040699352,1.2408576185157116,-0.22661163525345132,0.3308565653376568,-2.2198606364644213,0.6796900142939144,-0.018805151303376712,-0.03577707,0.29338767,9.31947057,-0.041199,0.046695,1.620276,0.27792277711984414
1758011899.764792,-0.045130225344305115,0.133579962772268,1.289339162062224,-0.23253424035727002,0.3435003205842867,-2.2199393602744664,0.6803344069732171,-0.01880529990088573,-0.27333603,0.23785326,7.88770107,0.032535,0.081821,1.52368,0.2822103316464789
1758011899.787004,-0.044909986501080086,0.1299301346819669,1.3034232258990075,-0.2318321222833167,0.34051389367951324,-2.220014717331249,0.6809436925406785,-0.018805441766198062,-0.28201788,0.31075136999999997,9.51915312,-0.038533,0.08525,1.537575,0.2785061649102129
1758011899.8063128,-0.04711025183530022,0.1299789340312757,1.3346255550816588,-0.21914498941746666,0.34352682794392786,-2.2200916980701835,0.6815544057563215,-0.018805586249149582,-0.7839171,0.86340753,9.18969408,0.063763,-0.004728,1.549604,0.27848888974862274
1758011899.8266702,-0.048875090193146106,0.1299475987422476,1.3671084043595823,-0.225690078350462,0.34702022462711024,-2.2201678381517502,0.682164913326985,-0.018805727697389658,-0.13756563000000002,0.15088761,9.530385570000002,0.006435,0.104214,1.64824,0.2787192623659456
1758011899.8469396,-0.05306979098087324,0.13358567502518767,1.4157412100081093,-0.23103104103585323,0.35222861795214594,-2.2202462351846255,0.6828107518992753,-0.01880587285090709,-0.18636057,0.4192794,8.983870470000001,0.038987,0.054973,1.556154,0.2826547981900907
1758011899.8678951,-0.05280061310431842,0.13053521621631,1.4322330704755686,-0.22841400352653,0.35483370537625114,-2.2203197550855367,0.6834264248852727,-0.018806009500338762,-0.80053524,0.20627487000000003,9.01260396,0.041937,0.111139,1.521519,0.2795632958489221
1758011899.89219,-0.05574577667783371,0.13011620421747475,1.4916403905748208,-0.2390409059830353,0.3464863837539836,-2.22045741739777,0.6846611447046949,-0.01880626999536289,-0.07634142000000001,0.31973733,9.52798212,-0.004953,0.098831,1.578241,0.2790294574401681
1758011899.91307,-0.05574577667783371,0.13011620421747475,1.4916403905748208,-0.2390409059830353,0.3464863837539836,-2.22045741739777,0.6846611447046949,-0.01880626999536289,-0.07634142000000001,0.31973733,9.52798212,-0.004953,0.098831,1.578241,0.2790294574401681
1758011899.9342759,-0.059650667365153516,0.1310460807146533,1.543759923058845,-0.23911841124665362,0.3686810579401561,-2.2205809611863887,0.6859236976744422,-0.01880652271568013,-0.8282288700000001,0.44173449000000004,10.015676460000002,0.01555,0.11287,1.052155,0.28040077739759345
1758011899.9552422,-0.059650667365153516,0.1310460807146533,1.543759923058845,-0.23911841124665362,0.3686810579401561,-2.2205809611863887,0.6859236976744422,-0.01880652271568013,-0.8282288700000001,0.44173449000000004,10.015676460000002,0.01555,0.11287,1.052155,0.28040077739759345
1758011899.9765897,-0.0651124035662554,0.13740931237639145,1.5783540998215724,-0.25325271448670716,0.3757911650974813,-2.220632493829573,0.6865971475585027,-0.018806639642432343,-0.14923953,0.28381311,10.528504020000002,0.038194,-0.050682,0.911476,0.2866532287967885
1758011899.997039,-0.0644591116813828,0.1322525293894179,1.595123145728948,-0.2571138468667542,0.3758434110255557,-2.2207171273453206,0.6878577911282845,-0.018806849885012,-0.8795744100000001,0.06047865000000001,9.680821920000001,-0.040285,-0.016183,0.549599,0.2812224519742969
1758011900.0176368,-0.06525048595078434,0.1315107302024353,1.5881562700448875,-0.22996765127190014,0.412793865204595,-2.220749762214843,0.6884665743227918,-0.018806945867947976,-3.18791646,0.82448145,9.34805691,0.069912,-0.065067,-0.448168,0.2806401259080974
1758011900.037709,-0.06525048595078434,0.1315107302024353,1.5881562700448875,-0.22996765127190014,0.412793865204595,-2.220749762214843,0.6884665743227918,-0.018806945867947976,-3.18791646,0.82448145,9.34805691,0.069912,-0.065067,-0.448168,0.2806401259080974
1758011900.057892,-0.06822936960066463,0.1341347183273414,1.5799512021980506,-0.2571198079043573,0.33418252986484326,-2.2207741365971154,0.68973918225843,-0.018807071148486072,-0.77658903,0.13232709,10.68238368,0.008427,0.004275,-0.184684,0.280342230490181
1758011900.0787632,-0.07021960182639539,0.1344355664818837,1.572655179014685,-0.26587419497884157,0.38758310310248467,-2.2207755839056302,0.6903619392802876,-0.01880713523310197,-2.1963805200000004,-0.9949792500000001,10.509197940000002,-0.032643,0.08372,-0.343619,0.28262855351032645
1758011900.0996022,-0.07030138014603675,0.13302603191163,1.5721648336031002,-0.29874812011980745,0.3875679058293395,-2.220767793255061,0.690968329263297,-0.01782157531284424,0.7839171,-1.7042030099999999,9.62632737,-0.012574,0.019126,0.003059,0.2814958321742689
1758011900.1244884,-0.07602259209652479,0.1383080494282523,1.5773170491995696,-0.3925675953746971,0.42980028268005505,-2.220748010345832,0.6916175379901417,-0.017821629581802906,0.11360961,-2.4815376000000002,10.421025660000002,-0.003716,0.020367,0.150582,0.289596297553378
1758011900.1451597,0.02216471961219156,0.13391430610058574,1.5936255474194887,-0.1671979848037734,0.4364596718300281,-2.2309985741748704,0.7070353093883405,-0.01787030622356373,-0.0606258,-2.44755576,9.85759812,0.025906,0.011427,0.080139,0.23133619529039107
1758011900.165993,0.053846130657030006,0.1396038027889114,1.5971672578135285,-0.16300060110543446,0.4834004684261501,-2.234360412899634,0.7132635178268685,-0.017890091713947807,-0.08502327,-2.8885446900000002,10.918441710000002,-0.000652,-0.098451,-0.051802,0.22582720164373155
1758011900.1864123,0.0684598403257022,0.1390844063478302,1.600477975945549,-0.13817482652287008,0.47996012916086594,-2.235824535894588,0.7167453674623889,-0.018856357378492193,0.7011403199999999,-1.03719168,9.867633750000001,0.0068,-0.029342,-0.004987,0.21920582932172808
1758011900.2088432,0.07415806160029519,0.1458762503235527,1.6043438879737,-0.12442209058437674,0.4784401057701934,-2.2365618549530772,0.7195058786839159,-0.021864620300018362,0.1332198,0.12663729,9.3790467,0.025485,0.019822,-0.018712,0.21929778280739454
1758011900.2315326,0.06661646334203214,0.14292234782622704,1.6067235423966801,-0.1106192018092996,0.44481324089332297,-2.2363232608852184,0.7206225376456324,-0.021868821669316058,0.05747679,2.00507571,9.779010210000001,-0.000913,0.013885,-0.058379,0.2170498638765066
1758011900.2533462,0.06257385624316396,0.14444798186513705,1.6075432988327751,-0.07779051347920235,0.4169839476954794,-2.2362131127978864,0.7211714507001338,-0.019898614374811142,0.00643536,2.77986951,9.77646942,0.006481,-0.005099,0.008684,0.21665445130693672
1758011900.274769,0.06257385624316396,0.14444798186513705,1.6075432988327751,-0.07779051347920235,0.4169839476954794,-2.2362131127978864,0.7211714507001338,-0.019898614374811142,0.00643536,2.77986951,9.77646942,0.006481,-0.005099,0.008684,0.21665445130693672
1758011900.3014,0.056190257678486115,0.14810429222345273,1.6109862503189047,-0.013753276158294685,0.3928847645547042,-2.2359732816491467,0.7222395759471689,-0.01838868413358716,-0.34683255,1.81138707,9.77721498,-0.000931,0.007336,0.020539,0.21951733152692618
1758011900.321625,0.054186867672536256,0.14749738473486068,1.614539781882149,-0.019313589760368705,0.3783410659516811,-2.2358490219546647,0.7227403799072282,-0.01839019496951125,0.29324052,0.8135629200000001,10.128383549999999,-0.012636,-0.003694,0.06974,0.22063866354066453
1758011900.3426437,0.052147156244903486,0.14488976435399523,1.617484476154841,-0.035266056284905464,0.3783384075221191,-2.23572460064479,0.7232053907601799,-0.019556205072604388,-0.19549368000000003,-0.38020617,9.763294590000001,-0.028411,0.017222,-0.010864,0.22118117601338824
1758011900.363223,0.0500360257718605,0.14749126275103686,1.6171066707022455,-0.10994051279942843,0.38168466160338665,-2.235599121366352,0.7237131669792526,-0.014523544302329753,0.82927854,-1.7266581,10.48210272,-0.064225,-0.154163,0.044956,0.22769551853286035
1758011900.383243,0.047035603765969304,0.14484159995151386,1.6193523108510517,-0.14119226219794928,0.3911434204009728,-2.2354670823064273,0.7241556139421004,-0.01466805562186231,-0.30192237,-1.78039728,9.908649360000002,-0.035458,-0.079982,0.001692,0.22910788738935361
1758011900.405018,0.040996991867885316,0.14823642801544884,1.623441822679938,-0.21990489861419601,0.43215576505831316,-2.235311016340549,0.7245650566844275,-0.018995449760207395,-0.42451794000000004,-2.1622515300000003,9.27920052,0.003101,-0.063209,-0.042478,0.23869418195134273
1758011900.4255514,0.0587820447604266,0.14964378898520592,1.6164341329729695,-0.15630863103437787,0.45330483908217456,-2.234250336536497,0.7304115201784959,-0.020940968734465146,-0.15297714,-1.85764122,9.30839508,-0.01165,0.076873,-0.023126,0.22359031300352172
1758011900.4464054,0.05333622846393086,0.15215462096598914,1.6192277005128073,-0.20322031036578878,0.44440422570550164,-2.2341219881967502,0.7308734768841407,-0.02156423194895608,-0.08667135000000001,-0.31030011,10.08961443,0.007718,-0.075767,0.005675,0.2282095706577428
1758011900.4666786,0.04932312799096882,0.1497752417717941,1.621224491669552,-0.21740835693056382,0.441473567147326,-2.23399992300066,0.731319874167501,-0.02078773900342532,-0.08667135000000001,-0.31030011,10.08961443,0.007718,-0.075767,0.005675,0.22839347616689668
1758011900.4874969,0.041091472530198736,0.1554744360378482,1.6233015113317713,-0.22144495687199106,0.42045283571039455,-2.2338600781532856,0.731774799679785,-0.01919080431047566,0.31015296,0.95575887,9.909993329999999,-0.00558,-0.013937,0.01671,0.2329175128214258
1758011900.508145,0.03708809504210842,0.1524296516327937,1.626656836602784,-0.21323311992481175,0.3974192339031757,-2.2337198637615665,0.7321910250303139,-0.019191705467421532,0.49576797,2.0098728,9.15960681,-0.012233,-0.025906,0.073723,0.2310444820861007
1758011900.5311916,0.027966281103269784,0.1492688347602312,1.632449227633142,-0.1643527925058441,0.36723205482919147,-2.2334151339805484,0.7329475583090301,-0.02191791091936617,-0.19130481000000002,2.2073088600000004,9.27561006,-0.019361,-0.066356,-0.013147,0.22954499577826998
1758011900.5520768,0.027966281103269784,0.1492688347602312,1.632449227633142,-0.1643527925058441,0.36723205482919147,-2.2334151339805484,0.7329475583090301,-0.02191791091936617,-0.19130481000000002,2.2073088600000004,9.27561006,-0.019361,-0.066356,-0.013147,0.22954499577826998
1758011900.572798,0.01995035168787771,0.15720456980442146,1.6346670186547154,-0.12808269945511286,0.36112352787697,-2.233232625743954,0.7333209196831246,-0.02220714183705282,-0.7087725,1.03195314,9.49729644,-0.007706,0.015826,-0.017713,0.23741858685478046
1758011900.5932615,0.019063292464011422,0.14910508012202225,1.6374157455784495,-0.12915192967368594,0.3502440748847502,-2.2330525337865152,0.7336624753081901,-0.023172505530047346,-0.37018035,0.30835773000000005,9.82197801,-0.008334,0.018569,-0.003486,0.2326887675235729
1758011900.61325,0.013154218520118834,0.14586269337717483,1.64045753134521,-0.1573124098571116,0.35454550626136705,-2.2326661678052164,0.7343268042832977,-0.020655850306090476,-0.1619631,-0.8182030500000002,9.81643536,-0.010147,0.028998,0.028712,0.23603208679521465
1758011900.6378698,0.008339409859874,0.1474890222501585,1.6440728127999122,-0.22345942155924983,0.3585706343817591,-2.232444041821628,0.734633509882492,-0.02065633516633067,0.56596833,-1.4937392700000003,10.134377460000001,0.008301,0.01123,0.058879,0.2422978773732449
1758011900.6579003,0.005160118162213355,0.14421515481944858,1.6466568435317699,-0.2563497445303272,0.35913174542362986,-2.2322211075888463,0.7349206078414807,-0.020656790642426367,0.34323228,-1.84281831,10.77340086,-0.010551,-0.01541,0.061073,0.24288347743696026
1758011900.6835139,-0.0030018300050312628,0.14766890172739205,1.6479362892903877,-0.3252550319992521,0.37571625966800454,-2.2319649349213515,0.7352263112355352,-0.017245755953497175,0.17738442000000001,-1.41485706,9.85939335,0.006608,0.002911,0.041094,0.2514860246353977
1758011900.7037718,0.03399815428075914,0.15112131464053125,1.6321394175100163,-0.18553262709299298,0.39802786847692523,-2.229184566542011,0.7447795092027714,-0.01727502305690141,0.17198892,-1.1199684600000002,9.89622009,0.003777,-0.026459,7.7e-05,0.22281312831425082
1758011900.7240903,0.028310042135594005,0.15244156278392523,1.6349802734492025,-0.2097086904734478,0.3993913821568762,-2.228990180106759,0.7450875376918106,-0.019449655887752455,-0.06466752,-0.18531090000000003,9.723927060000001,-0.003829,0.024723,-0.029429,0.22686081939635877
1758011900.7450294,0.024655209177798492,0.14966047585226888,1.6364387260342408,-0.21649564297817203,0.3851330151418837,-2.228799600474751,0.7453883825290362,-0.019450202959414655,0.42241860000000003,0.59276925,10.73358207,0.000293,-0.122515,-0.064976,0.22627817441171832
1758011900.7651756,0.017838605203029455,0.1521759347740821,1.638639575151367,-0.21679207095850483,0.3481913159103275,-2.2285831623203145,0.7456859614805706,-0.01888131328951663,0.8129547,1.30214016,10.364294430000001,0.032546,-0.112064,0.005793,0.2290147045946781
1758011900.7860942,0.014605959714413329,0.14821186549046164,1.6411433522093422,-0.20370958284528837,0.3363432789387166,-2.228366118290151,0.7459535998135455,-0.01996495588320772,-0.45326124000000007,1.9880161200000002,10.1282364,-0.028172,0.020779,-0.016293,0.22724490913606968
1758011900.8063183,0.007603816716881074,0.1506229476205846,1.6432404456963718,-0.17194297522838875,0.3230687913920192,-2.228116296675172,0.7462228889474759,-0.01979205639156865,-0.37855809,1.8227568600000001,10.42267374,-0.00645,-0.093948,8.4e-05,0.23086691725429304
1758011900.8264282,0.005007043269485449,0.1467606910645017,1.6459806836811213,-0.16299854359819327,0.30857210080301267,-2.2278674161099765,0.7464723744104289,-0.01979246028273807,-0.04460607,1.6741157400000002,10.30411989,-0.020953,-0.072998,0.058876,0.2295235139557109
1758011900.8465812,0.0008150153931774824,0.14633192278956056,1.6476079884016865,-0.15016388566147948,0.31614931668567864,-2.2276005071978386,0.7467198539912245,-0.0180753986870767,-0.88929612,1.04467671,9.73066653,-0.026118,-0.037172,0.021038,0.2323755895020438
1758011900.8673532,-0.0016144692637963059,0.14318400981287643,1.6494744599436677,-0.15376055009365908,0.31477086313335845,-2.2273270816894626,0.7469417599391368,-0.018499090637275027,-0.44936667,0.42017211000000004,9.45883143,-0.010978,-0.005448,-0.006332,0.2324495122772231
1758011900.8879304,-0.00571090651704856,0.1438149714174403,1.6509217547097856,-0.19117878741633296,0.31857911200611394,-2.2270320055507535,0.7471709337228762,-0.015745296865693783,0.13232709,-0.59366196,9.636510150000001,-0.03613,0.003048,0.037712,0.23737851681535016
1758011900.9082756,-0.008149934441555061,0.14047977192892516,1.6519387345002592,-0.21057421197756682,0.31901106267970275,-2.2267358080365383,0.7473826135401218,-0.013738042719583862,-0.06691401,-0.7836228000000001,10.292897250000001,-0.022813,-0.023253,0.031019,0.2374772653157226
1758011900.929025,-0.015916906231914087,0.1443930115055364,1.6532294454973924,-0.27171362830691786,0.3385893508614572,-2.2264123668272338,0.747589974504519,-0.011422813153939186,-0.02170953,-1.1443659300000002,9.23370174,0.026568,0.020204,0.007591,0.24671988776433906
1758011900.9495463,-0.015686615538550344,0.13706222697326587,1.6545143590015163,-0.27145314232776385,0.32882449507406164,-2.2260896842281315,0.74777540762178,-0.011333239923603192,-0.02170953,-1.1443659300000002,9.23370174,0.026568,0.020204,0.007591,0.24159553609933346
1758011900.9728227,-0.02682365206402851,0.13623130731920916,1.654232437296062,-0.33782983392539023,0.33353181772630147,-2.225366892690431,0.7481368524460835,-0.011333602801978225,0.2832147,-0.6027950700000001,10.270893420000002,-0.002867,-0.03583,-0.045744,0.24769295274766062
1758011900.9935424,-0.02682365206402851,0.13623130731920916,1.654232437296062,-0.33782983392539023,0.33353181772630147,-2.225366892690431,0.7481368524460835,-0.011333602801978225,0.2832147,-0.6027950700000001,10.270893420000002,-0.002867,-0.03583,-0.045744,0.24769295274766062
1758011901.014306,-0.040528793497957086,0.1426231405231966,1.6548951050832326,-0.3570805282267101,0.32262186897780637,-2.2249509253277515,0.7483211714710897,-0.011219632638292626,-0.04999176,0.76461102,9.3127311,0.025752,0.152672,-0.01831,0.25657607498833784
1758011901.0354128,-0.039591921341082595,0.13527802405745806,1.656480133626573,-0.3559859098345114,0.3127605192164515,-2.224531816529059,0.7484922180618333,-0.012994582353247627,0.33739533,1.5399934200000003,9.830502899999999,0.045309,0.073223,0.028642,0.25099122269470125
1758011901.0557346,-0.050171789122613004,0.13237208765472044,1.657633786048125,-0.33184164146851675,0.2812270511541595,-2.2236336281939293,0.7488550665217628,-0.011307735937406645,-0.41763132000000003,1.4876080200000001,10.098894690000002,0.035882,0.088842,0.006085,0.2510085141610298
1758011901.0760288,-0.050171789122613004,0.13237208765472044,1.657633786048125,-0.33184164146851675,0.2812270511541595,-2.2236336281939293,0.7488550665217628,-0.011307735937406645,-0.41763132000000003,1.4876080200000001,10.098894690000002,0.035882,0.088842,0.006085,0.2510085141610298
1758011901.0964406,-0.05965541775088663,0.12931787685080942,1.6580317390241275,-0.30420485750018605,0.261947655286253,-2.2226578862704813,0.7492257974568501,-0.009600253041108281,-0.57765204,1.1557455300000001,9.59159997,0.004214,0.019073,0.030364,0.25203312186026916
1758011901.1194534,-0.06507384330968853,0.12868826591267954,1.6583296168817707,-0.3027358840058104,0.2724601412234168,-2.2221390517247164,0.7494075239429977,-0.012114010122493041,-0.7158160800000001,0.5029587000000001,9.43487541,0.006022,0.018486,-0.029526,0.25487689514002315
1758011901.1404552,-0.06692476506642865,0.1256471910156125,1.6583439295254614,-0.3070389668246391,0.2708386198820353,-2.2216292610769046,0.7495935202559825,-0.011621769494047689,-0.24758478,0.16794720000000002,9.11694312,-0.004505,0.036457,0.013121,0.2539347560892191
1758011901.160859,-0.07232414490530728,0.12588926126066316,1.6583446458628472,-0.3361909483904872,0.2793685781050123,-2.2210899277902216,0.749794735474858,-0.00911774555146646,-0.06765957,-0.54860463,9.155260980000001,-0.024585,0.03066,0.044256,0.25789808720978225
1758011901.1818945,-0.07448765008001988,0.12326760120351,1.6591175854255722,-0.3510736850124696,0.2783315034880488,-2.2205489286546922,0.7499903481810245,-0.009117763817792883,0.07679268,-0.53678358,9.7493742,-0.013945,-0.034256,0.070528,0.2573691999039658
1758011901.2066042,-0.011253534406829023,0.13358571197369537,1.6488841230960753,-0.1845129889397386,0.32633907351186653,-2.2178386425865533,0.7639731912267534,-0.009203372858043044,-0.13965516,-1.11159072,9.61031745,-0.012572,-0.055587,0.007408,0.21896018541870071
1758011901.2266724,-0.013360899136147469,0.13066672509715696,1.6501307553847013,-0.2069770633747948,0.32085163238616776,-2.2174838368544885,0.7640908359064968,-0.009252103055262023,0.48783168000000005,-0.8644572,9.565407270000001,0.006112,-0.020058,0.007737,0.21884758219401268
1758011901.2501843,-0.020609003263036774,0.1346605700752963,1.6506967125690801,-0.24935557794856136,0.3263515966382656,-2.217116604775522,0.7642030641146341,-0.009478224527266195,-0.29144529,-0.31524435,9.18774189,-0.009198,0.026934,-0.032931,0.22649241074112225
1758011901.2715242,-0.02021886641982918,0.12775120929456918,1.6527652813251397,-0.24902304089339208,0.3169520410392701,-2.2167450502622073,0.7643011906897063,-0.012155339434375705,-0.29144529,-0.31524435,9.18774189,-0.009198,0.026934,-0.032931,0.22160770798503007
1758011901.2947886,-0.0287362931282876,0.12647228349000966,1.652294169672066,-0.2387064422599244,0.2939523793708642,-2.215944167201778,0.7645107111469146,-0.011803388928079868,0.21989115,1.15155666,8.952586380000001,0.024613,0.051776,0.01067,0.22383865927074928
1758011901.3154898,-0.0287362931282876,0.12647228349000966,1.652294169672066,-0.2387064422599244,0.2939523793708642,-2.215944167201778,0.7645107111469146,-0.011803388928079868,0.21989115,1.15155666,8.952586380000001,0.024613,0.051776,0.01067,0.22383865927074928
1758011901.336267,-0.036927978011069285,0.1252670098058652,1.6543518818398955,-0.21962890336634572,0.28903718354802527,-2.2150785466796314,0.7647163929435773,-0.010411379866000027,-0.96340086,0.95950629,10.626996420000001,-0.002268,-0.031669,-0.010053,0.22719900838623291
1758011901.3564873,-0.04002662438767687,0.12406453680004749,1.6550933938826144,-0.2096064503149945,0.2920318910573026,-2.2146389385436986,0.7648096771989161,-0.011683470952818163,-0.7578715500000001,1.0240168500000002,10.17823797,-0.007695,-0.010315,-0.012013,0.2283164562981087
1758011901.377166,-0.04208600516019469,0.12204163987438008,1.65579016426436,-0.20789736788544716,0.28401592853807056,-2.214198934223365,0.7649009613981004,-0.012753112052264622,-0.04340925,0.8779263300000001,9.78110955,-0.009285,-0.020513,-0.010567,0.22827692959042686
1758011901.3993359,-0.04864976237652773,0.13100862016593665,1.6549516214232591,-0.2170613004142118,0.29290193567480494,-2.214198934223365,0.7649009613981004,-0.012753112052264622,-0.13142457,0.48693897,9.505232730000001,-0.002299,-0.005145,-0.021652,0.23885134897847077
1758011901.4201584,-0.04819909425890076,0.12078880374538634,1.6570955941566679,-0.2273541552878306,0.2743331071327897,-2.2132505759183445,0.7650910471877566,-0.014513094006765025,0.6167154600000001,-0.20821725000000002,9.47514546,-0.010644,-0.044384,0.057925,0.23225616672149707
1758011901.4408221,-0.05165869321755337,0.12038312060626714,1.6590473095427196,-0.25366270624785336,0.27902278316636936,-2.2127669732914828,0.7651885467369177,-0.014513126034969308,0.0,-0.53468424,9.27725814,-0.012161,0.003271,0.075738,0.23516578686643427
1758011901.4610205,-0.05405298725880913,0.11847483705543754,1.6595369003114637,-0.27344180985325434,0.28181864555966085,-2.2122803754691636,0.7652830279710825,-0.01623555882637978,-0.06167547,-0.6662657700000001,9.39940245,0.010961,0.016919,-0.021222,0.2359218467741668
1758011901.485872,-0.061371172742591934,0.1213284395703999,1.6595819592222352,-0.3296458606909347,0.2886276055750771,-2.211742691845298,0.765391310341134,-0.01737243664280604,0.30761217,-0.88945308,9.870920100000001,0.010045,0.009448,-0.014386,0.2432728785341043
1758011901.5068293,-0.06300744650464986,0.11814273227848232,1.6599261045316336,-0.343296953007743,0.28900929579230566,-2.211218145204354,0.7654984898085426,-0.018618184455479254,-0.10792962,-0.78167061,9.51960438,-0.009021,0.04811,-0.017765,0.2421178879109907
1758011901.5320342,-0.07077276781922029,0.11563325662818914,1.6598138437630352,-0.3737311603789158,0.277504308904953,-2.2101300360796827,0.7657362389780517,-0.019385618879867856,-0.04491018,0.21180771,9.90968922,0.00129,-0.079721,0.004292,0.24376845047447654
1758011901.5583913,-0.07770418185729776,0.11651250220999654,1.6597211054764323,-0.36828388985886085,0.2753644468016655,-2.2095615630981844,0.7658724263054888,-0.017895355430495204,-0.24309180000000002,0.8414037000000001,9.14538231,0.00979,-0.059543,0.020632,0.24669261551208865
1758011901.5786512,-0.08042270032304936,0.11448366033660869,1.659704284813177,-0.35287725230069183,0.27546116635491585,-2.2089927932031297,0.7660087683658755,-0.019515813434659177,-0.8378034300000001,1.3708494,9.203163210000001,0.046646,-0.003425,-0.025131,0.24591084827970744
1758011901.60453,-0.08819866193462791,0.1166274895422216,1.659283760725872,-0.3352985974090444,0.27723833465293984,-2.208378443159021,0.7661673409349242,-0.02044975839059862,-0.48229884,1.12565826,9.47589102,0.020219,-0.003852,-0.015891,0.2502414506893176
1758011901.6247168,-0.08895607290732825,0.1138069006046154,1.6596335950046193,-0.3289147279893222,0.2662621645110135,-2.2077807317048475,0.7663273757055313,-0.02044975346744924,0.15672456,1.15304778,10.210414770000002,-0.013237,0.013259,0.057103,0.24832586479782265
1758011901.6514635,-0.0937615022899585,0.11133346337747829,1.658323794900685,-0.32126486805244686,0.25306054375063325,-2.2065601613438877,0.7666824650338904,-0.015130251407931429,0.05478885,0.46522944000000005,9.83769363,-0.004354,-0.016232,0.040536,0.2488776680984931
1758011901.6733718,-0.0937615022899585,0.11133346337747829,1.658323794900685,-0.32126486805244686,0.25306054375063325,-2.2065601613438877,0.7666824650338904,-0.015130251407931429,0.05478885,0.46522944000000005,9.83769363,-0.004354,-0.016232,0.040536,0.2488776680984931
1758011901.6936004,-0.09962214509476029,0.10972091162586288,1.658688211518549,-0.35541364711387213,0.24452699357326496,-2.2053001195843747,0.7670762763903707,-0.01457937171114613,-0.08935929000000001,-0.34533162,9.62244261,-0.018605,-0.000707,0.010474,0.2518245571326378
1758011901.7213795,-0.1054555849928963,0.11056154729569302,1.6578820857930054,-0.3870660870793463,0.2525409623371193,-2.2046493079782348,0.7672925678487311,-0.01779704308574639,0.04011309,-0.57749508,9.78844743,-0.006479,0.016713,-0.043075,0.25625890712078153
1758011901.7421033,-0.1060637364638843,0.10793897726873025,1.6574841742939892,-0.39814971724491033,0.25367181048128845,-2.204017751519945,0.7675116200398449,-0.019297519002436495,-0.06256818,-0.65832948,10.00564083,0.003544,-0.023697,-0.022431,0.2549309270411373
1758011901.7631166,-0.030684591487881687,0.11584623458573817,1.6573604625630116,-0.19273291580763768,0.2934702531231221,-2.203134811815992,0.7828459834149006,-0.021249419970525707,-0.3150972,-0.7924518,9.712557270000001,-0.011141,-0.034304,-0.030335,0.21228882028302892
1758011901.7840264,-0.0324455574024823,0.11394828624351531,1.6578292600469098,-0.19994565173449738,0.29799266789362877,-2.2027223744811115,0.7828919605082932,-0.02030268598203749,-0.5462109900000001,-0.04146687,8.5521618,0.025231,0.02832,0.010758,0.21249172645459952
1758011901.8077881,-0.037760578822276875,0.11721139621418826,1.6587188689531036,-0.21777101014748296,0.31043405141213254,-2.2022725518623982,0.7829445573520623,-0.01803964478511241,-0.33050871,0.048049379999999996,9.863739180000001,0.024538,-0.026462,0.030818,0.21858842430784575
1758011901.8287437,-0.03921601170310095,0.11476333451630767,1.6592389222590507,-0.2184488663341659,0.30743184968895043,-2.2018321982255027,0.7829904843275795,-0.01816680986648047,-0.32213097,0.52929855,9.57049866,0.013309,-0.008083,-0.00232,0.2177118680807837
1758011901.850201,-0.043514630426017296,0.11218404214997571,1.6600149247836082,-0.21309704480597877,0.29099733008844,-2.2009393675340823,0.7830812277404977,-0.02024385417410353,0.14400099,1.2220611300000002,9.69249582,-0.013065,0.009843,0.00511,0.21796262079173523
1758011901.8718474,-0.043514630426017296,0.11218404214997571,1.6600149247836082,-0.21309704480597877,0.29099733008844,-2.2009393675340823,0.7830812277404977,-0.02024385417410353,0.14400099,1.2220611300000002,9.69249582,-0.013065,0.009843,0.00511,0.21796262079173523
1758011901.891753,-0.04892400119361987,0.11162255273446163,1.6606358288575382,-0.19587099559307455,0.27187185820827087,-2.2000122307702306,0.783185512127033,-0.01999034629828946,0.13037490000000002,1.3052891700000002,10.01941407,-0.000275,-0.019227,0.000993,0.22058737249404098
1758011901.9129775,-0.04892400119361987,0.11162255273446163,1.6606358288575382,-0.19587099559307455,0.27187185820827087,-2.2000122307702306,0.783185512127033,-0.01999034629828946,0.13037490000000002,1.3052891700000002,10.01941407,-0.000275,-0.019227,0.000993,0.22058737249404098
1758011901.9332879,-0.05329208448543261,0.11031166665926781,1.661046328742433,-0.19132293719173155,0.25454552432887795,-2.199062606195789,0.7833009301042805,-0.01874742993497377,-0.11750418000000001,0.7963463700000001,9.55507734,-0.006136,-0.002102,0.010272,0.22340708539495735
1758011901.953408,-0.05329208448543261,0.11031166665926781,1.661046328742433,-0.19132293719173155,0.25454552432887795,-2.199062606195789,0.7833009301042805,-0.01874742993497377,-0.11750418000000001,0.7963463700000001,9.55507734,-0.006136,-0.002102,0.010272,0.22340708539495735
1758011901.9751186,-0.05800205489279774,0.10949079865773828,1.6611453711057242,-0.20538551685857223,0.25280300653677734,-2.1980734169199603,0.7834314286243556,-0.017789989232699092,0.027095220000000003,0.09011466,9.77826465,-0.007974,-0.015518,0.015967,0.2279937325349371
1758011901.9997613,-0.06095756133379834,0.10973309620921178,1.661352028389845,-0.2214237824952733,0.25683439117169504,-2.197572744610843,0.7835047288314446,-0.015649523877863145,-0.12244842,-0.038170710000000004,9.71299872,-0.000847,0.005061,0.033867,0.2312969407477625
1758011902.0198572,-0.061410768047552904,0.1069630306223948,1.6612577859153665,-0.23013637453712377,0.2542374880193257,-2.1970872125551155,0.7835768260321768,-0.014764240072342848,0.023946210000000002,-0.21809592,9.82676529,-0.005963,0.006135,0.016469,0.23027465506458705
1758011902.041066,-0.06598624486814325,0.10861227983164871,1.6613358009252295,-0.2540576481419344,0.2574647865414066,-2.1965711100582648,0.7836593434561835,-0.014122113649830768,0.03726819,-0.11900511,9.88559586,0.004373,-0.006637,0.013096,0.2353456771366512
1758011902.061955,-0.06662767354305878,0.10591988760621644,1.6612600400359545,-0.257860992468771,0.25570042163202256,-2.196070533516193,0.7837424082891049,-0.013988615629824163,-0.20911977,0.13037490000000002,9.720935010000002,0.00851,0.0011,0.005718,0.2342019886850107
1758011902.0833242,-0.07114590282357483,0.1070650264236135,1.6611933625871256,-0.2691002435504313,0.2521488053399722,-2.1955450060555664,0.783837345776137,-0.013626345682326022,0.08067744,0.30880899,9.65806272,0.003021,-0.025543,0.009466,0.23808535637491499
1758011902.1043272,-0.07222993978546094,0.10484479849042355,1.6610782284718617,-0.26688971361740876,0.24846261373346626,-2.195030504404239,0.7839344623292145,-0.013918833611493526,-0.22363857000000004,0.6780868200000001,9.12502656,0.009466,-0.007101,-0.000744,0.23733599262699093
1758011902.126093,-0.07682660004486531,0.10590306534058602,1.6606828429725038,-0.25552930038991367,0.24167777906437235,-2.194490383422911,0.7840440946178547,-0.015583357526885801,-0.15418377,1.09811178,9.28503747,0.024205,-0.007261,-0.022873,0.24080864625622592
1758011902.14673,-0.0773396222192425,0.10349932987727711,1.6603925613558221,-0.24848847983895803,0.22915382754945804,-2.1939657519408255,0.7841575810821642,-0.014989113936555304,0.25432425000000003,1.2750449400000001,9.60088023,-0.013683,0.01685,0.011797,0.2396031139561281
1758011902.1671193,-0.08186250781578454,0.10474814894596474,1.660194810394656,-0.2259608949768408,0.22044671069561522,-2.1934121557806434,0.7842873027942833,-0.01452765649718063,-0.22768029,1.41755481,9.26887059,0.006136,-0.000639,0.009996,0.24381668302989193
1758011902.1876252,-0.08184816089696745,0.10219920518379806,1.6598942191331068,-0.22999274301834993,0.21876332730913045,-2.192874693693471,0.7844182882609684,-0.014496464524894625,-0.12993345,0.14160735,9.880504470000002,-0.003005,-0.034725,0.003639,0.24296929900852232
1758011902.2089248,-0.08460945273939546,0.10231428495540652,1.6595893411271216,-0.2304738638396218,0.21352965092505202,-2.1923222629072114,0.7845620387394568,-0.014202856684518535,-0.00373761,0.6509916,9.40987953,0.006061,0.029159,0.00785,0.24607278684157058
1758011902.2298312,-0.0843788311087502,0.09754923369187857,1.6587426720758547,-0.22630053641962547,0.20308040246335582,-2.191267512791272,0.784854241181645,-0.012461435281826125,0.04190832,0.68332536,9.77437008,0.005654,0.014386,0.041823,0.2441904149602792
1758011902.2507958,-0.08562821090481572,0.09653247202789311,1.679800207898328,-0.23254733124561752,0.1184556267992812,-2.1907467239969494,0.7850086203842112,-0.012461422400739339,3.7342844100000003,2.00956869,8.81502075,0.007531,0.14339,1.073282,0.2447189973429683
1758011902.2732675,-0.08785018843571432,0.09438641290256103,1.7172758298743735,-0.24419989674890463,0.06330664117152933,-2.190224364062347,0.785176007851337,-0.012461411024168275,2.0767770000000003,1.0398894300000001,7.537729320000001,0.036372,0.137849,1.555464,0.2472179812754824
1758011902.2939253,-0.08811971158731463,0.09057708534889854,1.7390549988092108,-0.23243055757259778,0.061365569593227566,-2.189721728309784,0.7853476015866973,-0.012461401890434558,-0.44248005,1.1817910800000002,10.82758149,0.078533,-0.048776,1.454292,0.24674794086823404
1758011902.3143606,-0.08811971158731463,0.09057708534889854,1.7390549988092108,-0.23243055757259778,0.061365569593227566,-2.189721728309784,0.7853476015866973,-0.012461401890434558,-0.44248005,1.1817910800000002,10.82758149,0.078533,-0.048776,1.454292,0.24674794086823404
1758011902.3345525,-0.09072286314079522,0.08390002090456398,1.7954580688323913,-0.23025961044811472,0.05897327964325093,-2.1887281321262786,0.7857344079211483,-0.012461393765431575,-1.08210186,1.16308341,8.59901436,-0.004929,0.113314,1.222569,0.24970705500950857
1758011902.3595147,-0.09304639355789895,0.08110174291978736,1.8279913170355115,-0.23699558495063108,0.055868068269576784,-2.1882473771981448,0.7859432677221486,-0.012461393599143004,0.027389520000000004,0.39203703,9.98139051,0.043114,-0.062182,1.227425,0.25303667636954175
1758011902.3797834,-0.09200094609713964,0.07764281351419179,1.8421065001334016,-0.22969860813881138,0.04646907393127143,-2.187792064814556,0.7861501755062444,-0.012461394503120359,0.27602397,1.1216165400000002,9.48023685,0.030497,0.131491,1.255274,0.2511755238433107
1758011902.403479,-0.09533663870735008,0.07504631255775827,1.8851458776055772,-0.22597389993724012,0.03154636927611336,-2.187331910344347,0.7863810551142552,-0.01246139999542824,0.28845324,0.8608569300000001,10.082737620000001,0.035576,0.110226,1.34518,0.2561150427423665
1758011902.4245217,-0.0940246435956772,0.07159333860593349,1.900946938522667,-0.23143210652065338,0.02323018542332308,-2.186897756011279,0.786608825502234,-0.012461406623908423,0.45071064,0.01826622,11.180702250000001,-0.015724,-0.048852,1.361161,0.2543000290976104
1758011902.444965,-0.09561115024267028,0.06846189603169646,1.9373780142588766,-0.22429973974787912,0.017750046501769565,-2.1864720290122257,0.7868510608739891,-0.012461417603594503,0.0031392000000000004,0.9048645900000001,10.08377748,-0.050548,-5e-06,1.48415,0.2566675483750171
1758011902.4660525,-0.09425329623570888,0.0652164232148339,1.954219497536963,-0.22074598234381526,0.02024693184191121,-2.186070710170889,0.7870897146158387,-0.012461429729251367,-0.55324476,0.5957613,8.99719245,0.019264,0.060783,1.42848,0.25481958468383215
1758011902.4874368,-0.09635636739594455,0.06241282610221477,1.9948256123828045,-0.24106678984555638,0.009533361697286066,-2.1856729555162415,0.78734743136761,-0.012461446232918021,0.2282787,0.43649595,9.2284632,0.056547,0.046226,1.415382,0.2587344625031641
1758011902.5076132,-0.094922897560764,0.05936852583978791,2.010563534085202,-0.24030898732717357,0.0031987712338845944,-2.1852992236591167,0.7876000963032932,-0.012461463943099221,0.2282787,0.43649595,9.2284632,0.056547,0.046226,1.415382,0.2565915140659756
1758011902.531322,-0.09567752180044818,0.053696218521542015,2.064401787710353,-0.27246110904771464,0.005924853738352341,-2.1845872188871254,0.788135929481296,-0.012461512159373356,0.33155838000000004,0.36135135,10.10024847,0.037487,-0.15146,1.497809,0.25749204084275495
1758011902.5516777,-0.09567752180044818,0.053696218521542015,2.064401787710353,-0.27246110904771464,0.005924853738352341,-2.1845872188871254,0.788135929481296,-0.012461512159373356,0.33155838000000004,0.36135135,10.10024847,0.037487,-0.15146,1.497809,0.25749204084275495
1758011902.5718124,-0.09874423052518956,0.05110471352639998,2.104361501426272,-0.2940268135859735,0.01911082527194172,-2.184246701457687,0.7884219588836974,-0.012461543508163933,-0.57989853,-0.17184177000000003,9.41571648,0.043275,0.068075,1.447511,0.26096066940748286
1758011902.5924127,-0.09874423052518956,0.05110471352639998,2.104361501426272,-0.2940268135859735,0.01911082527194172,-2.184246701457687,0.7884219588836974,-0.012461543508163933,-0.57989853,-0.17184177000000003,9.41571648,0.043275,0.068075,1.447511,0.26096066940748286
1758011902.6126702,-0.09874423052518956,0.05110471352639998,2.104361501426272,-0.2940268135859735,0.01911082527194172,-2.184246701457687,0.7884219588836974,-0.012461543508163933,-0.61522434,0.17499078,11.137734450000002,0.004413,0.099504,1.407449,0.26096066940748286
1758011902.6334102,-0.10843096522947449,0.04710484057210996,2.2023671168546732,-0.32335769312006446,0.04329278080949286,-2.1835301993726266,0.7891379606615203,-0.01246163641970264,0.31569561,0.3381507,9.67558338,0.009528,0.098336,1.493729,0.2708519383916644
1758011902.6543293,-0.10548463605111302,0.04318593409700468,2.238868592959946,-0.31837767548236146,0.041318756987188836,-2.1828962941890278,0.7898112558208241,-0.01246172180544603,-0.28680516,0.21764466000000002,9.417962970000001,0.008535,0.045302,1.584108,0.26504770820321844
1758011902.675862,-0.1040655913461665,0.04142595191175792,2.2549240795158996,-0.319059037698439,0.048685314369314295,-2.182605544047339,0.7901337080781589,-0.01246176186128451,-1.00456362,0.31374342,10.082737620000001,0.009954,-0.017663,1.469556,0.26238344078931064
1758011902.6959374,-0.10397954472954896,0.03869636925438775,2.300118908843637,-0.3224889046161479,0.0425032574681109,-2.182049435055388,0.7907840938934254,-0.012461838761044588,-0.27737775000000003,0.17798283,9.2723139,-0.004385,0.093551,1.512833,0.2602716890032234
1758011902.71748,-0.10679326976506978,0.03774702871207456,2.337815133068487,-0.31923049991898605,0.037568593862822665,-2.181778000247985,0.791121060937205,-0.012461876725047682,0.05268951,0.66715848,10.54526931,0.017844,0.084013,1.542922,0.26228765429917755
1758011902.7375486,-0.10449349443463736,0.03619549832685566,2.350018658583738,-0.315439320060487,0.037793642101513675,-2.1815232507432945,0.791443002881393,-0.012461912284346769,-0.39548034000000004,0.57705363,10.78971489,-0.001996,0.10282,1.527561,0.25886780427131456
1758011902.7578857,-0.10449349443463736,0.03619549832685566,2.350018658583738,-0.315439320060487,0.037793642101513675,-2.1815232507432945,0.791443002881393,-0.012461912284346769,-0.39548034000000004,0.57705363,10.78971489,-0.001996,0.10282,1.527561,0.25886780427131456
1758011902.7788122,-0.11548151392816684,0.036198882838861246,2.4295179497975,-0.3153847949666826,0.03561546847042961,-2.181237541069186,0.7918351260776395,-0.01246195159083089,-0.05792805,0.68931927,8.90542971,0.006815,0.038768,1.487828,0.27040905709170815
1758011902.799526,-0.10820606035437114,0.03298938561027149,2.4466525241175443,-0.3030382157598484,0.02212466890303997,-2.1807287655329017,0.7925443335881258,-0.012462020350574182,0.6348345300000001,0.46778004,12.02494104,-0.024142,-0.117711,1.577224,0.2609485704255212
1758011902.8203604,-0.11035522473089854,0.031867500517622396,2.484594598172622,-0.30045021199057415,0.03531787662723469,-2.180483341923125,0.7929009665718143,-0.012462054021144258,-0.6506973,0.86505561,10.06416729,-0.021898,-0.045987,1.52936,0.26299224794791215
1758011902.840451,-0.10943498482212098,0.030790092890284688,2.506637921651267,-0.2942281946786639,0.03371774238133807,-2.180246047072639,0.7932511170803673,-0.01246208497412513,-0.060321690000000004,0.78286743,9.3152817,0.000881,-0.016771,1.516332,0.26156963279926604
1758011902.8613381,-0.10873372091676455,0.02978544585651952,2.530881888233285,-0.28759692261735775,0.018194156345350074,-2.180015390680036,0.7935963502451613,-0.012462113272442938,0.77987538,0.45460521000000004,10.487341259999999,-0.048572,-0.037315,1.577219,0.2605435658825641
1758011902.881707,-0.10873372091676455,0.02978544585651952,2.530881888233285,-0.28759692261735775,0.018194156345350074,-2.180015390680036,0.7935963502451613,-0.012462113272442938,0.77987538,0.45460521000000004,10.487341259999999,-0.048572,-0.037315,1.577219,0.2605435658825641
1758011902.9020793,-0.10873372091676455,0.02978544585651952,2.530881888233285,-0.28759692261735775,0.018194156345350074,-2.180015390680036,0.7935963502451613,-0.012462113272442938,0.77987538,0.45460521000000004,10.487341259999999,-0.048572,-0.037315,1.577219,0.2605435658825641
1758011902.9256117,-0.11832914300180326,0.028079060408955855,2.658516249173239,-0.26422858711515973,0.04539393153924357,-2.1794790737050005,0.794454219778196,-0.01246217514203098,-0.17513793000000002,0.7036909200000001,8.88821316,0.040526,0.048648,1.589006,0.2727660080788244
1758011902.946851,-0.1098413859108826,0.0257775318183826,2.675096356793855,-0.2556858123428586,0.040284485817118666,-2.1790200265999697,0.7951882861405994,-0.012462220172279978,-0.60309918,0.26614530000000003,8.50561335,-0.020394,0.081983,1.594097,0.2628224953030943
1758011902.966957,-0.10790482754816512,0.025027828893288123,2.696132256296254,-0.2591973517160412,0.04118863952777553,-2.1788060025449716,0.795529226208012,-0.012462236542750216,-0.60309918,0.26614530000000003,8.50561335,-0.020394,0.081983,1.594097,0.26101200173355965
1758011902.9872434,-0.10790482754816512,0.025027828893288123,2.696132256296254,-0.2591973517160412,0.04118863952777553,-2.1788060025449716,0.795529226208012,-0.012462236542750216,-0.60309918,0.26614530000000003,8.50561335,-0.020394,0.081983,1.594097,0.26101200173355965
1758011903.010514,-0.10640035493207256,0.023345612474486365,2.7917184140101545,-0.24361544741531982,0.01601266756328881,-2.1781201036531224,0.7966005142691828,-0.012462249651877803,0.12813822000000002,0.8029288800000001,8.71188822,0.076341,0.006287,1.5689,0.2612816383997809
1758011903.0309455,-0.10640035493207256,0.023345612474486365,2.7917184140101545,-0.24361544741531982,0.01601266756328881,-2.1781201036531224,0.7966005142691828,-0.012462249651877803,0.12813822000000002,0.8029288800000001,8.71188822,0.076341,0.006287,1.5689,0.2612816383997809
1758011903.0515275,-0.10414645169196403,0.021543309756939966,2.8482396941903145,-0.240569043124646,0.004812576464316872,-2.1776962194275047,0.7972576817609003,-0.012462255404018737,-0.73901673,0.71341263,8.613690120000001,0.017636,0.025894,1.574704,0.2601276414203784
1758011903.0718746,-0.10414645169196403,0.021543309756939966,2.8482396941903145,-0.240569043124646,0.004812576464316872,-2.1776962194275047,0.7972576817609003,-0.012462255404018737,-0.73901673,0.71341263,8.613690120000001,0.017636,0.025894,1.574704,0.2601276414203784
1758011903.092159,-0.10414645169196403,0.021543309756939966,2.8482396941903145,-0.240569043124646,0.004812576464316872,-2.1776962194275047,0.7972576817609003,-0.012462255404018737,-0.73901673,0.71341263,8.613690120000001,0.017636,0.025894,1.574704,0.2601276414203784
1758011903.1137044,0.014745028399483447,0.16224867191076348,2.9324351192776295,-0.1200905242478787,0.21160958748984582,-2.181993771923889,0.8087522169793082,-0.012451997767521995,0.43798707000000003,0.16540641000000003,9.661810140000002,-0.022542,-0.004167,1.508302,0.2692791380920735
1758011903.1345813,0.12748841183748214,0.28255666941376556,2.942518305656269,0.01893283134689363,0.3581911892424061,-2.1854660041542933,0.8184438492889378,-0.012443058455190448,0.22034241,0.25716915,9.05617017,0.023715,0.106787,1.601824,0.26084901495703744
1758011903.154963,0.17987783687124548,0.342026648695572,2.9653803959431206,0.06714850378273042,0.4363640387533648,-2.186941713726825,0.8228842605606832,-0.01243872225870217,-1.0645910100000002,0.5276504700000001,11.108549700000001,-0.04102,0.126697,1.534588,0.2609931129562638
1758011903.1756756,0.23082438621031054,0.4005790766025341,2.9910833483238823,0.13665971123377993,0.48898118893259335,-2.18824741955455,0.827121396829391,-0.012434322829331133,0.66102723,0.51956703,8.69631975,0.08908,-0.012794,1.566178,0.2612758036054779
1758011903.196027,0.23082438621031054,0.4005790766025341,2.9910833483238823,0.13665971123377993,0.48898118893259335,-2.18824741955455,0.827121396829391,-0.012434322829331133,0.66102723,0.51956703,8.69631975,0.08908,-0.012794,1.566178,0.2612758036054779
1758011903.2161307,0.2885115521321006,0.4754267662433613,3.067595327335429,0.16286563816778435,0.5353753772605365,-2.1893419438150388,0.8314415632187013,-0.01242940194886799,-0.34442910000000004,0.038170710000000004,10.09396026,-0.026407,0.123276,1.610903,0.27196166754647294
1758011903.2370343,0.38007001513276073,0.5699844596853868,3.076854112256779,0.2639534278489938,0.6572487145289967,-2.191163535960955,0.8390169647633132,-0.012420617313176377,-1.5070612500000002,0.42286986,9.811500930000001,0.037253,0.061282,1.252115,0.26299867604145793
1758011903.25756,0.4244887241170408,0.6195331930634801,3.0898004273079263,0.30519181980273713,0.706719532342388,-2.1918886830331497,0.8424201601995153,-0.01241648359803192,-0.4263131700000001,0.38874087000000007,9.61720407,0.010404,-0.001653,1.036556,0.26228016997305625
1758011903.2784867,0.47136796653909446,0.6755081821348344,3.105661257642855,0.3202909353234545,0.7600683055826476,-2.192458638696579,0.8456770195417453,-0.01241227064890947,-1.12460859,0.26808768000000005,10.314901080000002,-0.000201,-0.028067,0.72271,0.265450917858124
1758011903.2995336,0.5115088030111719,0.7193888022978843,3.097665888665124,0.315917131441769,0.8192572367314228,-2.192923945474554,0.8487000248709051,-0.012408197941132898,-3.79027008,-0.30416886,8.34424866,0.019067,0.090328,-0.34421,0.2643436458666032
1758011903.3197443,0.5516891654661163,0.767023133873146,3.0866517984748256,0.3458671375261003,0.8158142317593271,-2.1932582140019647,0.8515343266248085,-0.012404015922447591,0.6975498600000001,-1.50526602,8.836877430000001,0.051004,0.10345,-0.388074,0.2648364348378618
1758011903.340337,0.5767705103599648,0.6321937267800637,-3.0729033185493115,0.35244807991688964,0.3002732706043721,-2.198852408265285,0.8417939144222625,-0.012714409087632958,1.05335856,-2.49785163,12.724590240000001,-0.063666,-0.048947,-0.086764,0.2026719649887851
1758011903.3606634,0.6136430930985933,0.662697245560884,-3.0721858443509804,0.33471888917752507,0.29465556574091634,-2.1997641141216593,0.843821443478614,-0.012729374838892398,-2.03591835,-1.5181465500000002,9.1735272,-0.012637,-0.014281,-0.191271,0.20428504456608304
1758011903.3809717,0.6136430930985933,0.662697245560884,-3.0721858443509804,0.33471888917752507,0.29465556574091634,-2.1997641141216593,0.843821443478614,-0.012729374838892398,-2.03591835,-1.5181465500000002,9.1735272,-0.012637,-0.014281,-0.191271,0.20428504456608304
1758011903.4022455,0.6629217471379644,0.7037866261107696,-3.080911551590707,0.23708364832957562,0.22511854201344325,-2.200555679244193,0.8458836877300694,-0.012744061032001,-1.4599143900000002,-1.64897271,8.85453543,0.01945,0.012571,-0.229132,0.218012522783364
1758011903.422776,0.7190000762557521,0.7511041243702796,-3.072854380514298,0.29300718316079366,0.23398224818573876,-2.202042719305038,0.8495370486149239,-0.013200110727087877,-0.01092834,-0.94783239,10.595565180000001,0.005576,-0.086659,0.003029,0.21315328540954875
1758011903.4450498,0.77455612590656,0.7988577656714497,-3.067895715883867,0.34963027941648,0.2466553882667827,-2.203334523793335,0.8527694529662105,-0.013217921396808325,0.86864607,0.94183848,10.59017949,0.00376,0.042347,-0.066314,0.21449547679488784
1758011903.465583,0.77455612590656,0.7988577656714497,-3.067895715883867,0.34963027941648,0.2466553882667827,-2.203334523793335,0.8527694529662105,-0.013217921396808325,0.86864607,0.94183848,10.59017949,0.00376,0.042347,-0.066314,0.21449547679488784
1758011903.489665,0.8454240996445671,0.8065038645940134,-2.991551559692377,0.5341186856966774,0.16191862798325046,-2.2104861597736027,0.8545764434595824,-0.02019244249245431,0.08397360000000001,1.9899585000000002,10.2469374,-0.007581,0.000575,-0.030366,0.18297616138654074
1758011903.510743,0.8761525235657005,0.8204407391765787,-2.974071804528154,0.5831668902753121,0.17119447883745315,-2.212582230412434,0.8559316143372254,-0.02022972186850772,0.3153915,2.2697298900000002,9.75805605,-0.022312,-0.023124,-0.070494,0.17865181119043105
1758011903.531665,0.9076033179374843,0.8373741574864032,-2.953967778715687,0.6273797165453293,0.1868628690956915,-2.2143616404934554,0.8572652243907619,-0.028398350738624588,0.26075961000000003,1.9435572,9.087150150000001,0.008244,-0.046267,-0.050694,0.17715364117231622
1758011903.552598,0.9381137947708899,0.854617505565565,-2.9393938036488714,0.6546309083098663,0.19243343334496268,-2.2160128337123326,0.858473924334821,-0.030147269117872903,-0.14115609,1.12940568,9.64474074,0.010831,-0.006784,-0.022424,0.17616227935303402
1758011903.5735657,0.9667760891979418,0.8717769597775665,-2.9304546740146717,0.6686690719447785,0.1804207719490039,-2.2174760833492604,0.8595459398719743,-0.02627093304826751,-0.20312586,0.0318825,10.233321120000001,-0.017383,-0.021959,0.017093,0.17537937555566124
1758011903.594405,0.9926323979881397,0.8893059888639498,-2.9228358576776854,0.6603929546475011,0.15570641041946248,-2.2185633949758974,0.8605669396011365,-0.02693082074248217,-0.7363189800000001,-1.1539503,9.99561501,-0.062842,0.00977,-0.014061,0.17424929066563716
1758011903.6144884,1.0189159597625923,0.9062240521603981,-2.9202972191625576,0.6461647919730554,0.12249703958448274,-2.2194908682354115,0.8615551808796904,-0.02160659587808155,-0.48199473000000004,-1.30034493,9.3007629,-0.001965,0.006321,0.038976,0.1743489807089144
1758011903.6347132,1.038078793183315,0.9217369738906165,-2.9166642748193525,0.642370764125306,0.09785324690661502,-2.2201243668354254,0.8626039263830133,-0.0216064511423653,0.027389520000000004,-1.8339893100000002,9.861198390000002,0.028686,0.056683,0.066619,0.1731080952399896
1758011903.654889,1.0585206315923847,0.9364132207057141,-2.9176232397398567,0.6312434668912027,0.06484831949820791,-2.220695531209526,0.8637522450415606,-0.016657303827099464,0.04146687,-1.90164888,10.60200054,-0.003109,0.019547,0.042994,0.17312611882892626
1758011903.6763108,1.083587183911165,0.951812258038131,-2.917208886485597,0.6160831669193921,0.03901443024124724,-2.2210884757569644,0.8652332894493953,-0.01756465355070968,-0.0059841,-1.0901853000000001,10.18123002,0.009735,-0.010867,-0.008111,0.17555494738346963
1758011903.6964526,1.0960662851561338,0.9648220611345589,-2.915168737399772,0.6177906587589189,0.052254298698681284,-2.2215775503423245,0.8665576394276755,-0.019007495090841525,0.06466752,-0.17708031000000002,9.56421045,0.032128,0.010214,-0.015486,0.1732492938638418
1758011903.7175198,1.113728639148779,0.9776009981324241,-2.912767317649565,0.616862694190427,0.06787853049996115,-2.222237758807246,0.8678088308514398,-0.018565050299506242,-0.16091343000000002,0.48259314000000003,9.493107570000001,-0.007224,0.09598,0.003649,0.17341043435777626
1758011903.7380795,1.1325451538104154,0.9898739316184616,-2.9098743595279344,0.6480540521693138,0.09932095792673766,-2.2231237856420365,0.8689158186105511,-0.014888677486458796,0.9660888000000001,1.80914058,9.792783450000002,0.028167,-0.043683,0.042463,0.1751127764152562
1758011903.758846,1.1490141563206815,1.0019843161864601,-2.905163171149185,0.6486294935038205,0.13077744656504256,-2.224104642444593,0.8698072464393705,-0.013474129338445315,-0.5846858100000001,1.78548867,9.42814575,0.010003,0.013796,0.020214,0.1747379874868146
1758011903.7791395,1.1490141563206815,1.0019843161864601,-2.905163171149185,0.6486294935038205,0.13077744656504256,-2.224104642444593,0.8698072464393705,-0.013474129338445315,-0.5846858100000001,1.78548867,9.42814575,0.010003,0.013796,0.020214,0.1747379874868146
1758011903.7994473,1.1490141563206815,1.0019843161864601,-2.905163171149185,0.6486294935038205,0.13077744656504256,-2.224104642444593,0.8698072464393705,-0.013474129338445315,-0.5846858100000001,1.78548867,9.42814575,0.010003,0.013796,0.020214,0.1747379874868146
1758011903.8245041,1.2071891965011436,1.0310989469703382,-2.8867470184801016,0.7056210660485861,0.2296610960975923,-2.2266416690941186,0.8700720992414593,-0.01489218568248661,-0.54022689,1.87335684,9.807155100000001,-0.00145,0.015226,-0.036876,0.18443050116198492
1758011903.8471928,1.2299380108642701,1.06211379583366,-2.863869777287714,0.7170773912378496,0.22941165694114599,-2.230021973154036,0.8710651919172271,-0.019985776261505675,0.11661147000000001,-0.04460607,10.0240542,-0.032772,0.013945,0.003733,0.17488357373066882
1758011903.8675425,1.2299380108642701,1.06211379583366,-2.863869777287714,0.7170773912378496,0.22941165694114599,-2.230021973154036,0.8710651919172271,-0.019985776261505675,0.11661147000000001,-0.04460607,10.0240542,-0.032772,0.013945,0.003733,0.17488357373066882
1758011903.888405,1.2576962453636067,1.0866080020994202,-2.849437280540164,0.70537162169453,0.18435424501021982,-2.232294741125409,0.8723149430092131,-0.019988901762312397,-0.23995260000000002,-1.5238265400000002,9.985589190000002,-0.038252,-0.016444,0.068474,0.1764215711541579
1758011903.9086592,1.2692007440372006,1.0979153315487162,-2.8452791119946363,0.6921707029842896,0.15503229886072478,-2.2334790569868006,0.8733091346179515,-0.01980106028794757,0.2168991,-1.50062589,9.808499070000002,-0.005059,-0.060308,0.000175,0.176045068930249
1758011903.9292061,1.2813209720343406,1.1093444277401223,-2.8410443507837595,0.6759314473481716,0.13132603882189894,-2.234692550219807,0.8745615845035345,-0.02186358370430163,0.16734879000000003,-1.18478313,9.937981259999999,0.00935,-0.019082,-0.030283,0.176431514164686
1758011903.9499817,1.2904778102556589,1.11946611970557,-2.8381004710621025,0.6555612436227958,0.12138962673773648,-2.235977957148684,0.875859474805582,-0.02186158438346795,-0.15897105,-0.87103971,9.365871870000001,0.04472,0.003995,-0.065255,0.17583628354192304
1758011903.9702697,1.2904778102556589,1.11946611970557,-2.8381004710621025,0.6555612436227958,0.12138962673773648,-2.235977957148684,0.875859474805582,-0.02186158438346795,-0.15897105,-0.87103971,9.365871870000001,0.04472,0.003995,-0.065255,0.17583628354192304
1758011903.9905405,1.2904778102556589,1.11946611970557,-2.8381004710621025,0.6555612436227958,0.12138962673773648,-2.235977957148684,0.875859474805582,-0.02186158438346795,-0.15897105,-0.87103971,9.365871870000001,0.04472,0.003995,-0.065255,0.17583628354192304
1758011904.013776,1.3193007817830193,1.1489565909589496,-2.8250212175281484,0.6158381409287426,0.15626228798797517,-2.2400589619845683,0.8793878413617512,-0.02076865843681498,-0.04850064,1.59807843,11.45687337,0.021938,0.043904,0.060199,0.17531359851336153
1758011904.0341988,1.3230293362983905,1.1564453348203674,-2.820590061396358,0.6056845309064226,0.17924604176757436,-2.241250369150575,0.8799366067527803,-0.019398736945538456,-0.62958618,2.01750498,9.696684690000001,0.010546,0.018285,0.015466,0.17328032327246595
1758011904.0547957,1.3309788592823286,1.165089080799709,-2.815774834227716,0.6018250346656703,0.20329366327344192,-2.242341782170459,0.8802561058388789,-0.020150685020516264,-0.15717582000000002,1.8473112900000002,9.96986376,0.008058,-0.01615,-0.012143,0.17342968970501943
1758011904.075445,1.3436714096987181,1.1753672623723643,-2.8111139940491294,0.5916321208390533,0.22168280516216798,-2.243379978456007,0.8803335151401087,-0.021672792748791834,-0.31404753,1.4123162700000003,10.16820234,-0.013487,0.020621,-0.023561,0.1753994700153182
1758011904.0959172,1.34704901777158,1.1822782565355294,-2.807001093506083,0.5897939095269643,0.22502802511579637,-2.2444301870915937,0.8803719670143935,-0.019970598233849196,0.07364367000000001,1.2019996800000001,9.62513055,0.007093,0.014523,0.020504,0.17348994908332632
1758011904.1164317,1.3531395248572171,1.19036208495046,-2.8028100024226883,0.5795998216323994,0.2161448336627636,-2.245495437341786,0.8804858196994793,-0.018802008902388898,-0.16825131000000002,0.28216503000000004,10.12060422,-0.011192,0.005139,0.014851,0.1729074341885125
1758011904.1370332,1.3612685001626241,1.1996316474168058,-2.798563606825876,0.5645270301918993,0.18994913515097067,-2.2466502806314184,0.8808632248016326,-0.01839484249560755,-0.031136940000000002,-0.50774598,9.57019455,-0.02491,0.006311,0.00486,0.1735422090567154
1758011904.1570709,1.364211671588594,1.2070866011684946,-2.793909920214474,0.5486352285870967,0.17321851908364513,-2.2478010834306876,0.8814109912727194,-0.02163404699775839,-0.13053186,-0.7264403100000001,9.70521939,-0.002111,0.049243,-0.049466,0.17211559305672913
1758011904.177607,1.3695533832120128,1.2156119568141956,-2.7896514494852545,0.5323713176502228,0.1324139628300303,-2.2491600492234443,0.8823941561690237,-0.021398379536633254,0.32182686000000005,-1.5808618800000003,10.23466509,-0.034955,-0.005105,-0.000429,0.1725787982498711
1758011904.1984305,1.3713943529014454,1.222421477898814,-2.7856596802625457,0.5182986864452442,0.11193260820081956,-2.250623426739223,0.8835509209583282,-0.01824612292364232,0.42391953000000004,-1.2307429799999998,9.95055768,-0.010357,-0.051776,0.044575,0.17177861929097335
1758011904.2188015,1.37794365547718,1.2280808942986015,-2.781927765865533,0.49378573911601137,0.07671250168642983,-2.2517070661763308,0.8837230695762126,-0.016817498646022312,-0.3930867,-0.73885977,9.44520534,0.015879,-0.001696,0.021213,0.17469234659544405
1758011904.239198,1.379267644133646,1.2320703914644417,-2.7783952897194695,0.48307520820060823,0.06126781847540305,-2.2527679831139817,0.8838988917264785,-0.016124618981803125,-0.01826622,-0.25057683000000003,9.35778843,0.007977,0.002419,0.011638,0.1752695581571943
1758011904.260302,1.3829645316649608,1.236210476499574,-2.7747832550058242,0.4637079629121591,0.06075677449788948,-2.2538051747664687,0.8840902342160754,-0.018287844000514964,-0.48768453,0.6479995500000001,9.63426366,0.036659,0.062507,-0.032183,0.17722749225144624
1758011904.2811003,1.3884670308761622,1.2405412194393222,-2.7714580651584777,0.4679069735937835,0.06815296149765045,-2.254855812470871,0.8842847625988354,-0.02109604703592697,0.47660904000000004,1.10874582,10.05129657,0.037518,-0.031742,-0.043825,0.18135152896577897
