timestamp,time_rel,x,y,theta,vx,vy,accel_x,accel_y,accel_z,gyro_x,gyro_y,gyro_z
0.0,0.0,0.0,0.0,2.776641920281202,0.0,0.0,-9.5378706,-0.03278502,-2.8322647200000004,0.005601,0.002889,0.006019
0.05995299993082881,0.05995299993082881,0.0,0.0,2.6928301854133467,0.0,0.0,-9.46526679,-0.22108797,-2.81145771,0.002921,-0.0034,0.003861
0.07993699994403869,0.07993699994403869,0.0,0.0,2.623736059629108,0.0,0.0,-9.42066072,-0.08562168,-2.8797156900000003,-0.004162,0.003292,0.00142
0.09992199996486306,0.09992199996486306,0.0,0.0,2.56531444009753,0.0,0.0,-9.3209715,-0.01466595,-3.0292495200000005,0.011582,-0.002312,0.008824
0.11990599997807294,0.11990599997807294,0.0,0.0,2.5164695867559157,0.0,0.0,-9.446559120000002,-0.1477386,-2.8367478900000003,0.003721,0.004535,0.004128
0.1598750000121072,0.1598750000121072,0.0,0.0,2.475009538676634,0.0,0.0,-9.31497759,-0.1184067,-2.97536319,0.002734,-0.002646,0.004246
0.1598750000121072,0.1598750000121072,0.0,0.0,2.4396651636735625,0.0,0.0,-9.31497759,-0.1184067,-2.97536319,0.002734,-0.002646,0.004246
0.19984300003852695,0.19984300003852695,0.0,0.0,2.4398243159191164,0.0,0.0,-9.45344574,-0.10687995,-2.8611453600000005,0.003573,0.003165,0.003826
0.19984300003852695,0.19984300003852695,0.0,0.0,2.4398193277347175,0.0,0.0,-9.45344574,-0.10687995,-2.8611453600000005,0.003573,0.003165,0.003826
0.219827999942936,0.219827999942936,0.0,0.0,2.439950195954852,0.0,0.0,-9.33324381,-0.17858124,-2.9476695600000005,0.00175,-0.000509,0.006816
0.23981199995614588,0.23981199995614588,0.0,0.0,2.440030549110957,0.0,0.0,-9.41616774,-0.15387966,-2.87701794,0.004739,-0.006671,0.003972
0.27978099999018013,0.27978099999018013,0.0,0.0,2.4402774994360588,0.0,0.0,-9.35673876,-0.0865242,-2.96383644,0.007714,-0.002091,0.007966
0.29976500000339,0.29976500000339,0.0,0.0,2.440347586855723,0.0,0.0,-9.402698610000002,-0.15223158,-2.9047115700000004,0.00232,-0.000856,0.003483
0.3197500000242144,0.3197500000242144,0.0,0.0,2.440428677221833,0.0,0.0,-9.4425174,-0.17917965,-2.8479803400000003,0.000676,-6.8e-05,0.004036
0.3197500000242144,0.3197500000242144,0.0,0.0,2.440418719877374,0.0,0.0,-9.4425174,-0.17917965,-2.8479803400000003,0.000676,-6.8e-05,0.004036
0.3597179999342188,0.3597179999342188,0.0,0.0,2.440626528588605,0.0,0.0,-9.386678880000002,-0.08996751,-2.9156399100000003,0.003192,0.001177,0.005928
0.3797029999550432,0.3797029999550432,0.0,0.0,2.440697267782083,0.0,0.0,-9.43891713,-0.14369688,-2.85711345,0.004891,-0.000468,0.003453
0.3996869999682531,0.3996869999682531,0.0,0.0,2.440797794232889,0.0,0.0,-9.37125756,-0.1583726399999999,-2.90799792,0.001506,0.000745,0.005068
0.41967199998907745,0.41967199998907745,0.0,0.0,2.4408646134352665,0.0,0.0,-9.39506643,-0.11750418,-2.9093517,0.004806,-0.005106,0.003228
0.43965600000228733,0.43965600000228733,0.0,0.0,2.4409778185466164,0.0,0.0,-9.43652349,-0.0960987599999999,-2.87656668,0.002398,0.003922,0.005783
0.4596400000154972,0.4596400000154972,0.0,0.0,2.441054287026418,0.0,0.0,-9.37680021,-0.11630736,-2.90904759,0.004984,-0.001054,0.003744
0.4796250000363216,0.4796250000363216,0.0,0.0,2.4411285400792115,0.0,0.0,-9.36438075,-0.15447807,-2.92461606,0.00388,-0.000962,0.003629
0.49960899993311614,0.49960899993311614,0.0,0.0,2.4412244623611343,0.0,0.0,-9.43144191,-0.15507648,-2.88075555,0.002422,0.000572,0.004847
0.5195939999539405,0.5195939999539405,0.0,0.0,2.441285359014299,0.0,0.0,-9.39296709,-0.101043,-2.9073995100000003,0.003688,0.000344,0.00288
0.5395779999671504,0.5395779999671504,0.0,0.0,2.4413951825393188,0.0,0.0,-9.38383398,-0.10148445,-2.93284665,0.002631,0.000555,0.00565
0.5595609999727458,0.5595609999727458,0.0,0.0,2.441463678837682,0.0,0.0,-9.42171039,-0.15492933,-2.85845742,0.005719,-0.001232,0.003301
0.5795470000011846,0.5795470000011846,0.0,0.0,2.44155094995506,0.0,0.0,-9.39476232,-0.15701886,-2.89931607,-0.000399,0.002509,0.004378
0.5995310000143945,0.5995310000143945,0.0,0.0,2.4416498131137345,0.0,0.0,-9.38742444,-0.1215459,-2.9265682500000003,0.004419,-0.003039,0.005034
0.6195150000276044,0.6195150000276044,0.0,0.0,2.441754620769961,0.0,0.0,-9.42200469,-0.10882233,-2.87522271,0.003183,0.002702,0.00536
0.6394999999320135,0.6394999999320135,0.0,0.0,2.441824458170693,0.0,0.0,-9.39715596,-0.14025357,-2.90216097,0.00328,-0.000226,0.003354
0.6594839999452233,0.6594839999452233,0.0,0.0,2.4419427405251817,0.0,0.0,-9.370963260000002,-0.14969079,-2.9198287800000005,0.003216,-0.000871,0.006135
0.6794689999660477,0.6794689999660477,0.0,0.0,2.4420279216384113,0.0,0.0,-9.43443396,-0.08951625,-2.98898928,0.007103,0.001616,0.004215
0.6994529999792576,0.6994529999792576,0.0,0.0,2.4420705846465953,0.0,0.0,-9.44176203,-0.11855385,-2.8104080400000004,-0.000833,-0.002454,0.001792
0.7194369999924675,0.7194369999924675,0.0,0.0,2.442279431335921,0.0,0.0,-9.31332951,-0.08128566,-2.98883232,0.005978,0.002464,0.011349
0.7394220000132918,0.7394220000132918,0.0,0.0,2.442379471060214,0.0,0.0,-9.41631489,-0.22737618,-2.83569822,0.008407,-0.002982,0.004988
0.7594060000265017,0.7594060000265017,0.0,0.0,2.4421855049110075,0.0,0.0,-9.56107125,-0.18621342,-2.77209018,-0.009501,0.017486,-0.01186
0.7793909999309108,0.7793909999309108,0.0,0.0,2.4427459608345767,0.0,0.0,-9.14433264,-0.40595742,-2.92641129,-0.007408,-0.040714,0.031725
0.7993749999441206,0.7993749999441206,0.0,0.0,2.4425106425863365,0.0,0.0,-9.763893,-0.01915893,-3.14974575,0.020566,-0.033284,-0.014486
0.8193589999573305,0.8193589999573305,0.0,0.0,2.4432176160164083,0.0,0.0,-9.01216251,-0.23785326,-2.7205876800000004,0.012503,-0.025843,0.040023
0.8393439999781549,0.8393439999781549,0.0,0.0,2.443160854814046,0.0,0.0,-9.7405452,0.14414814,-2.92192812,0.008421,0.01229,-0.004542
0.8593279999913648,0.8593279999913648,0.0,0.0,2.4430996886267984,0.0,0.0,-9.32470911,0.08188407,-2.89093833,0.008421,0.01229,-0.004542
0.8793130000121891,0.8793130000121891,0.0,0.0,2.4431612069767468,0.0,0.0,-9.46601235,0.12813822,-2.91518865,-0.000972,0.017199,0.002732
0.9192810000386089,0.9192810000386089,0.0,0.0,2.44334589109533,0.0,0.0,-9.39760722,-0.16330707,-2.96009883,0.009646,0.016097,0.004163
0.9192810000386089,0.9192810000386089,0.0,0.0,2.4433331240994756,0.0,0.0,-9.39760722,-0.16330707,-2.96009883,0.009646,0.016097,0.004163
0.939265999943018,0.939265999943018,0.0,0.0,2.4436231437172573,0.0,0.0,-9.092241540000002,-0.74769858,-3.10828869,0.013564,-0.016166,0.016267
0.9592499999562278,0.9592499999562278,0.0,0.0,2.4434002520310685,0.0,0.0,-9.49729644,-0.28590264,-2.67044877,-0.025256,-0.042314,-0.014254
0.9992189999902621,0.9992189999902621,0.0,0.0,2.443659452309486,0.0,0.0,-9.5062824,-0.00614106,-2.98344663,0.012775,0.0569,0.00965
0.9992189999902621,0.9992189999902621,0.0,0.0,2.4437445102743025,0.0,0.0,-9.5062824,-0.00614106,-2.98344663,0.012775,0.0569,0.00965
1.0391880000242963,1.0391880000242963,0.0,0.0,2.4439683532102743,0.0,0.0,-9.28848078,-0.07529175,-3.03329124,-0.015146,-0.042805,0.006113
1.0591720000375062,1.0591720000375062,0.0,0.0,2.4441230863293413,0.0,0.0,-9.4863681,0.12498921,-2.82088512,0.009523,0.012505,0.007957
1.0791559999343008,1.0791559999343008,0.0,0.0,2.4442079142005015,0.0,0.0,-9.35419797,-0.05299362,-2.9014154100000003,0.000203,-0.004041,0.00411
1.0791559999343008,1.0791559999343008,0.0,0.0,2.444186380152548,0.0,0.0,-9.35419797,-0.05299362,-2.9014154100000003,0.000203,-0.004041,0.00411
1.119124999968335,1.119124999968335,0.0,0.0,2.444638240262794,0.0,0.0,-9.31827375,-0.20477394,-3.0238638300000003,0.018192,-0.021674,0.018657
1.1391099999891594,1.1391099999891594,0.0,0.0,2.4450851928476407,0.0,0.0,-9.29761389,-0.28231218,-3.13134219,0.043324,-0.033751,0.024122
1.1590940000023693,1.1590940000023693,0.0,0.0,2.445974595435846,0.0,0.0,-9.38847411,-0.1679472,-3.177743490000001,0.092854,-0.027813,0.048691
1.1790780000155792,1.1790780000155792,0.0,0.0,2.4469797034491414,0.0,0.0,-9.34955784,-0.0525423599999999,-3.0093450300000004,0.107357,-0.028615,0.054667
1.1990630000364035,1.1990630000364035,0.0,0.0,2.447881804667781,0.0,0.0,-9.30435336,0.10807677,-3.01473072,0.108437,-0.035529,0.048298
1.219046999933198,1.219046999933198,0.0,0.0,2.448991797155114,0.0,0.0,-9.3354903,0.06780672,-3.0726587700000003,0.142227,-0.033832,0.059635
1.2390319999540225,1.2390319999540225,0.0,0.0,2.4505699090238036,0.0,0.0,-9.46720917,-0.3037176,-2.79633069,0.181015,-0.000304,0.085607
1.2590159999672323,1.2590159999672323,0.0,0.0,2.45184069196117,0.0,0.0,-9.31856805,-0.16286562,-2.68946055,0.133693,-0.006511,0.067264
1.2789999999804422,1.2789999999804422,0.0,0.0,2.452597584185206,0.0,0.0,-9.50374161,-0.06930765,-2.46148596,0.089721,-0.025123,0.037533
1.2989850000012666,1.2989850000012666,0.0,0.0,2.453013663729866,0.0,0.0,-9.56091429,-0.2689902,-2.31538563,0.030172,-0.020004,0.018163
1.3189690000144765,1.3189690000144765,0.0,0.0,2.4529524764365096,0.0,0.0,-9.5236461,-0.19518957,-2.5557894900000004,-0.020736,-0.031298,-0.00869
1.3389540000353009,1.3389540000353009,0.0,0.0,2.4528773451752084,0.0,0.0,-9.23354478,-0.37302525,-2.76669468,-0.020736,-0.031298,-0.00869
1.3589379999320954,1.3589379999320954,0.0,0.0,2.4523965695318797,0.0,0.0,-9.27366768,-0.33470739,-2.9539577700000006,-0.12698,-0.167552,-0.031181
1.3789219999453053,1.3789219999453053,0.0,0.0,2.4521056766955267,0.0,0.0,-9.35614035,-0.30252078,-3.1177161,-0.128732,-0.230514,-0.019285
1.3989069999661297,1.3989069999661297,0.0,0.0,2.4517344365890192,0.0,0.0,-9.1681317,-0.30565998,-3.20064003,-0.152526,-0.327165,-0.023203
1.4188909999793395,1.4188909999793395,0.0,0.0,2.451378709036863,0.0,0.0,-9.08625744,-0.05897772,-3.07116765,-0.161443,-0.418546,-0.021638
1.438876000000164,1.438876000000164,0.0,0.0,2.451063024856527,0.0,0.0,-9.18400428,0.18471249,-3.08717757,-0.144999,-0.495054,-0.018778
1.4588600000133738,1.4588600000133738,0.0,0.0,2.4507396888927877,0.0,0.0,-9.16903422,0.19159911,-3.13567821,-0.144999,-0.495054,-0.018778
1.4788440000265837,1.4788440000265837,0.0,0.0,2.450738917031426,0.0,0.0,-9.21244347,0.22199049,-2.88000999,-0.073196,-0.605044,0.000133
1.4988289999309927,1.4988289999309927,0.0,0.0,2.450964652692363,0.0,0.0,-9.49939578,0.22872015,-2.72777841,-0.020135,-0.61083,0.013123
1.5188129999442026,1.5188129999442026,0.0,0.0,2.4515381911101706,0.0,0.0,-9.37844829,0.28186092,-2.73122172,0.035973,-0.658414,0.032844
1.538797999965027,1.538797999965027,0.0,0.0,2.452176953614825,0.0,0.0,-9.32875083,0.04654845,-2.63242521,0.063528,-0.73805,0.035976
1.5587819999782369,1.5587819999782369,0.0,0.0,2.4530281407737853,0.0,0.0,-9.15585939,-0.07170129,-2.5725547800000004,0.078065,-0.836095,0.047595
1.5787659999914467,1.5787659999914467,0.0,0.0,2.454064732993068,0.0,0.0,-9.17831448,-0.17124336,-2.34712098,0.083372,-0.954699,0.057513
1.598751000012271,1.598751000012271,0.0,0.0,2.455092614799785,0.0,0.0,-9.29731959,-0.32736951,-1.9881632700000005,0.071262,-1.050098,0.056164
1.63871999992989,1.63871999992989,0.0,0.0,2.4568978952712275,0.0,0.0,-9.28907919,-0.14220576,-1.65450555,0.082213,-1.249008,0.067053
1.63871999992989,1.63871999992989,0.0,0.0,2.457507413386516,0.0,0.0,-9.28907919,-0.14220576,-1.65450555,0.082213,-1.249008,0.067053
1.6786879999563098,1.6786879999563098,0.0,0.0,2.4599152938696562,0.0,0.0,-9.63531333,0.1588239,-0.6240533400000001,0.134213,-1.246237,0.088073
1.6786879999563098,1.6786879999563098,0.0,0.0,2.4606554653767567,0.0,0.0,-9.63531333,0.1588239,-0.6240533400000001,0.134213,-1.246237,0.088073
1.718656999990344,1.718656999990344,0.0,0.0,2.463483430490074,0.0,0.0,-9.52708941,0.06406911,-0.26315325,0.129719,-1.310196,0.096543
1.718656999990344,1.718656999990344,0.0,0.0,2.4641450657590234,0.0,0.0,-9.52708941,0.06406911,-0.26315325,0.129719,-1.310196,0.096543
1.7586260000243783,1.7586260000243783,0.0,0.0,2.4655404218154118,0.0,0.0,-12.42415899,-1.00126746,2.0907072,0.078821,-0.356531,0.003913
1.7786109999287874,1.7786109999287874,0.0,0.0,2.4664985096795604,0.0,0.0,-9.74039805,-0.21959685,2.63257236,-0.009685,-0.324154,0.047435
1.7985949999419972,1.7985949999419972,0.0,0.0,2.4679738268857614,0.0,0.0,-9.48353301,0.10014048,1.76692815,-0.071502,-0.246235,0.076301
1.818578999955207,1.818578999955207,0.0,0.0,2.469168119108584,0.0,0.0,-10.2696966,0.13921371,0.91474326,-0.100054,-0.088149,0.060293
1.8385639999760315,1.8385639999760315,0.0,0.0,2.4696925697340184,0.0,0.0,-10.50814827,0.04011309,1.0340524800000002,-0.148828,0.010684,0.022643
1.8585479999892414,1.8585479999892414,0.0,0.0,2.4700854225330717,0.0,0.0,-10.03632651,0.05957613,0.84753495,-0.215593,0.040827,0.015693
1.8785330000100657,1.8785330000100657,0.0,0.0,2.4706064259835454,0.0,0.0,-9.77617512,0.1360647,0.97387794,-0.27669,-0.052031,0.023435
1.8985170000232756,1.8985170000232756,0.0,0.0,2.471825217709153,0.0,0.0,-9.55342926,0.2314179,1.04422545,-0.317176,-0.212362,0.063269
1.9185010000364855,1.9185010000364855,0.0,0.0,2.4737350725209435,0.0,0.0,-9.51017697,0.31749084,0.7051820400000001,-0.287801,-0.426048,0.102156
1.9384859999408945,1.9384859999408945,0.0,0.0,2.475496651597621,0.0,0.0,-9.75312162,0.30042144,0.08457201,-0.239588,-0.528296,0.092831
1.9584699999541044,1.9584699999541044,0.0,0.0,2.476945434320002,0.0,0.0,-9.91597743,0.32302368,-0.30910329,-0.172869,-0.597332,0.074382
1.9784549999749288,1.9784549999749288,0.0,0.0,2.477585561058315,0.0,0.0,-10.16131572,0.57046131,-0.34024023,-0.05137,-0.668571,0.028011
1.9984389999881387,1.9984389999881387,0.0,0.0,2.477727200614442,0.0,0.0,-9.988581240000002,0.31928607,0.11690577,0.04798,-0.700426,0.000122
2.0184230000013486,2.0184230000013486,0.0,0.0,2.4776007508225204,0.0,0.0,-9.89007903,0.09580446,0.66880656,0.094178,-0.757626,-0.01421
2.038408000022173,2.038408000022173,0.0,0.0,2.4775735038627618,0.0,0.0,-9.5962401,0.00628821,0.40445649,0.11248,-0.880178,-0.007404
2.038408000022173,2.038408000022173,0.0,0.0,2.4769284434531134,0.0,0.0,-9.5962401,0.00628821,0.40445649,0.11248,-0.880178,-0.007404
2.078376999939792,2.078376999939792,0.0,0.0,2.477524268571808,0.0,0.0,-9.48996837,-0.02544714,1.3079771100000002,0.078112,-1.076807,-0.004071
2.0983609999530017,2.0983609999530017,0.0,0.0,2.477647488682244,0.0,0.0,-9.42066072,-0.01661814,1.7061552,0.077664,-1.125179,0.003353
2.118345999973826,2.118345999973826,0.0,0.0,2.4778403575950048,0.0,0.0,-9.42439833,-0.18231885,1.56304692,0.056312,-1.222472,0.007795
2.138329999987036,2.138329999987036,0.0,0.0,2.478296562626534,0.0,0.0,-9.27875907,-0.14041053,1.7738147700000002,0.045169,-1.333353,0.023229
2.158314000000246,2.158314000000246,0.0,0.0,2.4784063944417607,0.0,0.0,-9.33712857,0.2624076899999999,2.1457903500000004,0.082576,-1.377133,0.003243
2.1782990000210702,2.1782990000210702,0.0,0.0,2.4812046884221646,0.0,0.0,-9.40418973,0.64995174,3.17100402,0.10397,-1.287143,0.15825
2.19828300003428,2.19828300003428,0.0,0.0,2.4807362340975647,0.0,0.0,-9.24776928,-0.07813665,2.4758478,0.105018,-1.375168,-0.032469
2.218267999938689,2.218267999938689,0.0,0.0,2.48087179156877,0.0,0.0,-10.55514798,0.27063828,3.1105351800000003,0.103194,-1.112854,0.003653
2.218267999938689,2.218267999938689,0.0,0.0,2.4805521890811377,0.0,0.0,-10.55514798,0.27063828,3.1105351800000003,0.103194,-1.112854,0.003653
2.2582369999727234,2.2582369999727234,0.0,0.0,2.4810599519141983,0.0,0.0,-9.67917384,-0.2402469,4.45862538,0.087437,-1.079085,0.00047
2.2782209999859333,2.2782209999859333,0.0,0.0,2.4816406960993795,0.0,0.0,-7.51736376,-0.05149269,5.029390800000001,0.148919,-0.938501,0.03059
2.298204999999143,2.298204999999143,0.0,0.0,2.480599050635588,0.0,0.0,-9.76180347,-0.4050549,4.759056630000001,0.199256,-0.828079,-0.063272
2.3181900000199676,2.3181900000199676,0.0,0.0,2.480330447974522,0.0,0.0,-8.24664897,-0.13546629,4.05371763,0.213387,-0.883011,-0.016932
2.3581589999375865,2.3581589999375865,0.0,0.0,2.4807440632511533,0.0,0.0,-7.2965799,1.95298461,4.629123180000001,0.08383,-1.093808,0.015089
2.3581589999375865,2.3581589999375865,0.0,0.0,2.4808756996427563,0.0,0.0,-7.2965799,1.95298461,4.629123180000001,0.08383,-1.093808,0.015089
2.3981279999716207,2.3981279999716207,0.0,0.0,2.481334882642013,0.0,0.0,-8.36161236,1.00425951,4.53092508,0.0736,-1.078827,0.015105
2.4181119999848306,2.4181119999848306,0.0,0.0,2.4822798726344386,0.0,0.0,-8.50501494,1.4329663200000002,4.97430765,0.08867,-1.032134,0.050055
2.4380959999980405,2.4380959999980405,0.0,0.0,2.48299761505426,0.0,0.0,-7.83605142,1.11697641,5.19584688,0.080201,-1.060713,0.037626
2.458081000018865,2.458081000018865,0.0,0.0,2.4839028615650918,0.0,0.0,-8.47552608,0.942741,4.98284235,0.096358,-1.026102,0.047739
2.4780650000320747,2.4780650000320747,0.0,0.0,2.4847844439409705,0.0,0.0,-7.822886400000001,0.7086253499999999,5.0003532,0.100496,-1.080614,0.046244
2.498049999936484,2.498049999936484,0.0,0.0,2.4859181869978677,0.0,0.0,-8.0688231,1.02327129,5.39837433,0.111664,-1.086616,0.059973
2.5180339999496937,2.5180339999496937,0.0,0.0,2.4871454784397287,0.0,0.0,-7.434586980000001,0.86265216,5.51138553,0.096132,-1.145945,0.06484
2.5180339999496937,2.5180339999496937,0.0,0.0,2.487623155187034,0.0,0.0,-7.434586980000001,0.86265216,5.51138553,0.096132,-1.145945,0.06484
2.558002999983728,2.558002999983728,0.0,0.0,2.4905263897202072,0.0,0.0,-7.653281310000001,0.93121425,6.04548117,0.09674,-1.171544,0.115408
2.577986999996938,2.577986999996938,0.0,0.0,2.4914957280975223,0.0,0.0,-5.7014935200000005,-0.76296294,6.5160963,0.056622,-1.438122,0.048463
2.5979730000253767,2.5979730000253767,0.0,0.0,2.4938594637785574,0.0,0.0,-8.113125060000002,-0.38005902,6.382130940000001,0.092526,-1.256696,0.127244
2.6179570000385866,2.6179570000385866,0.0,0.0,2.495087146741662,0.0,0.0,-6.145768800000001,-0.87253083,6.86472408,0.053958,-1.382583,0.061709
2.6379419999429956,2.6379419999429956,0.0,0.0,2.4968256687873005,0.0,0.0,-7.51152681,0.04146687,6.98911488,0.091715,-1.249222,0.090655
2.6579259999562055,2.6579259999562055,0.0,0.0,2.4977739787897413,0.0,0.0,-6.330334140000001,-0.00164808,6.50293128,0.157888,-1.254681,0.045231
2.67791099997703,2.67791099997703,0.0,0.0,2.499253173302897,0.0,0.0,-6.40174113,0.74650176,7.656881580000001,0.211539,-1.192509,0.075767
2.6978949999902397,2.6978949999902397,0.0,0.0,2.499945691473746,0.0,0.0,-6.09173532,0.44607051,7.00124004,0.276358,-1.157144,0.030663
2.7178790000034496,2.7178790000034496,0.0,0.0,2.5030075286916507,0.0,0.0,-5.13567234,1.27864521,7.805071440000001,0.312229,-1.130598,0.166519
2.737864000024274,2.737864000024274,0.0,0.0,2.50687798231161,0.0,0.0,-5.510787120000001,0.73452375,7.43668632,0.331493,-1.138635,0.210838
2.757848000037484,2.757848000037484,0.0,0.0,2.5116341230124366,0.0,0.0,-5.749542900000001,0.8114635800000001,7.44177771,0.355212,-1.143407,0.259054
2.777832999941893,2.777832999941893,0.0,0.0,2.5153957793478314,0.0,0.0,-6.04488276,0.988848,7.554494610000001,0.399639,-1.14003,0.199036
2.797816999955103,2.797816999955103,0.0,0.0,2.5183652684421816,0.0,0.0,-5.55943491,1.08599643,8.08753077,0.379644,-1.164862,0.15206
2.817801999975927,2.817801999975927,0.0,0.0,2.5220734831140907,0.0,0.0,-4.746627360000001,1.2467529000000002,8.13363777,0.339008,-1.234179,0.193918
2.837785999989137,2.837785999989137,0.0,0.0,2.525489757378809,0.0,0.0,-4.89916305,1.33567074,8.68044717,0.228389,-1.37253,0.175939
2.8577710000099614,2.8577710000099614,0.0,0.0,2.528628782688158,0.0,0.0,-4.38093999,1.09123497,8.75813256,0.071707,-1.583855,0.159273
2.8777550000231713,2.8777550000231713,0.0,0.0,2.5313710952817434,0.0,0.0,-4.314928500000001,1.07641206,8.80304274,-0.027409,-1.735686,0.136163
2.897739000036381,2.897739000036381,0.0,0.0,2.5344624328922265,0.0,0.0,-3.808232190000001,1.49598576,8.25264288,-0.024007,-1.797167,0.156381
2.9177239999407902,2.9177239999407902,0.0,0.0,2.5375860918111925,0.0,0.0,-3.93576219,1.3736943,8.11283076,0.054342,-1.792835,0.157979
2.937707999954,2.937707999954,0.0,0.0,2.5399480254288846,0.0,0.0,-3.67829874,1.03689738,8.7078465,0.09187,-1.822587,0.113928
2.9576929999748245,2.9576929999748245,0.0,0.0,2.5420166908527353,0.0,0.0,-3.09540816,1.03629897,9.16200045,0.077749,-1.823692,0.097687
2.9776769999880344,2.9776769999880344,0.0,0.0,2.543992222282194,0.0,0.0,-2.6958959100000004,0.90995598,9.51121683,0.051597,-1.80663,0.093209
2.9976620000088587,2.9976620000088587,0.0,0.0,2.5456590006235977,0.0,0.0,-2.467470060000001,0.8458868700000001,10.38540555,-0.050263,-1.7554,0.07628
3.0176460000220686,3.0176460000220686,0.0,0.0,2.547085000871804,0.0,0.0,-1.92649761,0.98330535,9.883947780000002,-0.078247,-1.664487,0.063498
3.0576149999396876,3.0576149999396876,0.0,0.0,2.5504898149642514,0.0,0.0,-1.91257722,1.41875163,10.21221,-0.090048,-1.386076,0.052562
3.0775989999528974,3.0775989999528974,0.0,0.0,2.5420030832142038,0.0,0.0,-6.54618357,-2.39681844,17.54426286,-0.829244,-0.906768,-0.450056
3.097583999973722,3.097583999973722,0.0,0.0,2.537022280892052,0.0,0.0,1.21592007,3.1901629500000004,12.26983788,-0.846605,-1.405474,-0.265754
3.1175679999869317,3.1175679999869317,0.0,0.0,2.529658061817826,0.0,0.0,-2.26733625,0.7575772500000001,14.08092084,-0.629446,-1.544298,-0.3935
3.1175679999869317,3.1175679999869317,0.0,0.0,2.524290047197031,0.0,0.0,-2.26733625,0.7575772500000001,14.08092084,-0.629446,-1.544298,-0.3935
3.157537000020966,3.157537000020966,0.0,0.0,2.522840263365314,0.0,0.0,-0.36867942,1.13524263,14.60498085,-0.286243,-0.549593,0.046228
3.1775220000417903,3.1775220000417903,0.0,0.0,2.5247112265029026,0.0,0.0,-0.4016115900000001,0.8134059600000001,13.37588595,-0.386845,-0.682668,0.111267
3.197505999938585,3.197505999938585,0.0,0.0,2.5273371542031917,0.0,0.0,-0.35027586,1.82246256,6.29455707,-0.156897,-0.284887,0.151284
3.2174909999594092,3.2174909999594092,0.0,0.0,2.424394131203286,0.0,0.0,-0.38634723,1.07686332,9.19029249,-0.146232,-0.201627,0.140312
3.237474999972619,3.237474999972619,0.0,0.0,2.3183274583487083,0.0,0.0,-0.24743763,0.98944641,9.63232128,-0.158132,-0.260396,0.113044
3.257458999985829,3.257458999985829,0.0,0.0,2.3197116788386083,0.0,0.0,-0.22168638,0.51298452,10.32927273,-0.226577,-0.424656,0.07876
3.2774440000066534,3.2774440000066534,0.0,0.0,2.3214140576699203,0.0,0.0,-0.0173637,0.36628578,10.22164722,-0.296793,-0.569675,0.095652
3.2974280000198632,3.2974280000198632,0.0,0.0,2.3240720570872213,0.0,0.0,0.05957613,0.6403673700000001,9.46661076,-0.304085,-0.609284,0.14926
3.3174130000406876,3.3174130000406876,0.0,0.0,2.3262298524132703,0.0,0.0,-0.6373753200000001,0.48184758,9.81913311,-0.32645,-0.632055,0.117795
3.337396999937482,3.337396999937482,0.0,0.0,2.327916342167354,0.0,0.0,-0.28994436,0.59501574,9.66121173,-0.311322,-0.612725,0.089039
3.3573819999583066,3.3573819999583066,0.0,0.0,2.3296153789067677,0.0,0.0,-3.33012222,2.3107455000000003,11.12681592,-0.311322,-0.612725,0.089039
3.3773659999715164,3.3773659999715164,0.0,0.0,2.3254466586409324,0.0,0.0,0.25267617,-0.58947309,8.2828773,-0.084008,-0.377163,-0.250313
3.397350999992341,3.397350999992341,0.0,0.0,2.325580067028911,0.0,0.0,2.50399269,0.25911153,5.84968338,0.020311,0.037596,0.004397
3.4173350000055507,3.4173350000055507,0.0,0.0,2.3258392112409503,0.0,0.0,0.6125265900000001,-0.11061756,8.99643708,0.010557,0.008748,0.012003
3.4373190000187606,3.4373190000187606,0.0,0.0,2.3258542423806787,0.0,0.0,-0.21240612,0.19609209,9.418414230000002,0.020595,-0.006043,-0.001932
3.457304000039585,3.457304000039585,0.0,0.0,2.325825137205891,0.0,0.0,-0.25387299,0.23321313,10.06896438,0.015014,-0.012246,-0.004068
3.4772879999363795,3.4772879999363795,0.0,0.0,2.3258357604254476,0.0,0.0,0.08726976,0.19609209,10.304424,-0.010533,-0.045285,-0.001377
3.497272999957204,3.497272999957204,0.0,0.0,2.325859343395548,0.0,0.0,0.22692492,0.52929855,9.53113113,0.013881,-0.030533,-0.000339
3.5172569999704137,3.5172569999704137,0.0,0.0,2.3258445452975707,0.0,0.0,-0.0520911,0.29429019,9.97675038,-0.00012,-0.016576,-0.00232
3.537241999991238,3.537241999991238,0.0,0.0,2.3259542729648928,0.0,0.0,0.09954207,0.35311095,9.74188917,-0.001107,-0.015256,0.0051
3.557226000004448,3.557226000004448,0.0,0.0,2.3262911002344744,0.0,0.0,0.31838355,0.17499078,9.70117767,-0.001444,-0.02096,0.018253
3.5971950000384822,3.5971950000384822,0.0,0.0,2.326513651779079,0.0,0.0,0.15942231,0.23935419,9.74832453,0.003678,-0.011893,0.001827
3.5971950000384822,3.5971950000384822,0.0,0.0,2.3264097504637995,0.0,0.0,0.15942231,0.23935419,9.74832453,0.003678,-0.011893,0.001827
3.637163999956101,3.637163999956101,0.0,0.0,2.3266462514503354,0.0,0.0,-0.11541465,0.18126918,9.95309847,0.003439,-0.001423,0.004458
3.637163999956101,3.637163999956101,0.0,0.0,2.3266075220896463,0.0,0.0,-0.11541465,0.18126918,9.95309847,0.003439,-0.001423,0.004458
3.6771329999901354,3.6771329999901354,0.0,0.0,2.3268555407577693,0.0,0.0,0.1130112,0.30850488,9.68994522,0.00701,-0.002877,0.005837
3.6971170000033453,3.6971170000033453,0.0,0.0,2.3269716325244314,0.0,0.0,-0.01182105,0.21720321,9.89622009,0.000465,-0.005211,0.005752
3.7171020000241697,3.7171020000241697,0.0,0.0,2.3270609632391617,0.0,0.0,0.13412232,0.29548701,9.78021684,0.001208,-0.010244,0.004284
3.7370860000373796,3.7370860000373796,0.0,0.0,2.3271872291185938,0.0,0.0,0.09924777,0.33874911,9.6767802,0.009333,-0.00102,0.006347
3.7570709999417886,3.7570709999417886,0.0,0.0,2.3272826790281522,0.0,0.0,0.05314077,0.26255484,9.88349652,-0.00033,-0.00915,0.00463
3.7770549999549985,3.7770549999549985,0.0,0.0,2.327367852864919,0.0,0.0,0.07079877,0.31479309,9.7519248,0.00228,-0.003648,0.004073
3.797039999975823,3.797039999975823,0.0,0.0,2.327511693506202,0.0,0.0,0.13367106,0.34293798,9.72737037,0.004744,-0.003013,0.007384
3.8170239999890327,3.8170239999890327,0.0,0.0,2.327626780698589,0.0,0.0,0.07603731,0.28231218,9.869880240000002,0.002138,-0.006709,0.005744
3.837009000009857,3.837009000009857,0.0,0.0,2.3277009155737556,0.0,0.0,0.06541308,0.32437746,9.77946147,0.001977,-0.003341,0.003435
3.856993000023067,3.856993000023067,0.0,0.0,2.3277916326715715,0.0,0.0,0.10896948,0.31973733,9.77077962,0.005751,-0.003997,0.004409
3.876977000036277,3.876977000036277,0.0,0.0,2.3278912681704753,0.0,0.0,0.09550035,0.29353482,9.82751085,0.001508,-0.006328,0.004932
3.896961999940686,3.896961999940686,0.0,0.0,2.3279995105899918,0.0,0.0,0.07858791,0.32063004,9.74234043,0.003679,-0.0066,0.005428
3.916945999953896,3.916945999953896,0.0,0.0,2.328114487099554,0.0,0.0,0.09056592,0.31854051,9.77108373,0.005616,-0.004993,0.00581
3.93693099997472,3.93693099997472,0.0,0.0,2.3282524970846836,0.0,0.0,0.09355797,0.29129814,9.81494424,0.000873,-0.00733,0.007115
3.95691499998793,3.95691499998793,0.0,0.0,2.3283258932073823,0.0,0.0,0.07574301,0.29757654,9.77377167,0.001589,-0.00457,0.003397
3.9769000000087544,3.9769000000087544,0.0,0.0,2.328423521293927,0.0,0.0,0.09400923,0.30042144,9.75416148,0.001923,-0.005541,0.004821
3.9968840000219643,3.9968840000219643,0.0,0.0,2.328544366777251,0.0,0.0,0.08262963,0.28800198,9.77137803,0.00236,-0.005456,0.006159
4.016868999926373,4.016868999926373,0.0,0.0,2.328632395480298,0.0,0.0,0.0811287,0.29114118,9.74772612,0.00163,-0.001295,0.004263
4.036852999939583,4.036852999939583,0.0,0.0,2.3287198848691846,0.0,0.0,0.08726976,0.2624076899999999,9.77496849,0.002639,-0.003578,0.004253
4.056837999960408,4.056837999960408,0.0,0.0,2.3287971407946495,0.0,0.0,0.08248248,0.27078543,9.78350319,0.002718,-0.003837,0.003684
4.0768219999736175,4.0768219999736175,0.0,0.0,2.328882725242342,0.0,0.0,0.08023599,0.26599815,9.77826465,0.00262,-0.003609,0.004189
4.096806999994442,4.096806999994442,0.0,0.0,2.3289835024917807,0.0,0.0,0.08442486,0.27513126,9.77377167,0.004824,-0.005665,0.005075
4.116791000007652,4.116791000007652,0.0,0.0,2.329100058283286,0.0,0.0,0.08143281,0.283509,9.76823883,0.002808,-0.004855,0.005977
4.136776000028476,4.136776000028476,0.0,0.0,2.329217949776245,0.0,0.0,0.07634142,0.28546119,9.77751909,0.003031,-0.004512,0.006032
4.156760000041686,4.156760000041686,0.0,0.0,2.3293181620767722,0.0,0.0,0.08188407,0.28934595,9.77273181,0.00162,-0.005069,0.004996
4.176743999938481,4.176743999938481,0.0,0.0,2.32943948624815,0.0,0.0,0.09265545,0.28530423,9.77168214,0.003591,-0.004399,0.006213
4.196728999959305,4.196728999959305,0.0,0.0,2.3295326079402363,0.0,0.0,0.08172711,0.28365615,9.79129233,0.002253,-0.003961,0.004569
4.216712999972515,4.216712999972515,0.0,0.0,2.329610455986324,0.0,0.0,0.08322804,0.29952873,9.78889869,0.002695,-0.005659,0.003704
4.236697999993339,4.236697999993339,0.0,0.0,2.3296953500298248,0.0,0.0,0.09310671,0.31015296,9.77976558,0.002809,-0.002233,0.004138
4.276667000027373,4.276667000027373,0.0,0.0,2.3298988202818602,0.0,0.0,0.07948062,0.30117681,9.7755669,0.004076,-0.003775,0.005328
4.276667000027373,4.276667000027373,0.0,0.0,2.3299054277316174,0.0,0.0,0.07948062,0.30117681,9.7755669,0.004076,-0.003775,0.005328
4.316635999944992,4.316635999944992,0.0,0.0,2.33005557369345,0.0,0.0,0.0782838,0.29144529,9.78515127,0.004304,-0.004397,0.002373
4.316635999944992,4.316635999944992,0.0,0.0,2.330018779114413,0.0,0.0,0.0782838,0.29144529,9.78515127,0.004304,-0.004397,0.002373
4.356604999979027,4.356604999979027,0.0,0.0,2.3302123307241107,0.0,0.0,0.08098155,0.27991854,9.77317326,0.001925,-0.004294,0.005443
4.3765889999922365,4.3765889999922365,0.0,0.0,2.3303062800786094,0.0,0.0,0.07529175,0.28575549,9.77692068,0.004124,-0.001967,0.004721
4.396574000013061,4.396574000013061,0.0,0.0,2.330412319302914,0.0,0.0,0.07199559,0.27453285,9.76613949,0.002898,-0.005834,0.005384
4.396574000013061,4.396574000013061,0.0,0.0,2.330424225017545,0.0,0.0,0.07199559,0.27453285,9.76613949,0.002898,-0.005834,0.005384
4.43654299993068,4.43654299993068,0.0,0.0,2.3306177762627964,0.0,0.0,0.08502327,0.28695231,9.76329459,0.003338,-0.003749,0.004982
4.43654299993068,4.43654299993068,0.0,0.0,2.330621207101263,0.0,0.0,0.08502327,0.28695231,9.76329459,0.003338,-0.003749,0.004982
4.4765109999571,4.4765109999571,0.0,0.0,2.3307820795712937,0.0,0.0,0.08981055,0.29653668,9.7610481,0.003328,-0.004502,0.003066
4.496495999977924,4.496495999977924,0.0,0.0,2.3308536245721463,0.0,0.0,0.08786817,0.27393444,9.76749327,0.004303,-0.004217,0.003455
4.516479999991134,4.516479999991134,0.0,0.0,2.3309348751220558,0.0,0.0,0.08846658,0.28829628,9.7752726,0.003199,-0.002522,0.004022
4.536465000011958,4.536465000011958,0.0,0.0,2.331004205093384,0.0,0.0,0.08861373,0.28934595,9.75147354,0.003362,-0.004613,0.003352
4.556449000025168,4.556449000025168,0.0,0.0,2.331077590766247,0.0,0.0,0.08696565,0.29593827,9.75865446,0.003932,-0.00031,0.003599
4.576433999929577,4.576433999929577,0.0,0.0,2.3311559673522666,0.0,0.0,0.0865242,0.29084688,9.77108373,0.002452,-0.003392,0.003893
4.596417999942787,4.596417999942787,0.0,0.0,2.3312342684590295,0.0,0.0,0.09040896,0.29264211,9.7607538,0.002452,-0.003392,0.003893
4.616402999963611,4.616402999963611,0.0,0.0,2.331341607662905,0.0,0.0,0.0836793,0.30221667,9.78560253,0.002749,-0.002898,0.005553
4.636386999976821,4.636386999976821,0.0,0.0,2.331418200670483,0.0,0.0,0.08576883,0.30221667,9.78649524,0.00412,-0.004677,0.003771
4.656371999997646,4.656371999997646,0.0,0.0,2.331485268807331,0.0,0.0,0.07724394,0.29039562,9.76988691,0.001655,-0.000617,0.003235
4.6763560000108555,4.6763560000108555,0.0,0.0,2.331553023109848,0.0,0.0,0.09071307,0.2951829,9.76254903,0.002233,-0.005877,0.003292
4.69634100003168,4.69634100003168,0.0,0.0,2.331660752035157,0.0,0.0,0.09744273,0.27737775,9.76704201,0.002732,-0.000498,0.005596
4.716324999928474,4.716324999928474,0.0,0.0,2.331763122068428,0.0,0.0,0.07753824,0.28425456,9.76704201,0.00271,-0.006099,0.005259
4.736309999949299,4.736309999949299,0.0,0.0,2.331852963054125,0.0,0.0,0.07424208,0.29219085,9.77482134,0.00273,-0.001633,0.00452
4.756293999962509,4.756293999962509,0.0,0.0,2.3319308764364255,0.0,0.0,0.09460764,0.28709946,9.78141366,0.002606,-0.003681,0.003832
4.776277999975719,4.776277999975719,0.0,0.0,2.3320086178711508,0.0,0.0,0.0805302899999999,0.29338767,9.77077962,0.002606,-0.003681,0.003832
4.796262999996543,4.796262999996543,0.0,0.0,2.332110041132216,0.0,0.0,0.08172711,0.27587682,9.79712928,0.002372,-0.00371,0.005201
4.796262999996543,4.796262999996543,0.0,0.0,2.3321230768736774,0.0,0.0,0.08172711,0.27587682,9.79712928,0.002372,-0.00371,0.005201
4.836232000030577,4.836232000030577,0.0,0.0,2.3323148091896044,0.0,0.0,0.08831943,0.29728224,9.74728467,0.004303,-0.001665,0.005248
4.856216999934986,4.856216999934986,0.0,0.0,2.3324219577331906,0.0,0.0,0.08502327,0.27932013,9.7841016,0.002568,-0.006118,0.005484
4.8961859999690205,4.8961859999690205,0.0,0.0,2.3325989619608514,0.0,0.0,0.07708698,0.2977335,9.75296466,0.001686,-0.002681,0.004156
4.916168999974616,4.916168999974616,0.0,0.0,2.3326658657917054,0.0,0.0,0.09624591,0.28785483,9.78634809,0.003354,-0.00421,0.003289
4.916168999974616,4.916168999974616,0.0,0.0,2.332647069578302,0.0,0.0,0.09624591,0.28785483,9.78634809,0.003354,-0.00421,0.003289
4.956139000016265,4.956139000016265,0.0,0.0,2.3328115261133746,0.0,0.0,0.08562168,0.28814913,9.78709365,0.002936,-0.003729,0.003932
4.956139000016265,4.956139000016265,0.0,0.0,2.33280674659695,0.0,0.0,0.08562168,0.28814913,9.78709365,0.002936,-0.003729,0.003932
4.9961079999338835,4.9961079999338835,0.0,0.0,2.3329663449671267,0.0,0.0,0.06930765,0.2977335,9.77751909,0.002876,-0.003176,0.003761
4.9961079999338835,4.9961079999338835,0.0,0.0,2.332960464862138,0.0,0.0,0.06930765,0.2977335,9.77751909,0.002876,-0.003176,0.003761
5.036076999967918,5.036076999967918,0.0,0.0,2.3331178514821325,0.0,0.0,0.09415638,0.28800198,9.78605379,0.003102,-0.003162,0.003761
5.056059999973513,5.056059999973513,0.0,0.0,2.3331711799904618,0.0,0.0,0.0865242,0.29264211,9.80521272,0.002415,-0.002169,0.002513
5.076046000001952,5.076046000001952,0.0,0.0,2.3332363489874233,0.0,0.0,0.08277678,0.29099403,9.77377167,0.002342,-0.002771,0.003194
5.096030000015162,5.096030000015162,0.0,0.0,2.333317324836818,0.0,0.0,0.09086022,0.28261629,9.78919299,0.002643,-0.005412,0.00409
5.116015000035986,5.116015000035986,0.0,0.0,2.333393470553127,0.0,0.0,0.07693983,0.29383893,9.77437008,0.001399,-0.003001,0.003813
5.135998999932781,5.135998999932781,0.0,0.0,2.333502391182301,0.0,0.0,0.09669717,0.28709946,9.76120506,0.002213,-0.005806,0.005663
5.155983999953605,5.155983999953605,0.0,0.0,2.3336002749159377,0.0,0.0,0.06556023,0.28006569,9.76300029,0.002912,-0.003157,0.00501
5.175967999966815,5.175967999966815,0.0,0.0,2.3336871183470507,0.0,0.0,0.08576883,0.3008727,9.76554108,0.003724,-0.002544,0.004369
5.1959529999876395,5.1959529999876395,0.0,0.0,2.3337813252910387,0.0,0.0,0.10896948,0.2832147,9.77706783,0.003603,-0.001926,0.004784
5.215937000000849,5.215937000000849,0.0,0.0,2.3338722901814286,0.0,0.0,0.07529175,0.28994436,9.763893,0.00288,-0.003127,0.00459
5.235922000021674,5.235922000021674,0.0,0.0,2.3339524075405826,0.0,0.0,0.08876088,0.29608542,9.78110955,0.003061,-0.004242,0.003966
5.255906000034884,5.255906000034884,0.0,0.0,2.334043905601594,0.0,0.0,0.08846658,0.27737775,9.77572386,0.003076,-0.002949,0.004622
5.275890999939293,5.275890999939293,0.0,0.0,2.334159293399212,0.0,0.0,0.09116433,0.30132396,9.74848149,0.002265,-0.004357,0.005981
5.2958749999525025,5.2958749999525025,0.0,0.0,2.3342524760668057,0.0,0.0,0.08457201,0.28755072,9.74997261,0.002972,0.000118,0.004681
5.315859999973327,5.315859999973327,0.0,0.0,2.3343253837625957,0.0,0.0,0.0984924,0.28201788,9.77137803,0.003619,-0.004224,0.003517
5.335842999978922,5.335842999978922,0.0,0.0,2.334416252152712,0.0,0.0,0.08696565,0.27437589,9.76793472,0.00232,-0.002446,0.004566
5.355829000007361,5.355829000007361,0.0,0.0,2.3345180437861464,0.0,0.0,0.09295956,0.29668383,9.7695828,0.003318,-0.003675,0.005189
5.375813000020571,5.375813000020571,0.0,0.0,2.3346200718348538,0.0,0.0,0.08547453,0.27767205,9.76314744,0.003318,-0.003675,0.005189
5.395798000041395,5.395798000041395,0.0,0.0,2.334706123114855,0.0,0.0,0.08023599,0.28381311,9.75132639,0.002567,-0.002471,0.004259
5.435766999959014,5.435766999959014,0.0,0.0,2.334861879403208,0.0,0.0,0.08532738,0.28291059,9.75207195,0.003562,-0.001467,0.003175
5.435766999959014,5.435766999959014,0.0,0.0,2.334841708575473,0.0,0.0,0.08532738,0.28291059,9.75207195,0.003562,-0.001467,0.003175
5.475735999993049,5.475735999993049,0.0,0.0,2.3350296176984022,0.0,0.0,0.07574301,0.28500993,9.75970413,0.003621,-0.000138,0.005245
5.475735999993049,5.475735999993049,0.0,0.0,2.3350441125020485,0.0,0.0,0.07574301,0.28500993,9.75970413,0.003621,-0.000138,0.005245
5.515705000027083,5.515705000027083,0.0,0.0,2.3352163441652642,0.0,0.0,0.09205704,0.28845324,9.77032836,0.003351,-0.002753,0.004115
5.515705000027083,5.515705000027083,0.0,0.0,2.335211354336888,0.0,0.0,0.09205704,0.28845324,9.77032836,0.003351,-0.002753,0.004115
5.555673999944702,5.555673999944702,0.0,0.0,2.3353854362825883,0.0,0.0,0.08277678,0.29922462,9.76704201,0.003162,-0.003501,0.004319
5.555673999944702,5.555673999944702,0.0,0.0,2.335384526415498,0.0,0.0,0.08277678,0.29922462,9.76704201,0.003162,-0.003501,0.004319
5.5956419999711215,5.5956419999711215,0.0,0.0,2.3355136745065135,0.0,0.0,0.08622009,0.29443734,9.76209777,0.001744,-0.00411,0.001829
5.615625999984331,5.615625999984331,0.0,0.0,2.335622727729853,0.0,0.0,0.08592579,0.29010132,9.77347737,0.002695,-0.001347,0.00563
5.635611000005156,5.635611000005156,0.0,0.0,2.3356693199622702,0.0,0.0,0.09580446,0.28709946,9.7721334,0.003427,-0.003483,0.002097
5.635611000005156,5.635611000005156,0.0,0.0,2.3356404151855923,0.0,0.0,0.09580446,0.28709946,9.7721334,0.003427,-0.003483,0.002097
5.67558000003919,5.67558000003919,0.0,0.0,2.3357919331200208,0.0,0.0,0.08861373,0.27961443,9.76554108,0.003123,-0.001019,0.003879
5.695563999935985,5.695563999935985,0.0,0.0,2.3358710130991263,0.0,0.0,0.08996751,0.28455867,9.76749327,0.002864,-0.002736,0.003986
5.715548999956809,5.715548999956809,0.0,0.0,2.335955816068271,0.0,0.0,0.09040896,0.28934595,9.764942670000002,0.002234,-0.00049,0.004307
5.735532999970019,5.735532999970019,0.0,0.0,2.3360562154097817,0.0,0.0,0.07574301,0.29069973,9.74982546,0.003216,-0.004677,0.005186
5.755517999990843,5.755517999990843,0.0,0.0,2.3361220322279284,0.0,0.0,0.08157996,0.28680516,9.77018121,0.001949,-0.002067,0.003191
5.775502000004053,5.775502000004053,0.0,0.0,2.3362375921820497,0.0,0.0,0.08667135,0.27542556,9.75671208,0.001876,-0.00384,0.006045
5.7954870000248775,5.7954870000248775,0.0,0.0,2.3363309271299535,0.0,0.0,0.09040896,0.29010132,9.76314744,0.004437,-0.002166,0.004737
5.815471000038087,5.815471000038087,0.0,0.0,2.3364130093308475,0.0,0.0,0.09026181,0.2894931,9.76838598,0.003576,-0.003311,0.004084
5.835455999942496,5.835455999942496,0.0,0.0,2.3364938134541022,0.0,0.0,0.07184844,0.28201788,9.77572386,0.003615,-0.002757,0.004014
5.855439999955706,5.855439999955706,0.0,0.0,2.3365875081231575,0.0,0.0,0.08248248,0.29429019,9.75341592,0.002842,-0.001417,0.004757
5.875424999976531,5.875424999976531,0.0,0.0,2.336678225107512,0.0,0.0,0.09176274,0.30101985,9.78350319,0.002421,-0.00387,0.004576
5.8954089999897406,5.8954089999897406,0.0,0.0,2.336765423623646,0.0,0.0,0.08277678,0.28381311,9.764795520000002,0.002061,-0.001946,0.004369
5.915394000010565,5.915394000010565,0.0,0.0,2.3368464735059042,0.0,0.0,0.07065162,0.28305774,9.765246780000002,0.003076,-0.005632,0.004015
5.935378000023775,5.935378000023775,0.0,0.0,2.336915277734265,0.0,0.0,0.08726976,0.29069973,9.76464837,0.003003,-0.000561,0.003318
5.955362999928184,5.955362999928184,0.0,0.0,2.336999480280486,0.0,0.0,0.09100737,0.28769787,9.7721334,0.002867,-0.002519,0.004221
5.975346999941394,5.975346999941394,0.0,0.0,2.337079888336259,0.0,0.0,0.08876088,0.27468,9.74458692,0.003761,-0.001147,0.004002
5.995331999962218,5.995331999962218,0.0,0.0,2.3371932210042274,0.0,0.0,0.0960987599999999,0.28530423,9.77273181,0.003151,-0.002705,0.005898
6.015315999975428,6.015315999975428,0.0,0.0,2.337275424799376,0.0,0.0,0.08906499,0.28725642,9.77347737,0.002555,-0.002553,0.004074
6.035300999996252,6.035300999996252,0.0,0.0,2.337412668846496,0.0,0.0,0.08023599,0.2894931,9.76180347,0.003111,-0.00269,0.007246
6.055285000009462,6.055285000009462,0.0,0.0,2.3374808580948665,0.0,0.0,0.08172711,0.2980278,9.75027672,0.003383,-0.003524,0.003216
6.075270000030287,6.075270000030287,0.0,0.0,2.337575593388083,0.0,0.0,0.08636724,0.26958861,9.75955698,0.00232,0.000392,0.004773
6.095253999927081,6.095253999927081,0.0,0.0,2.3376477559095186,0.0,0.0,0.0947547899999999,0.29997999,9.77077962,0.003194,-0.003445,0.003469
6.1152389999479055,6.1152389999479055,0.0,0.0,2.3377138020049477,0.0,0.0,0.06870924,0.28485297,9.75147354,0.003688,-0.000919,0.003138
6.15520799998194,6.15520799998194,0.0,0.0,2.33788798308497,0.0,0.0,0.08427771,0.27078543,9.77496849,0.00316,-0.002727,0.004479
6.15520799998194,6.15520799998194,0.0,0.0,2.3378913533970547,0.0,0.0,0.08427771,0.27078543,9.77496849,0.00316,-0.002727,0.004479
6.195177000015974,6.195177000015974,0.0,0.0,2.338081498485842,0.0,0.0,0.07978473,0.29144529,9.76823883,0.003111,-0.004295,0.005267
6.195177000015974,6.195177000015974,0.0,0.0,2.3380950485698264,0.0,0.0,0.07978473,0.29144529,9.76823883,0.003111,-0.004295,0.005267
6.235145999933593,6.235145999933593,0.0,0.0,2.338220209676699,0.0,0.0,0.10747836,0.29353482,9.77152518,0.001809,-0.003002,0.001475
6.255129999946803,6.255129999946803,0.0,0.0,2.3383231742545387,0.0,0.0,0.07858791,0.29922462,9.768690090000002,0.004159,0.000393,0.005249
6.275114999967627,6.275114999967627,0.0,0.0,2.3384373188303327,0.0,0.0,0.07320222,0.3037176,9.76240188,0.003134,0.000665,0.005855
6.275114999967627,6.275114999967627,0.0,0.0,2.3384591795218217,0.0,0.0,0.07320222,0.3037176,9.76240188,0.003134,0.000665,0.005855
6.3150840000016615,6.3150840000016615,0.0,0.0,2.338643240616209,0.0,0.0,0.05792805,0.27138384,9.77228055,0.002702,-2.1e-05,0.004547
6.335068000014871,6.335068000014871,0.0,0.0,2.3387792291954383,0.0,0.0,0.08921214,0.27932013,9.768690090000002,0.003712,-0.004861,0.007062
6.355053000035696,6.355053000035696,0.0,0.0,2.3388063476212313,0.0,0.0,0.0960987599999999,0.27857457,9.78320889,0.004006,-0.000671,0.000915
6.355053000035696,6.355053000035696,0.0,0.0,2.3387513894068555,0.0,0.0,0.0960987599999999,0.27857457,9.78320889,0.004006,-0.000671,0.000915
6.395021999953315,6.395021999953315,0.0,0.0,2.338978527402908,0.0,0.0,0.09759969,0.29353482,9.77496849,0.002626,-0.000432,0.007811
6.4150059999665245,6.4150059999665245,0.0,0.0,2.3390794888116595,0.0,0.0,0.07424208,0.29383893,9.77182929,0.002888,-0.001763,0.005123
6.434990999987349,6.434990999987349,0.0,0.0,2.3391463703442863,0.0,0.0,0.07648857,0.3167452799999999,9.79098822,0.002811,-0.001188,0.003175
6.434990999987349,6.434990999987349,0.0,0.0,2.3391271809561385,0.0,0.0,0.07648857,0.3167452799999999,9.79098822,0.002811,-0.001188,0.003175
6.474960000021383,6.474960000021383,0.0,0.0,2.3392974259325525,0.0,0.0,0.08188407,0.28276344,9.79413723,0.002127,-0.006558,0.004251
6.494944000034593,6.494944000034593,0.0,0.0,2.339340028806001,0.0,0.0,0.10927359,0.25506981,9.80296623,-0.000561,-0.006073,0.001825
6.514928999939002,6.514928999939002,0.0,0.0,2.3394638587944385,0.0,0.0,0.03427614,0.25896438,9.733207320000002,0.006633,-0.004872,0.006523
6.534912999952212,6.534912999952212,0.0,0.0,2.339552973301295,0.0,0.0,0.10088604,0.26255484,9.80909748,0.002894,0.005536,0.004485
6.534912999952212,6.534912999952212,0.0,0.0,2.339555681144873,0.0,0.0,0.10088604,0.26255484,9.80909748,0.002894,0.005536,0.004485
6.574881999986246,6.574881999986246,0.0,0.0,2.3397256696422355,0.0,0.0,0.06601149,0.2573163,9.71270442,0.001435,-0.002472,0.004153
6.594867000007071,6.594867000007071,0.0,0.0,2.3398030355314194,0.0,0.0,0.06825798,0.21479976,9.75116943,0.001051,-0.012819,0.003806
6.6148510000202805,6.6148510000202805,0.0,0.0,2.339876377286025,0.0,0.0,0.09236115,0.1986328799999999,9.74503818,0.000996,-0.004796,0.003585
6.634836000041105,6.634836000041105,0.0,0.0,2.3399556650170243,0.0,0.0,0.08471916,0.24892875,9.73530666,0.002392,-0.008766,0.00394
6.674804999958724,6.674804999958724,0.0,0.0,2.340117341069523,0.0,0.0,0.07603731,0.29429019,9.74219328,0.002663,0.000819,0.003963
6.674804999958724,6.674804999958724,0.0,0.0,2.340115053697531,0.0,0.0,0.07603731,0.29429019,9.74219328,0.002663,0.000819,0.003963
6.714773999992758,6.714773999992758,0.0,0.0,2.340256069464096,0.0,0.0,0.10059174,0.27063828,9.79712928,0.004926,0.004192,0.002908
6.714773999992758,6.714773999992758,0.0,0.0,2.3402395483793423,0.0,0.0,0.10059174,0.27063828,9.79712928,0.004926,0.004192,0.002908
6.754743000026792,6.754743000026792,0.0,0.0,2.3403970253116935,0.0,0.0,0.08172711,0.24339591,9.78500412,0.004242,-0.002872,0.004121
6.754743000026792,6.754743000026792,0.0,0.0,2.340401677495869,0.0,0.0,0.08172711,0.24339591,9.78500412,0.004242,-0.002872,0.004121
6.794711999944411,6.794711999944411,0.0,0.0,2.3405476411269897,0.0,0.0,0.07993188,0.26689086,9.74398851,0.003532,-0.00264,0.003391
6.794711999944411,6.794711999944411,0.0,0.0,2.340541122335015,0.0,0.0,0.07993188,0.26689086,9.74398851,0.003532,-0.00264,0.003391
6.8346809999784455,6.8346809999784455,0.0,0.0,2.3406524363872876,0.0,0.0,0.10972485,0.30775932,9.80775351,0.000735,-0.005256,0.001596
6.8346809999784455,6.8346809999784455,0.0,0.0,2.3406233764530775,0.0,0.0,0.10972485,0.30775932,9.80775351,0.000735,-0.005256,0.001596
6.8346809999784455,6.8346809999784455,0.0,0.0,2.340600701657502,0.0,0.0,0.10972485,0.30775932,9.80775351,0.000735,-0.005256,0.001596
6.87465000001248,6.87465000001248,0.0,0.0,2.3407149794726037,0.0,0.0,0.07380063,0.41404086,9.75880161,0.002693,-0.001167,0.002587
6.914618999930099,6.914618999930099,0.0,0.0,2.341063572135999,0.0,0.0,0.0173637,0.45250587,9.75072798,0.002623,0.000142,0.015658
6.914618999930099,6.914618999930099,0.0,0.0,2.34123472205754,0.0,0.0,0.0173637,0.45250587,9.75072798,0.002623,0.000142,0.015658
6.954587999964133,6.954587999964133,0.0,0.0,2.3413235997949577,0.0,0.0,0.09100737,0.33050871,9.75656493,0.000839,-0.007084,-0.002686
6.974572999984957,6.974572999984957,0.0,0.0,2.3414291901612145,0.0,0.0,0.04535163,0.27377748,9.74114361,0.002709,-0.002644,0.005326
6.994556999998167,6.994556999998167,0.0,0.0,2.341543987650679,0.0,0.0,0.12693159,0.21644784,9.78725061,0.003078,-0.006948,0.005838
7.0145420000189915,7.0145420000189915,0.0,0.0,2.3417194939305563,0.0,0.0,0.01526436,0.2399526,9.72003249,0.00261,0.002452,0.009246
7.034526000032201,7.034526000032201,0.0,0.0,2.3418909387930364,0.0,0.0,0.14594337,0.22378572,9.80057259,0.000614,-0.003978,0.008954
7.0545109999366105,7.0545109999366105,0.0,0.0,2.342016057333497,0.0,0.0,0.06406911,0.25072398,9.7607538,0.001195,-0.001535,0.00628
7.07449499994982,7.07449499994982,0.0,0.0,2.342095064290689,0.0,0.0,0.0808344,0.26210358,9.77541975,0.003769,-0.003095,0.003662
7.094479999970645,7.094479999970645,0.0,0.0,2.342211833179488,0.0,0.0,0.1215459,0.28381311,9.76180347,0.0021,-0.004134,0.005848
7.114463999983855,7.114463999983855,0.0,0.0,2.342288994133937,0.0,0.0,0.07020036,0.30101985,9.7493742,0.004817,-0.000317,0.003593
7.134449000004679,7.134449000004679,0.0,0.0,2.3423509564375706,0.0,0.0,0.10568313,0.33514884,9.77182929,0.002381,-0.00178,0.002764
7.154433000017889,7.154433000017889,0.0,0.0,2.3424405273814095,0.0,0.0,0.08951625,0.3445860599999999,9.76030254,0.002443,-0.001328,0.004388
7.174418000038713,7.174418000038713,0.0,0.0,2.3424812585381485,0.0,0.0,0.0947547899999999,0.34593003,9.75865446,0.004306,-0.000209,0.00161
7.194401999935508,7.194401999935508,0.0,0.0,2.3425548889675643,0.0,0.0,0.10358379,0.31419468,9.78739776,0.002983,-0.004023,0.003554
7.214386999956332,7.214386999956332,0.0,0.0,2.342632193083489,0.0,0.0,0.06646275,0.24983127,9.76823883,0.004679,-0.000617,0.003783
7.234370999969542,7.234370999969542,0.0,0.0,2.342732170509315,0.0,0.0,0.08801532,0.20223315,9.77317326,0.003997,-0.002279,0.005095
7.254355999990366,7.254355999990366,0.0,0.0,2.3429305070786137,0.0,0.0,0.0811287,0.21435831,9.75910572,0.003118,0.001551,0.010722
7.274340000003576,7.274340000003576,0.0,0.0,2.3430355943048475,0.0,0.0,0.09265545,0.25985709,9.75011976,0.002759,0.003255,0.005254
7.294325000024401,7.294325000024401,0.0,0.0,2.343057126358774,0.0,0.0,0.09655002,0.28620675,9.76345155,0.005011,0.002162,0.000457
7.33429399994202,7.33429399994202,0.0,0.0,2.3432720892631984,0.0,0.0,0.09445068,0.27168795,9.76000824,0.002523,-0.003471,0.006155
7.354278999962844,7.354278999962844,0.0,0.0,2.3433271326857428,0.0,0.0,0.09490194,0.29952873,9.75805605,0.005479,-0.000829,0.002657
7.354278999962844,7.354278999962844,0.0,0.0,2.3432954249229816,0.0,0.0,0.09490194,0.29952873,9.75805605,0.005479,-0.000829,0.002657
7.394247999996878,7.394247999996878,0.0,0.0,2.3434643633308383,0.0,0.0,0.10088604,0.30357045,9.76898439,0.003494,-0.00279,0.004124
7.394247999996878,7.394247999996878,0.0,0.0,2.3434616650102953,0.0,0.0,0.10088604,0.30357045,9.76898439,0.003494,-0.00279,0.004124
7.4342170000309125,7.4342170000309125,0.0,0.0,2.3436219925396413,0.0,0.0,0.07948062,0.28860039,9.78500412,0.002646,-0.000765,0.003706
7.4342170000309125,7.4342170000309125,0.0,0.0,2.3436142433524374,0.0,0.0,0.07948062,0.28860039,9.78500412,0.002646,-0.000765,0.003706
7.454200999927707,7.454200999927707,0.0,0.0,2.343713727869475,0.0,0.0,0.09984618,0.2948886,9.77362452,0.001591,-0.000673,0.005178
7.494169999961741,7.494169999961741,0.0,0.0,2.3439123515124702,0.0,0.0,0.09370512,0.29114118,9.76300029,0.003241,-0.000112,0.005818
7.514154999982566,7.514154999982566,0.0,0.0,2.344029909247511,0.0,0.0,0.08981055,0.27977139,9.77092677,0.001864,-0.000294,0.006029
7.5341389999957755,7.5341389999957755,0.0,0.0,2.344112666415704,0.0,0.0,0.07035732,0.29069973,9.77287896,0.003589,-0.000496,0.00408
7.5541240000166,7.5541240000166,0.0,0.0,2.3442048391257924,0.0,0.0,0.09624591,0.27317907,9.78201207,0.002433,-0.000533,0.004612
7.57410800002981,7.57410800002981,0.0,0.0,2.344289969632608,0.0,0.0,0.08576883,0.27258066,9.77512545,0.001837,-0.002113,0.004218
7.594093999941833,7.594093999941833,0.0,0.0,2.3443723646616617,0.0,0.0,0.09190989,0.2749743,9.764942670000002,0.00522,0.000594,0.004069
7.614077999955043,7.614077999955043,0.0,0.0,2.3444745766612467,0.0,0.0,0.0956475,0.28201788,9.77317326,0.001666,-0.001971,0.005193
7.634062999975868,7.634062999975868,0.0,0.0,2.3445524614376136,0.0,0.0,0.08517042,0.28291059,9.78679935,0.004549,-0.000265,0.003808
7.6540469999890774,7.6540469999890774,0.0,0.0,2.344627502886948,0.0,0.0,0.10059174,0.27961443,9.76704201,0.00254,-0.002091,0.003659
7.674032000009902,7.674032000009902,0.0,0.0,2.3447218231564406,0.0,0.0,0.09520605,0.29369178,9.76733631,0.003206,-0.00157,0.004766
7.694016000023112,7.694016000023112,0.0,0.0,2.3447704972503765,0.0,0.0,0.09160578,0.27513126,9.77228055,0.001274,-0.00047,0.002164
7.714000999927521,7.714000999927521,0.0,0.0,2.344840809042905,0.0,0.0,0.09430353,0.29173959,9.77737194,0.002853,-0.002535,0.003434
7.733984999940731,7.733984999940731,0.0,0.0,2.3449247576340877,0.0,0.0,0.09370512,0.28365615,9.75341592,0.003486,0.001258,0.004224
7.733984999940731,7.733984999940731,0.0,0.0,2.344927296577379,0.0,0.0,0.09370512,0.28365615,9.75341592,0.003486,0.001258,0.004224
7.773953999974765,7.773953999974765,0.0,0.0,2.3450581617458965,0.0,0.0,0.08996751,0.28141947,9.78170796,0.002962,-0.001312,0.002232
7.793938999995589,7.793938999995589,0.0,0.0,2.3451762959316733,0.0,0.0,0.08232552,0.29129814,9.76764042,0.001292,-0.002856,0.006218
7.813924000016414,7.813924000016414,0.0,0.0,2.3452634491074953,0.0,0.0,0.07589016,0.28156662,9.76030254,0.003891,-0.001683,0.004392
7.8339080000296235,7.8339080000296235,0.0,0.0,2.3453543020495164,0.0,0.0,0.0865242,0.28141947,9.76883724,0.002776,-0.000299,0.0046
7.853892999934033,7.853892999934033,0.0,0.0,2.345450070398119,0.0,0.0,0.09504909,0.28455867,9.76554108,0.003276,-0.002981,0.004874
7.873876999947242,7.873876999947242,0.0,0.0,2.3455066497940846,0.0,0.0,0.09774684,0.28500993,9.75671208,0.002543,0.000339,0.00261
7.893861999968067,7.893861999968067,0.0,0.0,2.3456090198119632,0.0,0.0,0.0836793,0.29114118,9.76269618,0.003255,-0.000763,0.005275
7.933831000002101,7.933831000002101,0.0,0.0,2.345783589284153,0.0,0.0,0.10478061,0.28590264,9.74743182,0.001358,-0.001694,0.004491
7.953815000015311,7.953815000015311,0.0,0.0,2.345868362868769,0.0,0.0,0.07858791,0.28381311,9.75910572,0.004687,0.000473,0.00424
7.953815000015311,7.953815000015311,0.0,0.0,2.3458676904351403,0.0,0.0,0.07858791,0.28381311,9.75910572,0.004687,0.000473,0.00424
7.99378399993293,7.99378399993293,0.0,0.0,2.346029989533406,0.0,0.0,0.08876088,0.28425456,9.77617512,0.003973,5e-05,0.003815
8.013768999953754,8.013768999953754,0.0,0.0,2.3461111325342845,0.0,0.0,0.08786817,0.28695231,9.77137803,0.002977,-0.000794,0.004048
8.033752999966964,8.033752999966964,0.0,0.0,2.3462158081302125,0.0,0.0,0.08023599,0.2806641,9.77437008,0.004715,-0.002064,0.005332
8.053737999987788,8.053737999987788,0.0,0.0,2.346282727300621,0.0,0.0,0.10717425,0.29458449,9.78620094,0.003585,-0.001051,0.003252
8.073722000000998,8.073722000000998,0.0,0.0,2.346367721438619,0.0,0.0,0.09310671,0.29369178,9.77287896,0.001908,-0.001314,0.004259
8.093707000021823,8.093707000021823,0.0,0.0,2.3464319376340628,0.0,0.0,0.09176274,0.27003987,9.7838073,0.004727,3.2e-05,0.003105
8.113691000035033,8.113691000035033,0.0,0.0,2.346499275114722,0.0,0.0,0.09026181,0.28381311,9.7869465,0.000305,0.000272,0.003291
8.133675999939442,8.133675999939442,0.0,0.0,2.3465800300925403,0.0,0.0,0.08861373,0.28276344,9.77976558,0.003197,-0.002739,0.004051
8.153660999960266,8.153660999960266,0.0,0.0,2.3466633873960827,0.0,0.0,0.09295956,0.28381311,9.77601816,0.002218,-0.000648,0.004196
8.173644999973476,8.173644999973476,0.0,0.0,2.346741686691768,0.0,0.0,0.08128566,0.27393444,9.78185511,0.00365,-0.002813,0.003908
8.1936299999943,8.1936299999943,0.0,0.0,2.346847971138958,0.0,0.0,0.07244685,0.28231218,9.77976558,0.001707,-0.000726,0.005491
8.21361400000751,8.21361400000751,0.0,0.0,2.3469312339106683,0.0,0.0,0.08203122,0.27632808,9.74862864,0.002083,-0.001001,0.004164
8.233599000028335,8.233599000028335,0.0,0.0,2.347030431267193,0.0,0.0,0.0953532,0.27901602,9.78649524,0.003532,-0.002024,0.005069
8.253583000041544,8.253583000041544,0.0,0.0,2.3470966233952364,0.0,0.0,0.08906499,0.28740357,9.76164651,0.003037,-0.001379,0.003177
8.273567999945953,8.273567999945953,0.0,0.0,2.3471775113193605,0.0,0.0,0.08502327,0.29788065,9.77317326,0.006095,-0.002042,0.004033
8.293551999959163,8.293551999959163,0.0,0.0,2.3472637563213183,0.0,0.0,0.08471916,0.27138384,9.79053696,0.000798,6.7e-05,0.004341
8.313536999979988,8.313536999979988,0.0,0.0,2.347352623175823,0.0,0.0,0.09954207,0.28006569,9.75656493,0.00517,-0.00156,0.004487
8.333520999993198,8.333520999993198,0.0,0.0,2.347449645083352,0.0,0.0,0.10747836,0.29847906,9.77257485,0.00221,-0.000637,0.004948
8.353506000014022,8.353506000014022,0.0,0.0,2.347525617337997,0.0,0.0,0.08816247,0.27977139,9.77362452,0.003926,-0.001856,0.003729
8.373490000027232,8.373490000027232,0.0,0.0,2.347602431300329,0.0,0.0,0.08981055,0.29683098,9.77018121,0.002458,0.000341,0.003788
8.393474999931641,8.393474999931641,0.0,0.0,2.347676718597385,0.0,0.0,0.0981981,0.28396026,9.76284333,0.00289,-0.002129,0.003651
8.41345899994485,8.41345899994485,0.0,0.0,2.347748497600043,0.0,0.0,0.07603731,0.28575549,9.78440571,0.003785,0.000996,0.003517
8.433443999965675,8.433443999965675,0.0,0.0,2.3478752267897667,0.0,0.0,0.08562168,0.28650105,9.77063247,0.000697,-0.001243,0.006683
8.4534289999865,8.4534289999865,0.0,0.0,2.3479514498815925,0.0,0.0,0.0782838,0.28096821,9.76613949,0.003678,0.000584,0.003731
8.47341299999971,8.47341299999971,0.0,0.0,2.3480139516982668,0.0,0.0,0.10568313,0.29114118,9.7579089,0.003266,0.000237,0.002955
8.493398000020534,8.493398000020534,0.0,0.0,2.348101944781046,0.0,0.0,0.09190989,0.27647523,9.78005988,0.003111,-0.00221,0.004446
8.513382000033744,8.513382000033744,0.0,0.0,2.3481682404665154,0.0,0.0,0.08951625,0.2863539,9.76419711,0.002278,0.001295,0.003192
8.533366999938153,8.533366999938153,0.0,0.0,2.3482567256887155,0.0,0.0,0.09714843,0.28725642,9.793087560000002,0.002246,-0.001576,0.004487
8.553350999951363,8.553350999951363,0.0,0.0,2.3483312321272223,0.0,0.0,0.10164141,0.2891988,9.79892451,0.003107,-0.001746,0.003674
8.573335999972187,8.573335999972187,0.0,0.0,2.3484063307156857,0.0,0.0,0.0953532,0.28381311,9.75910572,0.002422,-0.000913,0.003716
8.593318999977782,8.593318999977782,0.0,0.0,2.3484782894956044,0.0,0.0,0.08741691,0.29847906,9.78679935,0.004733,-0.000591,0.003542
8.613303999998607,8.613303999998607,0.0,0.0,2.3485540274792864,0.0,0.0,0.08801532,0.26539974,9.78141366,0.001455,-0.000192,0.003768
8.633288000011817,8.633288000011817,0.0,0.0,2.3486323618897638,0.0,0.0,0.10912644,0.30536568,9.77032836,0.003975,-0.002236,0.003921
8.633288000011817,8.633288000011817,0.0,0.0,2.3486324782717887,0.0,0.0,0.10912644,0.30536568,9.77032836,0.003975,-0.002236,0.003921
8.673256999929436,8.673256999929436,0.0,0.0,2.348779429285421,0.0,0.0,0.09580446,0.28126251,9.79937577,0.003542,0.000664,0.003365
8.69324199995026,8.69324199995026,0.0,0.0,2.3488700715474673,0.0,0.0,0.08532738,0.2920437,9.764795520000002,0.002895,-0.001155,0.004643
8.733210999984294,8.733210999984294,0.0,0.0,2.349032463714357,0.0,0.0,0.09355797,0.28515708,9.79353882,0.003662,0.000456,0.004186
8.753196000005119,8.753196000005119,0.0,0.0,2.3491352891780926,0.0,0.0,0.0925083,0.27393444,9.76733631,0.000676,-0.000498,0.005201
8.753196000005119,8.753196000005119,0.0,0.0,2.349152658414109,0.0,0.0,0.0925083,0.27393444,9.76733631,0.000676,-0.000498,0.005201
8.793165000039153,8.793165000039153,0.0,0.0,2.349278266239949,0.0,0.0,0.09205704,0.28785483,9.76044969,0.004149,-0.002174,0.001826
8.813148999935947,8.813148999935947,0.0,0.0,2.349358589832115,0.0,0.0,0.0953532,0.28785483,9.7721334,0.002587,-0.001805,0.004026
8.833133999956772,8.833133999956772,0.0,0.0,2.3494483636228702,0.0,0.0,0.08607294,0.28051695,9.764942670000002,0.002483,0.001005,0.004541
8.833133999956772,8.833133999956772,0.0,0.0,2.34945655280751,0.0,0.0,0.08607294,0.28051695,9.764942670000002,0.002483,0.001005,0.004541
8.873102999990806,8.873102999990806,0.0,0.0,2.3496196837397374,0.0,0.0,0.08831943,0.28800198,9.78170796,0.00325,-0.001656,0.004066
8.893087000004016,8.893087000004016,0.0,0.0,2.3497301222441145,0.0,0.0,0.09131148,0.28874754,9.76584519,0.002324,-2.1e-05,0.005688
8.91307200002484,8.91307200002484,0.0,0.0,2.349804554624191,0.0,0.0,0.08891784,0.28800198,9.7838073,0.004119,-0.001749,0.003656
8.93305600003805,8.93305600003805,0.0,0.0,2.3499089974063807,0.0,0.0,0.07933347,0.28905165,9.7781175,0.001848,1e-05,0.005348
8.95304099994246,8.95304099994246,0.0,0.0,2.3499823692631576,0.0,0.0,0.08607294,0.28769787,9.77797035,0.004302,-0.001287,0.003584
8.973024999955669,8.973024999955669,0.0,0.0,2.350056335164915,0.0,0.0,0.08996751,0.29278926,9.79143948,0.003917,0.000799,0.003629
8.993009999976493,8.993009999976493,0.0,0.0,2.350127009145929,0.0,0.0,0.08277678,0.28785483,9.75776175,0.003295,-0.001653,0.003452
9.012994999997318,9.012994999997318,0.0,0.0,2.350216811827223,0.0,0.0,0.09999333,0.27946728,9.79084107,0.002909,-0.000731,0.004548
9.032979000010528,9.032979000010528,0.0,0.0,2.3502946498920707,0.0,0.0,0.07619427,0.28126251,9.77946147,0.002137,0.000206,0.003861
9.052964000031352,9.052964000031352,0.0,0.0,2.3503652769804386,0.0,0.0,0.08906499,0.28814913,9.763893,0.004845,-0.000541,0.003455
9.072947999928147,9.072947999928147,0.0,0.0,2.3504435299955144,0.0,0.0,0.09595161,0.28171377,9.77856876,0.001104,9e-05,0.003901
9.092932999948971,9.092932999948971,0.0,0.0,2.3505501279051346,0.0,0.0,0.07708698,0.28425456,9.7752726,0.003548,-0.001387,0.005521
9.11291699996218,9.11291699996218,0.0,0.0,2.350640968927401,0.0,0.0,0.09759969,0.28680516,9.75372003,0.004065,0.00017,0.004594
9.132901999983005,9.132901999983005,0.0,0.0,2.3507421596905136,0.0,0.0,0.0868185,0.28979721,9.76898439,0.004057,-0.001086,0.005179
9.152885999996215,9.152885999996215,0.0,0.0,2.3508120681389872,0.0,0.0,0.09190989,0.27991854,9.76404996,0.003424,0.0001,0.003371
9.17287100001704,9.17287100001704,0.0,0.0,2.3509174943649525,0.0,0.0,0.08532738,0.28425456,9.76883724,0.001796,-0.001514,0.005425
9.19285500003025,9.19285500003025,0.0,0.0,2.351014197039822,0.0,0.0,0.0865242,0.29353482,9.76195062,0.004821,-0.000108,0.004903
9.212839999934658,9.212839999934658,0.0,0.0,2.3511326216926047,0.0,0.0,0.09864936,0.28156662,9.78290478,0.001838,0.000693,0.00614
9.232823999947868,9.232823999947868,0.0,0.0,2.3512120611153247,0.0,0.0,0.08471916,0.29593827,9.77123088,0.003743,0.000497,0.00387
9.252808999968693,9.252808999968693,0.0,0.0,2.3512695280025504,0.0,0.0,0.08532738,0.30042144,9.76913154,0.003605,0.001096,0.002623
9.292778000002727,9.292778000002727,0.0,0.0,2.3514378282145785,0.0,0.0,0.09056592,0.29219085,9.78904584,0.004224,-0.000461,0.004092
9.292778000002727,9.292778000002727,0.0,0.0,2.3514345122386544,0.0,0.0,0.09056592,0.29219085,9.78904584,0.004224,-0.000461,0.004092
9.332747000036761,9.332747000036761,0.0,0.0,2.351602855792578,0.0,0.0,0.08636724,0.2894931,9.76809168,0.004774,-0.001591,0.004154
9.35273199994117,9.35273199994117,0.0,0.0,2.351709269408751,0.0,0.0,0.09086022,0.28650105,9.76464837,0.001389,0.000622,0.005402
9.35273199994117,9.35273199994117,0.0,0.0,2.3517254854857175,0.0,0.0,0.09086022,0.28650105,9.76464837,0.001389,0.000622,0.005402
9.392700999975204,9.392700999975204,0.0,0.0,2.351897999626427,0.0,0.0,0.09714843,0.29144529,9.75656493,0.003711,0.00211,0.00406
9.412684999988414,9.412684999988414,0.0,0.0,2.351966432918056,0.0,0.0,0.09415638,0.28845324,9.77362452,0.002512,-0.003,0.003321
9.432670000009239,9.432670000009239,0.0,0.0,2.3520541552288545,0.0,0.0,0.08547453,0.28455867,9.77931432,0.003145,-0.000256,0.004398
9.452654000022449,9.452654000022449,0.0,0.0,2.352150202765978,0.0,0.0,0.09295956,0.29847906,9.76030254,0.002446,-0.002932,0.00486
9.472638999926858,9.472638999926858,0.0,0.0,2.352214922200334,0.0,0.0,0.08876088,0.27692649,9.7664436,0.003343,0.000527,0.003105
9.492622999940068,9.492622999940068,0.0,0.0,2.352288725381136,0.0,0.0,0.08951625,0.28665801,9.77737194,0.001796,3e-06,0.00363
9.512607999960892,9.512607999960892,0.0,0.0,2.352389979924114,0.0,0.0,0.0836793,0.2749743,9.78261048,0.004137,-0.002269,0.005181
9.532592999981716,9.532592999981716,0.0,0.0,2.352475266720128,0.0,0.0,0.07574301,0.29099403,9.77737194,0.002373,-0.000124,0.004266
9.552576999994926,9.552576999994926,0.0,0.0,2.352562650044817,0.0,0.0,0.09700128,0.29383893,9.75895857,0.003862,-0.003482,0.004385
9.57256200001575,9.57256200001575,0.0,0.0,2.3526280673346793,0.0,0.0,0.08951625,0.26435007,9.77826465,0.004194,1.4e-05,0.003138
9.59254600002896,9.59254600002896,0.0,0.0,2.3527053770795643,0.0,0.0,0.09040896,0.29967588,9.764491410000002,0.001217,-0.003467,0.003832
9.612531999940984,9.612531999940984,0.0,0.0,2.3527940994618426,0.0,0.0,0.09430353,0.28725642,9.76749327,0.004421,0.000567,0.004486
9.632515999954194,9.632515999954194,0.0,0.0,2.352859891755662,0.0,0.0,0.09520605,0.27437589,9.76584519,0.002168,-0.000268,0.003173
9.652500999975018,9.652500999975018,0.0,0.0,2.352983069218043,0.0,0.0,0.08726976,0.27303192,9.77092677,0.003771,-0.000749,0.006465
9.672484999988228,9.672484999988228,0.0,0.0,2.3530668159341834,0.0,0.0,0.09011466,0.30416886,9.75910572,0.002794,-0.001814,0.004169
9.692470000009052,9.692470000009052,0.0,0.0,2.353151141908757,0.0,0.0,0.08981055,0.28575549,9.76793472,0.00496,-0.000459,0.004205
9.712454000022262,9.712454000022262,0.0,0.0,2.353199576324,0.0,0.0,0.09490194,0.28500993,9.75940983,0.003869,0.001068,0.002152
9.732438999926671,9.732438999926671,0.0,0.0,2.3533117450978285,0.0,0.0,0.09430353,0.27408159,9.76838598,0.001114,-0.002052,0.005844
9.752422999939881,9.752422999939881,0.0,0.0,2.353394579348471,0.0,0.0,0.08741691,0.2920437,9.76044969,0.004788,-0.001892,0.004128
9.772407999960706,9.772407999960706,0.0,0.0,2.353480841807319,0.0,0.0,0.10238697,0.29084688,9.77287896,0.002434,-0.000704,0.004327
9.792391999973916,9.792391999973916,0.0,0.0,2.3535801191594565,0.0,0.0,0.10283823,0.28365615,9.78141366,0.003392,3e-06,0.005073
9.81237699999474,9.81237699999474,0.0,0.0,2.353658174167794,0.0,0.0,0.09011466,0.28740357,9.77048532,0.002215,-0.000364,0.003838
9.832362000015564,9.832362000015564,0.0,0.0,2.353743919001859,0.0,0.0,0.08562168,0.29353482,9.77108373,0.004236,-0.000263,0.00429
9.852346000028774,9.852346000028774,0.0,0.0,2.353807185815878,0.0,0.0,0.09160578,0.27468,9.79398027,0.001339,0.000789,0.002998
9.872330999933183,9.872330999933183,0.0,0.0,2.353907944537271,0.0,0.0,0.08622009,0.2863539,9.76508982,0.003445,-0.001625,0.005179
9.912299999967217,9.912299999967217,0.0,0.0,2.354073490490401,0.0,0.0,0.08471916,0.28845324,9.78395445,0.001857,-0.002465,0.004014
9.912299999967217,9.912299999967217,0.0,0.0,2.354069926343019,0.0,0.0,0.08471916,0.28845324,9.78395445,0.001857,-0.002465,0.004014
9.932282999972813,9.932282999972813,0.0,0.0,2.3541727118996665,0.0,0.0,0.07933347,0.29548701,9.77677353,0.004127,-0.000985,0.005315
9.952269000001252,9.952269000001252,0.0,0.0,2.3542439333720244,0.0,0.0,0.08981055,0.29742939,9.77333022,0.002596,-0.000113,0.003425
9.972253000014462,9.972253000014462,0.0,0.0,2.3543145987767975,0.0,0.0,0.09026181,0.283509,9.78215922,0.003153,-0.003243,0.003416
9.992238000035286,9.992238000035286,0.0,0.0,2.3543830519587132,0.0,0.0,0.08741691,0.27557271,9.76913154,0.001356,0.001182,0.003306
10.01222199993208,10.01222199993208,0.0,0.0,2.3544510279672313,0.0,0.0,0.0925083,0.29503575,9.76659075,0.003047,-0.001271,0.003298
10.032206999952905,10.032206999952905,0.0,0.0,2.354529177949667,0.0,0.0,0.08517042,0.28410741,9.77003406,0.003523,-0.000472,0.003909
10.072174999979325,10.072174999979325,0.0,0.0,2.354671943132887,0.0,0.0,0.09894366,0.29324052,9.7547697,0.004282,-0.000296,0.003194
10.072174999979325,10.072174999979325,0.0,0.0,2.354661647023768,0.0,0.0,0.09894366,0.29324052,9.7547697,0.004282,-0.000296,0.003194
10.092161000007764,10.092161000007764,0.0,0.0,2.3547473870923152,0.0,0.0,0.0953532,0.28410741,9.78470001,0.00105,-0.000946,0.004398
10.092161000007764,10.092161000007764,0.0,0.0,2.3547559805964475,0.0,0.0,0.0953532,0.28410741,9.78470001,0.00105,-0.000946,0.004398
10.112145000020973,10.112145000020973,0.0,0.0,2.35485846841215,0.0,0.0,0.08772102,0.28245933,9.75985128,0.004102,-0.000999,0.005532
10.132130000041798,10.132130000041798,0.0,0.0,2.354920500569463,0.0,0.0,0.09879651,0.29593827,9.76628664,0.001684,-0.001004,0.002808
10.172098999959417,10.172098999959417,0.0,0.0,2.355084344985494,0.0,0.0,0.09176274,0.28845324,9.77108373,0.003225,0.000916,0.004326
10.192082999972627,10.192082999972627,0.0,0.0,2.355158370277345,0.0,0.0,0.11241279,0.28470582,9.76434426,0.001779,0.000779,0.003663
10.212067999993451,10.212067999993451,0.0,0.0,2.355257579740341,0.0,0.0,0.09220419,0.28291059,9.77392863,0.00362,0.003531,0.005117
10.272021999931894,10.272021999931894,0.0,0.0,2.3555160759818525,0.0,0.0,0.06481467,0.29159244,9.7721334,0.002678,0.001888,0.004699
10.292005999945104,10.292005999945104,0.0,0.0,2.355621545926149,0.0,0.0,0.11047041,0.28740357,9.76733631,0.002132,-0.001776,0.005235
10.311990999965928,10.311990999965928,0.0,0.0,2.355700279840489,0.0,0.0,0.07320222,0.29623257,9.74952135,0.002546,0.003275,0.003947
10.331974999979138,10.331974999979138,0.0,0.0,2.3557900013447135,0.0,0.0,0.09310671,0.3037176,9.77467419,0.00257,-0.00198,0.00449
10.351959999999963,10.351959999999963,0.0,0.0,2.3558675911744844,0.0,0.0,0.10552617,0.28800198,9.77092677,0.004063,-0.000832,0.003874
10.391929000033997,10.391929000033997,0.0,0.0,2.3560574314396874,0.0,0.0,0.09700128,0.28470582,9.78919299,0.0037,-0.002445,0.005175
10.411912999930792,10.411912999930792,0.0,0.0,2.3561660508300264,0.0,0.0,0.09430353,0.28515708,9.76764042,0.003358,1e-06,0.005393
10.431897999951616,10.431897999951616,0.0,0.0,2.3562655601749336,0.0,0.0,0.06990606,0.27482715,9.77347737,0.002896,-0.000533,0.004971
10.451881999964826,10.451881999964826,0.0,0.0,2.3563384113185837,0.0,0.0,0.1127169,0.29249496,9.78036399,0.002535,-0.001176,0.003645
10.471865999978036,10.471865999978036,0.0,0.0,2.356428781241539,0.0,0.0,0.09385227,0.28500993,9.7547697,0.002809,-0.000187,0.004523
10.49185099999886,10.49185099999886,0.0,0.0,2.3565067321967135,0.0,0.0,0.0928026,0.27422874,9.77797035,0.004679,-0.002705,0.003881
10.511836000019684,10.511836000019684,0.0,0.0,2.3565847628891916,0.0,0.0,0.10193571,0.28740357,9.78529842,0.004679,-0.002705,0.003881
10.551804999937303,10.551804999937303,0.0,0.0,2.3567456808999765,0.0,0.0,0.0953532,0.28515708,9.76778757,0.003101,-0.000261,0.003749
10.551804999937303,10.551804999937303,0.0,0.0,2.3567367527011136,0.0,0.0,0.0953532,0.28515708,9.76778757,0.003101,-0.000261,0.003749
10.591773999971338,10.591773999971338,0.0,0.0,2.3569201398843607,0.0,0.0,0.10358379,0.30237363,9.77856876,0.002892,0.001228,0.005001
10.591773999971338,10.591773999971338,0.0,0.0,2.3569323946025857,0.0,0.0,0.10358379,0.30237363,9.77856876,0.002892,0.001228,0.005001
10.631741999997757,10.631741999997757,0.0,0.0,2.357075723108938,0.0,0.0,0.08128566,0.29757654,9.77407578,0.004927,-0.000486,0.002726
10.651727000018582,10.651727000018582,0.0,0.0,2.357144869686252,0.0,0.0,0.08906499,0.28695231,9.76254903,0.002229,0.001205,0.003425
10.671711000031792,10.671711000031792,0.0,0.0,2.357205751010505,0.0,0.0,0.09040896,0.29129814,9.78395445,0.003713,-0.001186,0.002984
10.6916959999362,10.6916959999362,0.0,0.0,2.357269110240349,0.0,0.0,0.09430353,0.2718351,9.76883724,0.000826,-0.000179,0.003117
10.71167999994941,10.71167999994941,0.0,0.0,2.357344301633435,0.0,0.0,0.0928026,0.28276344,9.74293884,0.002849,-0.001903,0.00376
10.75164999999106,10.75164999999106,0.0,0.0,2.357496769770531,0.0,0.0,0.10733121,0.29563416,9.77077962,0.001753,-0.002048,0.003839
10.75164999999106,10.75164999999106,0.0,0.0,2.357497516967639,0.0,0.0,0.10733121,0.29563416,9.77077962,0.001753,-0.002048,0.003839
10.791619000025094,10.791619000025094,0.0,0.0,2.357658571484735,0.0,0.0,0.10088604,0.29010132,9.7582032,0.002714,-0.001044,0.004267
10.811603000038303,10.811603000038303,0.0,0.0,2.3577571379683686,0.0,0.0,0.09176274,0.2860596,9.78320889,0.003076,-0.001545,0.004972
10.831587999942712,10.831587999942712,0.0,0.0,2.3578403743883927,0.0,0.0,0.07499745,0.28620675,9.79787484,0.001995,0.000528,0.004172
10.851571999955922,10.851571999955922,0.0,0.0,2.3579318376365492,0.0,0.0,0.10088604,0.29503575,9.77317326,0.004416,0.000258,0.00461
10.871556999976747,10.871556999976747,0.0,0.0,2.3580028579835925,0.0,0.0,0.08576883,0.28874754,9.76434426,0.003557,0.000811,0.003512
10.891540999989957,10.891540999989957,0.0,0.0,2.3580635084842436,0.0,0.0,0.09131148,0.2860596,9.76972995,0.002357,-0.001745,0.002952
10.911526000010781,10.911526000010781,0.0,0.0,2.3581353940013283,0.0,0.0,0.101043,0.29173959,9.77362452,0.003698,7.8e-05,0.00357
10.93151000002399,10.93151000002399,0.0,0.0,2.3582270713910667,0.0,0.0,0.09460764,0.28650105,9.7755669,0.001529,-0.001436,0.00466
10.9514949999284,10.9514949999284,0.0,0.0,2.3583188701731146,0.0,0.0,0.08816247,0.28725642,9.77302611,0.001529,-0.001436,0.00466
10.971479999949224,10.971479999949224,0.0,0.0,2.358400622563315,0.0,0.0,0.08292393,0.29159244,9.7667379,0.002963,0.000723,0.004095
10.991463999962434,10.991463999962434,0.0,0.0,2.3584823792337124,0.0,0.0,0.0928026,0.28934595,9.75910572,0.002963,0.000723,0.004095
11.011448999983259,11.011448999983259,0.0,0.0,2.3585781687945353,0.0,0.0,0.0896634,0.29010132,9.77587101,0.002439,0.001285,0.004881
11.031432999996468,11.031432999996468,0.0,0.0,2.358654660243813,0.0,0.0,0.09040896,0.28365615,9.7582032,0.001529,-0.00295,0.003785
11.031432999996468,11.031432999996468,0.0,0.0,2.3586494043495136,0.0,0.0,0.09040896,0.28365615,9.7582032,0.001529,-0.00295,0.003785
11.071402000030503,11.071402000030503,0.0,0.0,2.358827018937591,0.0,0.0,0.09655002,0.2718351,9.7692885,0.001665,0.001054,0.004905
11.111370999948122,11.111370999948122,0.0,0.0,2.3589867420631387,0.0,0.0,0.10014048,0.27108954,9.7752726,0.003663,0.000573,0.003792
11.111370999948122,11.111370999948122,0.0,0.0,2.3589809375554474,0.0,0.0,0.10014048,0.27108954,9.7752726,0.003663,0.000573,0.003792
11.151339999982156,11.151339999982156,0.0,0.0,2.359129552691792,0.0,0.0,0.08726976,0.29114118,9.764491410000002,0.003206,0.001802,0.00331
11.151339999982156,11.151339999982156,0.0,0.0,2.3591185106377894,0.0,0.0,0.08726976,0.29114118,9.764491410000002,0.003206,0.001802,0.00331
11.19130900001619,11.19130900001619,0.0,0.0,2.3592767966747425,0.0,0.0,0.08801532,0.27377748,9.780658290000002,0.003347,0.000441,0.00404
11.19130900001619,11.19130900001619,0.0,0.0,2.3592788711278363,0.0,0.0,0.08801532,0.27377748,9.780658290000002,0.003347,0.000441,0.00404
11.231278999941424,11.231278999941424,0.0,0.0,2.3594825040445464,0.0,0.0,0.09190989,0.29697813,9.76838598,0.004506,-0.001024,0.006485
11.251262999954633,11.251262999954633,0.0,0.0,2.3595716634652826,0.0,0.0,0.10059174,0.28336185,9.78350319,0.002031,-0.000904,0.004479
11.271247999975458,11.271247999975458,0.0,0.0,2.3596607347609506,0.0,0.0,0.08457201,0.29159244,9.76613949,0.003017,-0.002334,0.004472
11.291231999988668,11.291231999988668,0.0,0.0,2.3597323012646036,0.0,0.0,0.08756406,0.28575549,9.75776175,0.003816,0.000638,0.003496
11.311217000009492,11.311217000009492,0.0,0.0,2.3598434078313106,0.0,0.0,0.08921214,0.28650105,9.76374585,0.00289,-0.002355,0.005716
11.351185999927111,11.351185999927111,0.0,0.0,2.3600112908084947,0.0,0.0,0.09655002,0.28515708,9.7755669,0.002239,1.6e-05,0.003972
11.351185999927111,11.351185999927111,0.0,0.0,2.360004642591152,0.0,0.0,0.09655002,0.28515708,9.7755669,0.002239,1.6e-05,0.003972
11.37116999994032,11.37116999994032,0.0,0.0,2.360092889436377,0.0,0.0,0.08337519,0.28800198,9.765246780000002,0.00319,-3.6e-05,0.004433
11.391154999961145,11.391154999961145,0.0,0.0,2.3601587926895204,0.0,0.0,0.08217837,0.28365615,9.75386718,0.00087,0.001728,0.003136
11.43112399999518,11.43112399999518,0.0,0.0,2.3603088832637074,0.0,0.0,0.10014048,0.29114118,9.77347737,0.00283,0.00165,0.003308
11.43112399999518,11.43112399999518,0.0,0.0,2.3602965525194453,0.0,0.0,0.10014048,0.29114118,9.77347737,0.00283,0.00165,0.003308
11.471093000029214,11.471093000029214,0.0,0.0,2.3604600455702887,0.0,0.0,0.08786817,0.29533986,9.77197644,0.004644,-0.000151,0.00425
11.491077999933623,11.491077999933623,0.0,0.0,2.360518584187929,0.0,0.0,0.10373094,0.28441152,9.79038981,0.001366,-0.000653,0.002847
11.511061999946833,11.511061999946833,0.0,0.0,2.3605910770360117,0.0,0.0,0.09894366,0.28305774,9.78275763,0.004589,-0.000263,0.00361
11.511061999946833,11.511061999946833,0.0,0.0,2.3605879796484768,0.0,0.0,0.09894366,0.28305774,9.78275763,0.004589,-0.000263,0.00361
11.551030999980867,11.551030999980867,0.0,0.0,2.3607258280780545,0.0,0.0,0.0947547899999999,0.28874754,9.79502994,0.00439,-0.001981,0.003051
11.571016000001691,11.571016000001691,0.0,0.0,2.360814500932972,0.0,0.0,0.08951625,0.28336185,9.78545538,0.001694,0.001838,0.00452
11.591000000014901,11.591000000014901,0.0,0.0,2.360899735267899,0.0,0.0,0.0960987599999999,0.29099403,9.76883724,0.004379,-0.001962,0.004319
11.610985000035726,11.610985000035726,0.0,0.0,2.360965593548986,0.0,0.0,0.08517042,0.28515708,9.78021684,0.004059,-0.000513,0.003228
11.63096899993252,11.63096899993252,0.0,0.0,2.3610362509515532,0.0,0.0,0.09984618,0.28845324,9.78440571,0.001948,-0.001398,0.003506
11.650953999953344,11.650953999953344,0.0,0.0,2.3611239750393036,0.0,0.0,0.10283823,0.29293641,9.75521115,0.004798,-0.001903,0.004471
11.670938999974169,11.670938999974169,0.0,0.0,2.3612214797758924,0.0,0.0,0.09011466,0.27812331,9.7866522,0.002715,0.000123,0.005013
11.690921999979764,11.690921999979764,0.0,0.0,2.361303926172096,0.0,0.0,0.08786817,0.28051695,9.77766624,0.003629,-0.001817,0.004143
11.710908000008203,11.710908000008203,0.0,0.0,2.3613804521301827,0.0,0.0,0.09984618,0.28455867,9.77347737,0.003023,-0.000127,0.003804
11.750876999925822,11.750876999925822,0.0,0.0,2.3615371121764177,0.0,0.0,0.09968922,0.2894931,9.76345155,0.002865,0.001591,0.003849
11.750876999925822,11.750876999925822,0.0,0.0,2.3615351061607726,0.0,0.0,0.09968922,0.2894931,9.76345155,0.002865,0.001591,0.003849
11.770860999939032,11.770860999939032,0.0,0.0,2.361636307978106,0.0,0.0,0.1067328,0.28186092,9.765246780000002,0.003297,-0.001796,0.005254
11.790845999959856,11.790845999959856,0.0,0.0,2.361700312947532,0.0,0.0,0.07739109,0.27632808,9.77587101,0.003819,-0.001618,0.003048
11.83081499999389,11.83081499999389,0.0,0.0,2.3618687022377856,0.0,0.0,0.08712261,0.29578131,9.78005988,0.004475,-0.000992,0.004468
11.83081499999389,11.83081499999389,0.0,0.0,2.361875634021221,0.0,0.0,0.08712261,0.29578131,9.78005988,0.004475,-0.000992,0.004468
11.870784000027925,11.870784000027925,0.0,0.0,2.362018891710843,0.0,0.0,0.09160578,0.28021284,9.7547697,0.00307,-0.002238,0.002987
11.870784000027925,11.870784000027925,0.0,0.0,2.362003304811603,0.0,0.0,0.09160578,0.28021284,9.7547697,0.00307,-0.002238,0.002987
11.910752999945544,11.910752999945544,0.0,0.0,2.3621741525693363,0.0,0.0,0.09954207,0.2894931,9.75895857,0.002994,-0.001431,0.004809
11.910752999945544,11.910752999945544,0.0,0.0,2.36218766498685,0.0,0.0,0.09954207,0.2894931,9.75895857,0.002994,-0.001431,0.004809
11.930737999966368,11.930737999966368,0.0,0.0,2.362281677063036,0.0,0.0,0.10912644,0.29369178,9.77587101,0.004346,-0.001271,0.004855
11.950721999979578,11.950721999979578,0.0,0.0,2.362366745757507,0.0,0.0,0.08487612,0.28845324,9.75925287,0.004041,0.001946,0.004277
11.990691000013612,11.990691000013612,0.0,0.0,2.362537903730262,0.0,0.0,0.08487612,0.292338,9.7635987,0.002255,0.003186,0.004401
12.010676000034437,12.010676000034437,0.0,0.0,2.3625882947398242,0.0,0.0,0.1077726599999999,0.28186092,9.75776175,0.002158,-0.000735,0.002356
12.030659999931231,12.030659999931231,0.0,0.0,2.362687026730814,0.0,0.0,0.09520605,0.29383893,9.77646942,0.001809,0.001284,0.005043
12.050644999952056,12.050644999952056,0.0,0.0,2.3627854402501516,0.0,0.0,0.09026181,0.28665801,9.764491410000002,0.002373,-0.002246,0.005014
12.07062999997288,12.07062999997288,0.0,0.0,2.3628791567831335,0.0,0.0,0.09385227,0.28470582,9.76913154,0.003811,0.00015,0.004742
12.110599000006914,12.110599000006914,0.0,0.0,2.3630253807250092,0.0,0.0,0.09026181,0.27991854,9.77871591,0.002808,-0.001907,0.003012
12.110599000006914,12.110599000006914,0.0,0.0,2.3630064764518552,0.0,0.0,0.09026181,0.27991854,9.77871591,0.002808,-0.001907,0.003012
12.150568000040948,12.150568000040948,0.0,0.0,2.363172167543828,0.0,0.0,0.09864936,0.28560834,9.78784902,0.003244,-0.000865,0.004342
12.150568000040948,12.150568000040948,0.0,0.0,2.3631775953912477,0.0,0.0,0.09864936,0.28560834,9.78784902,0.003244,-0.000865,0.004342
12.190536999958567,12.190536999958567,0.0,0.0,2.363334298220259,0.0,0.0,0.0865242,0.28680516,9.7894971,0.003095,-0.001331,0.003763
12.190536999958567,12.190536999958567,0.0,0.0,2.3633301349652474,0.0,0.0,0.0865242,0.28680516,9.7894971,0.003095,-0.001331,0.003763
12.230505999992602,12.230505999992602,0.0,0.0,2.363499879524941,0.0,0.0,0.08846658,0.28305774,9.77692068,0.001554,-0.00211,0.004555
12.230505999992602,12.230505999992602,0.0,0.0,2.3635077394877744,0.0,0.0,0.08846658,0.28305774,9.77692068,0.001554,-0.00211,0.004555
12.270475000026636,12.270475000026636,0.0,0.0,2.363677274531268,0.0,0.0,0.08861373,0.28994436,9.75955698,0.00338,0.00056,0.004381
12.290459999931045,12.290459999931045,0.0,0.0,2.3637477336452832,0.0,0.0,0.08726976,0.2980278,9.77737194,0.004926,-0.001368,0.003455
12.310443999944255,12.310443999944255,0.0,0.0,2.3638484633240866,0.0,0.0,0.09490194,0.29084688,9.78335604,0.001812,0.000382,0.005153
12.310443999944255,12.310443999944255,0.0,0.0,2.3638632719058634,0.0,0.0,0.09490194,0.29084688,9.78335604,0.001812,0.000382,0.005153
12.350412999978289,12.350412999978289,0.0,0.0,2.364045463670047,0.0,0.0,0.10448631,0.27886887,9.76209777,0.004535,2.9e-05,0.004849
12.370397999999113,12.370397999999113,0.0,0.0,2.3641356950223384,0.0,0.0,0.09026181,0.27991854,9.78275763,0.002675,0.000463,0.00453
12.390382000012323,12.390382000012323,0.0,0.0,2.364191560806047,0.0,0.0,0.08592579,0.28560834,9.77916717,0.004496,-0.000704,0.002582
12.410367000033148,12.410367000033148,0.0,0.0,2.3642849760618896,0.0,0.0,0.10882233,0.29893032,9.780511140000002,0.00186,0.001701,0.004742
12.430350999929942,12.430350999929942,0.0,0.0,2.36433845494013,0.0,0.0,0.09759969,0.29623257,9.77931432,0.004999,-0.001594,0.002463
12.470320999971591,12.470320999971591,0.0,0.0,2.364496972902254,0.0,0.0,0.08471916,0.28006569,9.78515127,0.004752,-0.00294,0.003923
12.470320999971591,12.470320999971591,0.0,0.0,2.364495754412867,0.0,0.0,0.08471916,0.28006569,9.78515127,0.004752,-0.00294,0.003923
12.510290000005625,12.510290000005625,0.0,0.0,2.3646406363094172,0.0,0.0,0.09071307,0.28845324,9.764491410000002,0.002674,-0.001182,0.003226
12.530274000018835,12.530274000018835,0.0,0.0,2.3647631706574703,0.0,0.0,0.08861373,0.2891988,9.7812567,0.002418,0.000354,0.006277
12.570242999936454,12.570242999936454,0.0,0.0,2.3648939487267455,0.0,0.0,0.0928026,0.28814913,9.77632227,0.004719,-0.000553,0.002392
12.590227999957278,12.590227999957278,0.0,0.0,2.3649697572717328,0.0,0.0,0.09415638,0.28171377,9.78560253,0.002251,0.001031,0.003795
12.590227999957278,12.590227999957278,0.0,0.0,2.3649676518255163,0.0,0.0,0.09415638,0.28171377,9.78560253,0.002251,0.001031,0.003795
12.630197999998927,12.630197999998927,0.0,0.0,2.3651438192932357,0.0,0.0,0.0984924,0.30551283,9.77886306,0.003765,0.000683,0.004942
12.650183000019751,12.650183000019751,0.0,0.0,2.3652180722388287,0.0,0.0,0.08172711,0.27961443,9.78335604,0.001343,-0.001707,0.003702
12.670167000032961,12.670167000032961,0.0,0.0,2.3652940997917202,0.0,0.0,0.09325386,0.29637972,9.77333022,0.004897,-0.000357,0.003794
12.670167000032961,12.670167000032961,0.0,0.0,2.3652911354318364,0.0,0.0,0.09325386,0.29637972,9.77333022,0.004897,-0.000357,0.003794
12.71013599995058,12.71013599995058,0.0,0.0,2.3654475348847743,0.0,0.0,0.09655002,0.27482715,9.78859458,0.003558,-0.001659,0.00387
12.730120999971405,12.730120999971405,0.0,0.0,2.365503545025998,0.0,0.0,0.0839736,0.29398608,9.7667379,-2.1e-05,0.001432,0.002704
12.750104999984615,12.750104999984615,0.0,0.0,2.365562448587778,0.0,0.0,0.09040896,0.28620675,9.77721498,0.004206,-0.001159,0.00287
12.750104999984615,12.750104999984615,0.0,0.0,2.36554995702448,0.0,0.0,0.09040896,0.28620675,9.77721498,0.004206,-0.001159,0.00287
12.790074000018649,12.790074000018649,0.0,0.0,2.3657117223102473,0.0,0.0,0.08636724,0.28201788,9.765246780000002,0.002159,-0.001417,0.00465
12.810059000039473,12.810059000039473,0.0,0.0,2.365791320140474,0.0,0.0,0.08861373,0.30147111,9.75551526,0.004698,-0.001281,0.004015
12.830043999943882,12.830043999943882,0.0,0.0,2.3658815364238697,0.0,0.0,0.0953532,0.28965006,9.79338186,0.003071,-0.001293,0.004606
12.850027999957092,12.850027999957092,0.0,0.0,2.365978552753739,0.0,0.0,0.11047041,0.27872172,9.80371179,0.002778,-0.000827,0.004977
12.870012999977916,12.870012999977916,0.0,0.0,2.3660291665828783,0.0,0.0,0.08696565,0.2980278,9.76838598,0.002306,0.00026,0.002345
12.889996999991126,12.889996999991126,0.0,0.0,2.3661457165403306,0.0,0.0,0.09759969,0.28336185,9.78620094,0.002806,-0.001805,0.006097
12.90998200001195,12.90998200001195,0.0,0.0,2.366223853790281,0.0,0.0,0.0925083,0.28381311,9.7607538,0.002049,0.000369,0.003885
12.92996600002516,12.92996600002516,0.0,0.0,2.366312371606071,0.0,0.0,0.09340101,0.31554846,9.7635987,0.002657,-0.002551,0.004478
12.94995099992957,12.94995099992957,0.0,0.0,2.366369456148119,0.0,0.0,0.08696565,0.29099403,9.78201207,0.002863,-0.000619,0.002683
12.989919999963604,12.989919999963604,0.0,0.0,2.366529395487352,0.0,0.0,0.08038314,0.29129814,9.77273181,0.003728,-0.001986,0.004074
12.989919999963604,12.989919999963604,0.0,0.0,2.366531447646045,0.0,0.0,0.08038314,0.29129814,9.77273181,0.003728,-0.001986,0.004074
13.029888999997638,13.029888999997638,0.0,0.0,2.3666946081488476,0.0,0.0,0.08772102,0.28680516,9.78620094,0.00367,-0.002683,0.004208
13.049874000018463,13.049874000018463,0.0,0.0,2.3667848072312925,0.0,0.0,0.09400923,0.28081125,9.76584519,0.002589,0.001072,0.004547
13.069858000031672,13.069858000031672,0.0,0.0,2.36687354880542,0.0,0.0,0.10119015,0.29458449,9.77003406,0.002405,-0.001513,0.004468
13.089842999936081,13.089842999936081,0.0,0.0,2.366964659254781,0.0,0.0,0.08622009,0.27857457,9.77228055,0.002402,0.000352,0.004595
13.109826999949291,13.109826999949291,0.0,0.0,2.367084781581748,0.0,0.0,0.08172711,0.2920437,9.74757897,0.001807,-0.001752,0.006179
13.129811999970116,13.129811999970116,0.0,0.0,2.367162857665729,0.0,0.0,0.09669717,0.28665801,9.768690090000002,0.004014,-0.000877,0.003851
13.149795999983326,13.149795999983326,0.0,0.0,2.367247881220308,0.0,0.0,0.08772102,0.28979721,9.76240188,0.001312,0.000624,0.004241
13.16978100000415,13.16978100000415,0.0,0.0,2.367320442978441,0.0,0.0,0.09220419,0.29982303,9.7607538,0.003145,-0.00234,0.003549
13.189766000024974,13.189766000024974,0.0,0.0,2.367400020230969,0.0,0.0,0.09205704,0.28305774,9.78679935,0.00092,6.3e-05,0.00395
13.209750000038184,13.209750000038184,0.0,0.0,2.3675092123366968,0.0,0.0,0.07394778,0.2977335,9.74668626,0.00291,-0.001304,0.005615
13.229734999942593,13.229734999942593,0.0,0.0,2.3675982663884803,0.0,0.0,0.08846658,0.28650105,9.77092677,0.003096,0.00142,0.004463
13.249718999955803,13.249718999955803,0.0,0.0,2.367708766066974,0.0,0.0,0.0960987599999999,0.27886887,9.78993855,0.00314,-0.001563,0.005673
13.269703999976628,13.269703999976628,0.0,0.0,2.3678014184279963,0.0,0.0,0.07708698,0.28396026,9.7692885,0.003764,-0.00223,0.004644
13.289687999989837,13.289687999989837,0.0,0.0,2.3678761580012804,0.0,0.0,0.08786817,0.28874754,9.77168214,0.001779,0.001456,0.003627
13.309673000010662,13.309673000010662,0.0,0.0,2.367982685143377,0.0,0.0,0.09190989,0.29414304,9.78649524,0.004578,-0.001451,0.005449
13.329657000023872,13.329657000023872,0.0,0.0,2.3680577096238773,0.0,0.0,0.08067744,0.27932013,9.78814332,0.002325,0.001521,0.003639
13.34964199992828,13.34964199992828,0.0,0.0,2.368147500710636,0.0,0.0,0.09789399,0.29742939,9.77392863,0.002694,-0.000555,0.004497
13.369626999949105,13.369626999949105,0.0,0.0,2.368240961393526,0.0,0.0,0.09640287,0.28171377,9.780658290000002,0.002752,-0.001782,0.004706
13.389610999962315,13.389610999962315,0.0,0.0,2.3683305558763657,0.0,0.0,0.10164141,0.28680516,9.78395445,0.001255,-0.001444,0.004481
13.42957999999635,13.42957999999635,0.0,0.0,2.3684923722489835,0.0,0.0,0.0868185,0.30177522,9.7894971,0.002888,-0.0009,0.003574
13.449565000017174,13.449565000017174,0.0,0.0,2.3685910421576235,0.0,0.0,0.08935929,0.28785483,9.79368597,0.002471,-0.003263,0.004962
13.469549000030383,13.469549000030383,0.0,0.0,2.3686775450921376,0.0,0.0,0.09984618,0.28485297,9.7755669,0.00228,0.001698,0.004322
13.489533999934793,13.489533999934793,0.0,0.0,2.368745341930728,0.0,0.0,0.08921214,0.29353482,9.77392863,0.00062,-0.001996,0.003323
13.509518999955617,13.509518999955617,0.0,0.0,2.3688028510232737,0.0,0.0,0.09295956,0.28769787,9.77108373,0.003532,0.000671,0.00277
13.529502999968827,13.529502999968827,0.0,0.0,2.368877838691744,0.0,0.0,0.08891784,0.29443734,9.75132639,0.001492,0.000521,0.003725
13.549487999989651,13.549487999989651,0.0,0.0,2.3689374296779544,0.0,0.0,0.10028763,0.29997999,9.76659075,0.003836,-0.002159,0.002884
13.569472000002861,13.569472000002861,0.0,0.0,2.36901037714083,0.0,0.0,0.09086022,0.2951829,9.78529842,0.002767,-0.000419,0.003628
13.589457000023685,13.589457000023685,0.0,0.0,2.369091341909,0.0,0.0,0.08217837,0.29563416,9.78485697,0.00373,-0.00266,0.004074
13.609441000036895,13.609441000036895,0.0,0.0,2.369191547239418,0.0,0.0,0.09160578,0.30161826,9.76464837,0.0023,5e-05,0.005143
13.629425999941304,13.629425999941304,0.0,0.0,2.3692959464056624,0.0,0.0,0.09011466,0.29474145,9.7755669,0.003925,-0.001017,0.005363
13.649409999954514,13.649409999954514,0.0,0.0,2.369362558795718,0.0,0.0,0.09774684,0.28905165,9.77496849,0.00409,-5.2e-05,0.003226
13.669394999975339,13.669394999975339,0.0,0.0,2.3694766353995567,0.0,0.0,0.09385227,0.28231218,9.76000824,0.001715,-0.000582,0.005912
13.689379999996163,13.689379999996163,0.0,0.0,2.369537029736362,0.0,0.0,0.08442486,0.28396026,9.76180347,0.003755,-0.002091,0.002854
13.709364000009373,13.709364000009373,0.0,0.0,2.3696286604956747,0.0,0.0,0.08592579,0.28455867,9.7667379,0.00025,0.001206,0.004645
13.729349000030197,13.729349000030197,0.0,0.0,2.3697130533644586,0.0,0.0,0.10597743,0.30297204,9.77737194,0.004118,-0.000913,0.004226
13.749332999926992,13.749332999926992,0.0,0.0,2.3697979595546057,0.0,0.0,0.08726976,0.29952873,9.76180347,0.002658,0.000945,0.004255
13.749332999926992,13.749332999926992,0.0,0.0,2.369798665962602,0.0,0.0,0.08726976,0.29952873,9.76180347,0.002658,0.000945,0.004255
13.749332999926992,13.749332999926992,0.0,0.0,2.3697992249351216,0.0,0.0,0.08726976,0.29952873,9.76180347,0.002658,0.000945,0.004255
13.789301999961026,13.789301999961026,0.0,0.0,2.36997591456122,0.0,0.0,0.08756406,0.27857457,9.76823883,0.003312,-0.000998,0.004729
13.829272000002675,13.829272000002675,0.0,0.0,2.3701459873634843,0.0,0.0,0.09220419,0.27677934,9.79607961,0.004361,-0.001539,0.00422
13.869241000036709,13.869241000036709,0.0,0.0,2.3703158843631345,0.0,0.0,0.10223982,0.28126251,9.78185511,0.004261,-0.003482,0.004227
13.889224999933504,13.889224999933504,0.0,0.0,2.3704173657117424,0.0,0.0,0.09040896,0.28680516,9.77467419,0.001358,0.00082,0.005094
13.909209999954328,13.909209999954328,0.0,0.0,2.370509001126238,0.0,0.0,0.09011466,0.292338,9.76704201,0.003723,-0.001977,0.004592
13.929193999967538,13.929193999967538,0.0,0.0,2.3705798654366372,0.0,0.0,0.08636724,0.29533986,9.78290478,0.003094,-1.8e-05,0.003504
13.949178999988362,13.949178999988362,0.0,0.0,2.3706747427082098,0.0,0.0,0.08801532,0.28186092,9.78290478,0.001931,-0.001926,0.004775
13.969164000009187,13.969164000009187,0.0,0.0,2.370759951604171,0.0,0.0,0.0896634,0.29578131,9.76314744,0.004272,0.000136,0.004257
13.989148000022396,13.989148000022396,0.0,0.0,2.370821498343318,0.0,0.0,0.08906499,0.28934595,9.7721334,0.002654,-0.000463,0.002978
14.009132999926805,14.009132999926805,0.0,0.0,2.3709263402646474,0.0,0.0,0.09370512,0.28336185,9.79457868,0.002775,-0.001806,0.005343
14.029116999940015,14.029116999940015,0.0,0.0,2.371033914448889,0.0,0.0,0.09430353,0.29474145,9.76000824,0.002018,0.001067,0.005486
14.04910199996084,14.04910199996084,0.0,0.0,2.3711123886012615,0.0,0.0,0.07993188,0.29114118,9.76599234,0.00352,-0.001381,0.00387
14.06908599997405,14.06908599997405,0.0,0.0,2.371207205071361,0.0,0.0,0.08277678,0.2920437,9.77617512,0.002015,0.000138,0.004783
14.089070999994874,14.089070999994874,0.0,0.0,2.3712702213849397,0.0,0.0,0.09265545,0.27707364,9.77123088,0.001515,-0.000432,0.003005
14.109055000008084,14.109055000008084,0.0,0.0,2.3713569123770224,0.0,0.0,0.08292393,0.28814913,9.78964425,0.00348,0.000647,0.004348
14.129040000028908,14.129040000028908,0.0,0.0,2.3714412805102594,0.0,0.0,0.09056592,0.28396026,9.78170796,0.002664,0.000182,0.004216
14.149024999933317,14.149024999933317,0.0,0.0,2.371531151468499,0.0,0.0,0.0836793,0.29144529,9.77692068,0.004379,-0.002371,0.004527
14.169008999946527,14.169008999946527,0.0,0.0,2.3716276644852137,0.0,0.0,0.09310671,0.28441152,9.76613949,0.002463,0.001503,0.004899
14.188993999967352,14.188993999967352,0.0,0.0,2.371719650203169,0.0,0.0,0.09490194,0.27977139,9.76149936,0.002801,-0.000329,0.004633
14.208977999980561,14.208977999980561,0.0,0.0,2.37178844909585,0.0,0.0,0.0779895,0.29668383,9.76090095,0.003608,0.000521,0.003312
14.228963000001386,14.228963000001386,0.0,0.0,2.3718597325791784,0.0,0.0,0.0839736,0.29010132,9.77168214,0.003676,-0.001677,0.003471
14.248947000014596,14.248947000014596,0.0,0.0,2.3719379536475707,0.0,0.0,0.10059174,0.28620675,9.78470001,0.004629,-0.000377,0.00388
14.26893200003542,14.26893200003542,0.0,0.0,2.372025501522776,0.0,0.0,0.09325386,0.29952873,9.7781175,0.001036,0.001046,0.004417
14.288916999939829,14.288916999939829,0.0,0.0,2.3721196129479276,0.0,0.0,0.08935929,0.28291059,9.78170796,0.004387,-0.001995,0.004787
14.308900999953039,14.308900999953039,0.0,0.0,2.3722001258701173,0.0,0.0,0.08756406,0.28186092,9.78829047,0.001656,0.001889,0.003998
14.328885999973863,14.328885999973863,0.0,0.0,2.3723059527465473,0.0,0.0,0.10328949,0.30282489,9.78365034,0.002592,-0.001933,0.005452
14.348869999987073,14.348869999987073,0.0,0.0,2.3723927897150325,0.0,0.0,0.08772102,0.28305774,9.77797035,0.004566,0.000229,0.004341
14.368855000007898,14.368855000007898,0.0,0.0,2.372458786510715,0.0,0.0,0.09071307,0.28965006,9.77228055,0.002006,-7.1e-05,0.003146
14.388839000021107,14.388839000021107,0.0,0.0,2.372541192309649,0.0,0.0,0.08442486,0.28425456,9.7784118,0.003438,-0.001637,0.004111
14.428808999946341,14.428808999946341,0.0,0.0,2.3727133468296087,0.0,0.0,0.08471916,0.27677934,9.77737194,0.001883,-0.00011,0.004425
14.44879299995955,14.44879299995955,0.0,0.0,2.372819645268814,0.0,0.0,0.08667135,0.29249496,9.7664436,0.003256,0.001063,0.005369
14.468777999980375,14.468777999980375,0.0,0.0,2.3729201132548177,0.0,0.0,0.08232552,0.28934595,9.79847325,0.003147,-0.000583,0.005064
14.488761999993585,14.488761999993585,0.0,0.0,2.3729859624477037,0.0,0.0,0.08772102,0.29039562,9.78889869,0.002296,-0.00234,0.003213
14.50874700001441,14.50874700001441,0.0,0.0,2.373073525560537,0.0,0.0,0.09100737,0.28725642,9.77333022,0.00093,-0.000898,0.004387
14.52873100002762,14.52873100002762,0.0,0.0,2.3731759393365195,0.0,0.0,0.08607294,0.29474145,9.76554108,0.005356,-0.001204,0.005195
14.548715999932028,14.548715999932028,0.0,0.0,2.3732645256294003,0.0,0.0,0.08337519,0.27886887,9.79233219,0.001775,-0.000953,0.004432
14.568700999952853,14.568700999952853,0.0,0.0,2.3733722972213727,0.0,0.0,0.09490194,0.3125466,9.7635987,0.005545,-0.000338,0.00549
14.588684999966063,14.588684999966063,0.0,0.0,2.3734462380933063,0.0,0.0,0.09100737,0.28800198,9.76943565,0.002134,0.001206,0.003605
14.608668999979272,14.608668999979272,0.0,0.0,2.373553148531748,0.0,0.0,0.0839736,0.29398608,9.77797035,0.002608,-0.002573,0.005452
14.628652999992482,14.628652999992482,0.0,0.0,2.3736212159073364,0.0,0.0,0.08322804,0.28560834,9.77976558,0.00425,-0.000867,0.003267
14.648638000013307,14.648638000013307,0.0,0.0,2.37371295975929,0.0,0.0,0.08726976,0.29893032,9.764942670000002,0.002981,-0.000799,0.004613
14.668622000026517,14.668622000026517,0.0,0.0,2.373801606946717,0.0,0.0,0.08696565,0.29369178,9.76988691,0.004014,-0.000828,0.004436
14.688606999930926,14.688606999930926,0.0,0.0,2.373893603113757,0.0,0.0,0.10044459,0.28470582,9.75671208,0.001495,-0.000157,0.004625
14.70859199995175,14.70859199995175,0.0,0.0,2.3740013230160084,0.0,0.0,0.09100737,0.2920437,9.77797035,0.003736,-0.002044,0.005513
14.70859199995175,14.70859199995175,0.0,0.0,2.3740155698564127,0.0,0.0,0.09100737,0.2920437,9.77797035,0.003736,-0.002044,0.005513
14.748560999985784,14.748560999985784,0.0,0.0,2.374222835049097,0.0,0.0,0.0896634,0.29474145,9.77617512,0.00302,-0.000828,0.005801
14.768544999998994,14.768544999998994,0.0,0.0,2.3742961277891066,0.0,0.0,0.08322804,0.28874754,9.77661657,0.001947,0.000125,0.003499
14.788530000019819,14.788530000019819,0.0,0.0,2.374396071689887,0.0,0.0,0.09370512,0.29862621,9.77317326,0.001303,-0.003202,0.005048
14.808514000033028,14.808514000033028,0.0,0.0,2.3744913102266834,0.0,0.0,0.08951625,0.30072555,9.77422293,0.004827,-0.001435,0.004772
14.828498999937437,14.828498999937437,0.0,0.0,2.374585103041616,0.0,0.0,0.10253412,0.28485297,9.77826465,0.002606,0.000336,0.004688
14.848483999958262,14.848483999958262,0.0,0.0,2.374667384383014,0.0,0.0,0.08308089,0.28725642,9.77003406,0.004829,-0.002252,0.004029
14.868467999971472,14.868467999971472,0.0,0.0,2.3747600357386744,0.0,0.0,0.0839736,0.27812331,9.7755669,0.002678,0.001568,0.004637
14.888452999992296,14.888452999992296,0.0,0.0,2.3748351441179008,0.0,0.0,0.09789399,0.28245933,9.78709365,0.001368,-0.001704,0.00363
14.908437000005506,14.908437000005506,0.0,0.0,2.3749189048415653,0.0,0.0,0.08756406,0.29608542,9.75940983,0.005837,3.7e-05,0.004146
14.92842200002633,14.92842200002633,0.0,0.0,2.3750049204691868,0.0,0.0,0.08726976,0.28934595,9.76508982,0.00189,0.001617,0.004282
14.94840699993074,14.94840699993074,0.0,0.0,2.37507183945715,0.0,0.0,0.09116433,0.28261629,9.77766624,0.004846,-0.001729,0.003188
14.96839099994395,14.96839099994395,0.0,0.0,2.375168226501362,0.0,0.0,0.09550035,0.29907747,9.77362452,0.001492,0.000565,0.004906
14.988375999964774,14.988375999964774,0.0,0.0,2.3752646590990887,0.0,0.0,0.09116433,0.28680516,9.75685923,0.004803,-0.001103,0.004896
15.028344999998808,15.028344999998808,0.0,0.0,2.37545427564104,0.0,0.0,0.08471916,0.2860596,9.78305193,0.002761,-0.000878,0.005087
15.028344999998808,15.028344999998808,0.0,0.0,2.3754638376682973,0.0,0.0,0.08471916,0.2860596,9.78305193,0.002761,-0.000878,0.005087
15.068314000032842,15.068314000032842,0.0,0.0,2.375621756388293,0.0,0.0,0.08772102,0.30431601,9.77692068,0.002239,-0.000617,0.00323
15.088298999937251,15.088298999937251,0.0,0.0,2.3757101146845656,0.0,0.0,0.08891784,0.29458449,9.77108373,0.004083,-0.001378,0.004423
15.108282999950461,15.108282999950461,0.0,0.0,2.3758287978718826,0.0,0.0,0.08861373,0.28546119,9.79024266,0.001867,-8.3e-05,0.006064
15.128267999971285,15.128267999971285,0.0,0.0,2.3758959623368607,0.0,0.0,0.09700128,0.29713509,9.77661657,0.003451,-0.00274,0.003247
15.148251999984495,15.148251999984495,0.0,0.0,2.3759917994732804,0.0,0.0,0.10403505,0.29668383,9.765246780000002,0.002092,-0.001444,0.00483
15.16823700000532,15.16823700000532,0.0,0.0,2.376068771382516,0.0,0.0,0.09490194,0.29833191,9.78919299,0.002658,-0.003384,0.003785
15.18822100001853,15.18822100001853,0.0,0.0,2.376127566450829,0.0,0.0,0.07693983,0.29054277,9.77228055,0.003377,0.000365,0.002783
15.208206000039354,15.208206000039354,0.0,0.0,2.37623578378294,0.0,0.0,0.08352234,0.29548701,9.796678020000002,0.00123,-0.001717,0.005556
15.228190999943763,15.228190999943763,0.0,0.0,2.3763430037263813,0.0,0.0,0.09071307,0.29353482,9.77182929,0.004039,-0.001717,0.005484
15.248174999956973,15.248174999956973,0.0,0.0,2.376430631850557,0.0,0.0,0.10073889,0.29623257,9.7841016,0.0014,0.001829,0.004369
15.268159999977797,15.268159999977797,0.0,0.0,2.3765286061226725,0.0,0.0,0.09205704,0.28081125,9.79323471,0.003141,-0.002774,0.004954
15.288143999991007,15.288143999991007,0.0,0.0,2.376618785946224,0.0,0.0,0.09116433,0.28860039,9.7784118,0.002384,-0.00035,0.004507
15.308129000011832,15.308129000011832,0.0,0.0,2.376726849611339,0.0,0.0,0.08636724,0.30132396,9.77751909,0.001959,-0.000853,0.005521
15.34809799992945,15.34809799992945,0.0,0.0,2.3769193341099975,0.0,0.0,0.09325386,0.27722079,9.77092677,0.001883,4.3e-05,0.00496
15.34809799992945,15.34809799992945,0.0,0.0,2.3769234421910443,0.0,0.0,0.09325386,0.27722079,9.77092677,0.001883,4.3e-05,0.00496
15.388066999963485,15.388066999963485,0.0,0.0,2.3771140347441406,0.0,0.0,0.09655002,0.30206952,9.75895857,0.001872,5.6e-05,0.004789
15.408051999984309,15.408051999984309,0.0,0.0,2.377215806630537,0.0,0.0,0.08337519,0.30266793,9.76704201,0.002376,-0.001915,0.005114
15.428035999997519,15.428035999997519,0.0,0.0,2.3772841300634067,0.0,0.0,0.09116433,0.28141947,9.76568823,0.002369,0.001219,0.003316
15.448021000018343,15.448021000018343,0.0,0.0,2.377347466190704,0.0,0.0,0.08876088,0.29414304,9.76015539,0.003837,0.000931,0.00305
15.468006000039168,15.468006000039168,0.0,0.0,2.3774434181655852,0.0,0.0,0.08547453,0.29474145,9.76823883,0.004074,0.000609,0.004839
15.487989999935962,15.487989999935962,0.0,0.0,2.377522813084213,0.0,0.0,0.09520605,0.28575549,9.7695828,0.00151,0.000881,0.003926
15.507974999956787,15.507974999956787,0.0,0.0,2.3776085903093405,0.0,0.0,0.09430353,0.29548701,9.77826465,0.002971,-0.001263,0.004283
15.527958999969997,15.527958999969997,0.0,0.0,2.377678657534405,0.0,0.0,0.08741691,0.30431601,9.7493742,0.001742,0.002526,0.003411
15.54794399999082,15.54794399999082,0.0,0.0,2.377776644527195,0.0,0.0,0.08996751,0.27977139,9.79158663,0.003255,-0.002223,0.00498
15.567929000011645,15.567929000011645,0.0,0.0,2.3778335277145626,0.0,0.0,0.08772102,0.28096821,9.77437008,0.001844,-0.000179,0.002667
15.587913000024855,15.587913000024855,0.0,0.0,2.377933913151643,0.0,0.0,0.08322804,0.29907747,9.76120506,0.004369,-0.00111,0.005136
15.627881999942474,15.627881999942474,0.0,0.0,2.378085966310814,0.0,0.0,0.09071307,0.28410741,9.77721498,0.000257,0.000389,0.003344
15.647866999963298,15.647866999963298,0.0,0.0,2.378168341641037,0.0,0.0,0.09131148,0.30581694,9.76704201,0.004417,-0.001187,0.004122
15.667850999976508,15.667850999976508,0.0,0.0,2.378296544334404,0.0,0.0,0.0981981,0.29697813,9.77018121,0.003846,0.002109,0.006519
15.687835999997333,15.687835999997333,0.0,0.0,2.3783815145793943,0.0,0.0,0.09071307,0.27662238,9.78485697,0.003801,-0.002105,0.00424
15.707821000018157,15.707821000018157,0.0,0.0,2.3784479014985678,0.0,0.0,0.08502327,0.30161826,9.77871591,0.002931,0.000604,0.003246
15.727805000031367,15.727805000031367,0.0,0.0,2.378565444798083,0.0,0.0,0.08801532,0.28425456,9.768690090000002,0.002083,-0.002147,0.006009
15.747789999935776,15.747789999935776,0.0,0.0,2.3786467215112665,0.0,0.0,0.0953532,0.28785483,9.7721334,0.003524,0.000591,0.004029
15.767773999948986,15.767773999948986,0.0,0.0,2.378732561994931,0.0,0.0,0.09759969,0.28500993,9.76224492,0.001627,-0.001182,0.004282
15.78775899996981,15.78775899996981,0.0,0.0,2.37882549418908,0.0,0.0,0.08951625,0.28814913,9.77826465,0.003641,-0.001554,0.004674
15.807743999990635,15.807743999990635,0.0,0.0,2.3789161595244046,0.0,0.0,0.09176274,0.29728224,9.76404996,0.003463,0.000348,0.004546
15.827728000003844,15.827728000003844,0.0,0.0,2.3789963223749897,0.0,0.0,0.08457201,0.29818476,9.78560253,0.002839,-0.000522,0.00396
15.847713000024669,15.847713000024669,0.0,0.0,2.379093522506647,0.0,0.0,0.08471916,0.2832147,9.79069392,0.002458,0.002221,0.004919
15.867697000037879,15.867697000037879,0.0,0.0,2.3791718046318184,0.0,0.0,0.08741691,0.28546119,9.75985128,0.003338,-0.001515,0.00385
15.887681999942288,15.887681999942288,0.0,0.0,2.3792327514161578,0.0,0.0,0.08457201,0.2832147,9.796678020000002,0.004502,-0.000841,0.002881
15.907666999963112,15.907666999963112,0.0,0.0,2.3793062347222538,0.0,0.0,0.09355797,0.28546119,9.76345155,0.002662,-0.000133,0.003611
15.927650999976322,15.927650999976322,0.0,0.0,2.3794083638402013,0.0,0.0,0.08951625,0.29967588,9.75776175,0.004058,-0.001777,0.005243
15.967620000010356,15.967620000010356,0.0,0.0,2.3795923289270213,0.0,0.0,0.1013373,0.28994436,9.77482134,0.002953,-0.003596,0.004961
15.967620000010356,15.967620000010356,0.0,0.0,2.379602541835995,0.0,0.0,0.1013373,0.28994436,9.77482134,0.002953,-0.003596,0.004961
15.98760500003118,15.98760500003118,0.0,0.0,2.379658790631173,0.0,0.0,0.09490194,0.30177522,9.77123088,0.003791,0.000307,0.002539
16.00758999993559,16.00758999993559,0.0,0.0,2.3797412900611086,0.0,0.0,0.09460764,0.28560834,9.78725061,0.00249,-0.000889,0.004117
16.047558999969624,16.047558999969624,0.0,0.0,2.37992720164183,0.0,0.0,0.08292393,0.28979721,9.77766624,0.00189,0.000179,0.005164
16.067542999982834,16.067542999982834,0.0,0.0,2.3799976686302866,0.0,0.0,0.08277678,0.27991854,9.7812567,0.003603,-0.001082,0.003478
16.08752800000366,16.08752800000366,0.0,0.0,2.380070005134865,0.0,0.0,0.09236115,0.27917298,9.78769206,0.003422,0.00107,0.003578
16.107512000016868,16.107512000016868,0.0,0.0,2.380136815862409,0.0,0.0,0.09176274,0.28590264,9.7692885,0.005772,0.001156,0.003281
16.127497000037692,16.127497000037692,0.0,0.0,2.3802070880190165,0.0,0.0,0.08876088,0.28575549,9.77422293,0.002466,-0.000438,0.003473
16.1474819999421,16.1474819999421,0.0,0.0,2.380271886045289,0.0,0.0,0.08712261,0.29383893,9.752817510000002,0.002303,-0.002018,0.003176
16.16746599995531,16.16746599995531,0.0,0.0,2.3803671782397533,0.0,0.0,0.0981981,0.28081125,9.78455286,0.003566,-0.000814,0.004865
16.187450999976136,16.187450999976136,0.0,0.0,2.3804459390471653,0.0,0.0,0.08891784,0.2894931,9.7752726,0.002845,-0.000308,0.003938
16.207434999989346,16.207434999989346,0.0,0.0,2.380524439027875,0.0,0.0,0.08592579,0.28455867,9.77392863,0.004488,-0.001126,0.003924
16.22742000001017,16.22742000001017,0.0,0.0,2.380616706792898,0.0,0.0,0.07648857,0.29189655,9.764491410000002,0.003135,0.000556,0.004695
16.247405000030994,16.247405000030994,0.0,0.0,2.3807341455759854,0.0,0.0,0.08322804,0.28336185,9.77766624,0.004072,-0.00152,0.0061
16.26738899992779,16.26738899992779,0.0,0.0,2.3808344901349408,0.0,0.0,0.08712261,0.2951829,9.75252321,0.003406,0.001029,0.005109
16.287373999948613,16.287373999948613,0.0,0.0,2.3809264397905547,0.0,0.0,0.0984924,0.27587682,9.76778757,0.002634,-0.001233,0.004623
16.307357999961823,16.307357999961823,0.0,0.0,2.3810003130186512,0.0,0.0,0.09400923,0.292338,9.77976558,0.00454,-0.00108,0.003596
16.307357999961823,16.307357999961823,0.0,0.0,2.380988674470716,0.0,0.0,0.09400923,0.292338,9.77976558,0.00454,-0.00108,0.003596
16.347328000003472,16.347328000003472,0.0,0.0,2.3811672329626417,0.0,0.0,0.08636724,0.27991854,9.77063247,0.005412,-0.002116,0.004739
16.387297000037506,16.387297000037506,0.0,0.0,2.381342162141844,0.0,0.0,0.08786817,0.27961443,9.765246780000002,0.004084,-0.001537,0.004435
16.4072809999343,16.4072809999343,0.0,0.0,2.381410796773972,0.0,0.0,0.08921214,0.28800198,9.78515127,0.004455,-0.001048,0.003399
16.427265999955125,16.427265999955125,0.0,0.0,2.381487442603202,0.0,0.0,0.08188407,0.28201788,9.77976558,0.001313,-0.001887,0.003816
16.447249999968335,16.447249999968335,0.0,0.0,2.381568381844576,0.0,0.0,0.07933347,0.27572967,9.79952292,0.004153,-0.000516,0.004044
16.46723499998916,16.46723499998916,0.0,0.0,2.3816880069640334,0.0,0.0,0.07873506,0.30027429,9.764942670000002,0.00166,-0.001736,0.006123
16.487220000009984,16.487220000009984,0.0,0.0,2.3817942142934374,0.0,0.0,0.09520605,0.28141947,9.79129233,0.004998,-0.001945,0.00539
16.507204000023194,16.507204000023194,0.0,0.0,2.3818786973978847,0.0,0.0,0.09205704,0.28455867,9.78709365,0.002942,0.002357,0.004199
16.527188999927603,16.527188999927603,0.0,0.0,2.3819815871193635,0.0,0.0,0.09190989,0.29533986,9.75716334,0.00359,-0.002429,0.005213
16.547172999940813,16.547172999940813,0.0,0.0,2.3820600235968605,0.0,0.0,0.08786817,0.27841761,9.76044969,0.000883,-0.000576,0.003855
16.567157999961637,16.567157999961637,0.0,0.0,2.3821349553719777,0.0,0.0,0.09071307,0.28575549,9.78110955,0.002682,-0.001482,0.003667
16.58714299998246,16.58714299998246,0.0,0.0,2.382202903631949,0.0,0.0,0.08622009,0.29893032,9.780658290000002,0.003894,-0.000914,0.003286
16.607128000003286,16.607128000003286,0.0,0.0,2.382295106512892,0.0,0.0,0.08951625,0.28381311,9.76240188,0.002422,-0.000292,0.004659
16.62711300002411,16.62711300002411,0.0,0.0,2.382378839740504,0.0,0.0,0.0836793,0.28305774,9.77407578,0.004589,-0.002491,0.004177
16.64709700003732,16.64709700003732,0.0,0.0,2.3824732959616064,0.0,0.0,0.09580446,0.28441152,9.752670360000002,0.002052,-0.000291,0.004784
16.687066999962553,16.687066999962553,0.0,0.0,2.3826086863988554,0.0,0.0,0.09370512,0.28845324,9.7692885,0.004751,-0.001146,0.002395
16.707050999975763,16.707050999975763,0.0,0.0,2.382697804712487,0.0,0.0,0.10223982,0.28769787,9.7610481,0.003053,-0.001579,0.004473
16.727035999996588,16.727035999996588,0.0,0.0,2.382785521394956,0.0,0.0,0.08607294,0.30326634,9.77273181,0.004979,-0.000645,0.004402
16.747020000009798,16.747020000009798,0.0,0.0,2.3828366442299105,0.0,0.0,0.08951625,0.2860596,9.78649524,0.002103,0.00031,0.002463
16.767005000030622,16.767005000030622,0.0,0.0,2.3829034147886876,0.0,0.0,0.09460764,0.29084688,9.75836016,0.002653,-0.000643,0.0033
16.78698999993503,16.78698999993503,0.0,0.0,2.382995382157164,0.0,0.0,0.09056592,0.29833191,9.76300029,0.003471,0.001664,0.004663
16.80697399994824,16.80697399994824,0.0,0.0,2.383095629796159,0.0,0.0,0.09595161,0.28276344,9.77991273,0.002442,-0.00171,0.005111
16.826958999969065,16.826958999969065,0.0,0.0,2.383179346869314,0.0,0.0,0.08143281,0.29668383,9.78634809,0.005091,0.000613,0.004197
16.846942999982275,16.846942999982275,0.0,0.0,2.3832625470271154,0.0,0.0,0.10283823,0.2977335,9.75671208,0.001671,-0.001122,0.004168
16.8669280000031,16.8669280000031,0.0,0.0,2.383332985092691,0.0,0.0,0.09190989,0.28650105,9.77273181,0.004546,0.00048,0.003459
16.886913000023924,16.886913000023924,0.0,0.0,2.3834165860641265,0.0,0.0,0.08352234,0.28245933,9.80131815,0.001401,0.00137,0.0042
16.906897000037134,16.906897000037134,0.0,0.0,2.3835278060174376,0.0,0.0,0.09669717,0.28874754,9.75656493,0.003625,-0.001161,0.005745
16.926881999941543,16.926881999941543,0.0,0.0,2.3836031322634392,0.0,0.0,0.09355797,0.29010132,9.76135221,0.002179,-0.001843,0.003706
16.946865999954753,16.946865999954753,0.0,0.0,2.3836966714139773,0.0,0.0,0.10119015,0.28171377,9.78500412,0.001515,-0.002591,0.004741
16.966850999975577,16.966850999975577,0.0,0.0,2.3837725773958205,0.0,0.0,0.08891784,0.29338767,9.78230637,0.002973,0.000633,0.003736
16.986834999988787,16.986834999988787,0.0,0.0,2.383872963421357,0.0,0.0,0.08772102,0.29474145,9.77617512,0.00359,4.5e-05,0.005132
17.026805000030436,17.026805000030436,0.0,0.0,2.3840482031431627,0.0,0.0,0.07589016,0.28785483,9.78245352,0.001962,0.000505,0.004444
17.04678899992723,17.04678899992723,0.0,0.0,2.3841364978216726,0.0,0.0,0.10223982,0.2951829,9.77617512,0.004645,-0.002665,0.004421
17.066773999948055,17.066773999948055,0.0,0.0,2.3842366057379163,0.0,0.0,0.08786817,0.29309337,9.76254903,0.003082,0.000942,0.005042
17.086757999961264,17.086757999961264,0.0,0.0,2.3843226948398453,0.0,0.0,0.08292393,0.29922462,9.77737194,0.004261,-0.002472,0.004299
17.10674299998209,17.10674299998209,0.0,0.0,2.384413986275776,0.0,0.0,0.10478061,0.28860039,9.76284333,0.003706,-0.00055,0.004578
17.126728000002913,17.126728000002913,0.0,0.0,2.384508719474044,0.0,0.0,0.08576883,0.29474145,9.77766624,0.002744,-0.001239,0.004764
17.146712000016123,17.146712000016123,0.0,0.0,2.3845724835603823,0.0,0.0,0.09400923,0.28575549,9.76584519,0.005195,0.00038,0.003073
17.166697000036947,17.166697000036947,0.0,0.0,2.384664939287908,0.0,0.0,0.09968922,0.2860596,9.75042387,0.002487,-0.000699,0.004658
17.186680999933742,17.186680999933742,0.0,0.0,2.3847236250513912,0.0,0.0,0.08996751,0.28800198,9.74503818,0.005268,-0.00243,0.002789
17.206665999954566,17.206665999954566,0.0,0.0,2.3848267588138015,0.0,0.0,0.08217837,0.28650105,9.75102228,0.002568,0.001156,0.005273
17.22665099997539,17.22665099997539,0.0,0.0,2.384918733309446,0.0,0.0,0.08562168,0.29099403,9.76733631,0.004173,-0.002796,0.004638
17.2466349999886,17.2466349999886,0.0,0.0,2.3850158617430424,0.0,0.0,0.0836793,0.28814913,9.76120506,0.002974,0.000164,0.004923
17.266620000009425,17.266620000009425,0.0,0.0,2.3851047186159953,0.0,0.0,0.09295956,0.28485297,9.77152518,0.003503,-0.002032,0.00445
17.286604000022635,17.286604000022635,0.0,0.0,2.3851755365218015,0.0,0.0,0.09415638,0.29922462,9.75760479,0.004927,-0.001218,0.003432
17.306588999927044,17.306588999927044,0.0,0.0,2.385266874114482,0.0,0.0,0.09909081,0.28141947,9.77482134,0.003107,0.001006,0.004607
17.32657399994787,17.32657399994787,0.0,0.0,2.3853240875561035,0.0,0.0,0.08442486,0.27722079,9.78440571,0.003753,-0.001659,0.002667
17.346557999961078,17.346557999961078,0.0,0.0,2.3854041496131613,0.0,0.0,0.09430353,0.29578131,9.77572386,0.002543,0.001807,0.003992
17.366542999981903,17.366542999981903,0.0,0.0,2.3854755920547372,0.0,0.0,0.08667135,0.28889469,9.76419711,0.003752,-0.001507,0.003503
17.386528000002727,17.386528000002727,0.0,0.0,2.3855851786006,0.0,0.0,0.09415638,0.29173959,9.77916717,0.00279,0.000648,0.005688
17.406512000015937,17.406512000015937,0.0,0.0,2.3856767358097333,0.0,0.0,0.09415638,0.28156662,9.77377167,0.001573,-0.001122,0.00463
17.42649700003676,17.42649700003676,0.0,0.0,2.385754039388261,0.0,0.0,0.09879651,0.29249496,9.780511140000002,0.005063,0.0009,0.003808
17.446480999933556,17.446480999933556,0.0,0.0,2.3858216301256974,0.0,0.0,0.0947547899999999,0.29144529,9.76149936,0.001929,0.000453,0.003261
17.46646599995438,17.46646599995438,0.0,0.0,2.3859257024857197,0.0,0.0,0.09595161,0.28006569,9.7957755,0.004211,-0.00022,0.005368
17.506434999988414,17.506434999988414,0.0,0.0,2.3860773248007447,0.0,0.0,0.08203122,0.28725642,9.76554108,0.002747,-0.001402,0.003292
17.52642000000924,17.52642000000924,0.0,0.0,2.386163703511709,0.0,0.0,0.09086022,0.2948886,9.75910572,0.003077,0.00116,0.004331
17.52642000000924,17.52642000000924,0.0,0.0,2.3861666832851913,0.0,0.0,0.09086022,0.2948886,9.75910572,0.003077,0.00116,0.004331
17.566388999926858,17.566388999926858,0.0,0.0,2.3863386170130294,0.0,0.0,0.09100737,0.29338767,9.76898439,0.004775,-0.001165,0.004446
17.586372999940068,17.586372999940068,0.0,0.0,2.386434503305823,0.0,0.0,0.09236115,0.28709946,9.78305193,0.000544,-0.000948,0.004845
17.586372999940068,17.586372999940068,0.0,0.0,2.3864433324307255,0.0,0.0,0.09236115,0.28709946,9.78305193,0.000544,-0.000948,0.004845
17.626341999974102,17.626341999974102,0.0,0.0,2.3866209477847455,0.0,0.0,0.10358379,0.29189655,9.76733631,0.003059,0.002228,0.004535
17.64632599998731,17.64632599998731,0.0,0.0,2.3867084265146845,0.0,0.0,0.08547453,0.29069973,9.780511140000002,0.003082,-0.000791,0.004376
17.666311000008136,17.666311000008136,0.0,0.0,2.386788456961142,0.0,0.0,0.09236115,0.28186092,9.76254903,0.004895,-0.000157,0.003962
17.68629600002896,17.68629600002896,0.0,0.0,2.3868721449578576,0.0,0.0,0.08622009,0.29398608,9.76704201,0.003145,-0.00057,0.004171
17.706279999925755,17.706279999925755,0.0,0.0,2.3869634687487267,0.0,0.0,0.09295956,0.29024847,9.77646942,0.002821,-6.7e-05,0.004601
17.72626499994658,17.72626499994658,0.0,0.0,2.38703563558765,0.0,0.0,0.0808344,0.29159244,9.75836016,0.001124,-0.001068,0.00352
17.766233999980614,17.766233999980614,0.0,0.0,2.3872110704597542,0.0,0.0,0.08067744,0.28201788,9.78275763,0.003935,0.000323,0.004545
17.766233999980614,17.766233999980614,0.0,0.0,2.387215564573898,0.0,0.0,0.08067744,0.28201788,9.78275763,0.003935,0.000323,0.004545
17.806203000014648,17.806203000014648,0.0,0.0,2.387365463766569,0.0,0.0,0.09460764,0.28709946,9.77032836,0.004666,-0.000379,0.003131
17.826188000035472,17.826188000035472,0.0,0.0,2.3874657637869943,0.0,0.0,0.09355797,0.28725642,9.78589683,0.001993,-0.001678,0.00507
17.846171999932267,17.846171999932267,0.0,0.0,2.3875419095244155,0.0,0.0,0.09011466,0.27841761,9.7721334,0.003344,-0.001148,0.003778
17.86615699995309,17.86615699995309,0.0,0.0,2.3876189673444674,0.0,0.0,0.07739109,0.27587682,9.75716334,0.00214,-0.000641,0.003828
17.886141999973916,17.886141999973916,0.0,0.0,2.3877017295718446,0.0,0.0,0.10568313,0.29369178,9.77273181,0.003303,-0.001255,0.00414
17.906125999987125,17.906125999987125,0.0,0.0,2.3877913279350107,0.0,0.0,0.08337519,0.29173959,9.77960862,0.002845,0.000842,0.004515
17.92611100000795,17.92611100000795,0.0,0.0,2.3878722220602473,0.0,0.0,0.07409493,0.29293641,9.78320889,0.002146,-0.00048,0.004032
17.94609500002116,17.94609500002116,0.0,0.0,2.387931624813075,0.0,0.0,0.0960987599999999,0.28365615,9.77362452,0.002152,-9.6e-05,0.002842
17.96607999992557,17.96607999992557,0.0,0.0,2.388038575788693,0.0,0.0,0.08831943,0.28680516,9.76240188,0.002458,-0.001351,0.005505
17.986064999946393,17.986064999946393,0.0,0.0,2.388129269475545,0.0,0.0,0.09190989,0.29264211,9.77781339,0.005605,-0.001147,0.004578
18.006048999959603,18.006048999959603,0.0,0.0,2.3882169806678064,0.0,0.0,0.09325386,0.28620675,9.77347737,0.000431,0.001874,0.004406
18.026033999980427,18.026033999980427,0.0,0.0,2.3883114588509464,0.0,0.0,0.09040896,0.29024847,9.763893,0.005563,-0.001494,0.004785
18.046017999993637,18.046017999993637,0.0,0.0,2.3884209968310373,0.0,0.0,0.09145863,0.2778192,9.77377167,0.002895,0.000508,0.005629
18.06600300001446,18.06600300001446,0.0,0.0,2.388530456159142,0.0,0.0,0.08861373,0.28680516,9.768690090000002,0.0023,-0.001535,0.005605
18.085988000035286,18.085988000035286,0.0,0.0,2.388603230797112,0.0,0.0,0.0953532,0.29189655,9.77317326,0.001738,0.000776,0.003505
18.10597199993208,18.10597199993208,0.0,0.0,2.3886798760125885,0.0,0.0,0.07903917,0.28441152,9.768690090000002,0.001399,0.000173,0.003744
18.125956999952905,18.125956999952905,0.0,0.0,2.388765710469456,0.0,0.0,0.08427771,0.2920437,9.76404996,0.005435,-0.000587,0.00428
18.145940999966115,18.145940999966115,0.0,0.0,2.388848051821739,0.0,0.0,0.09400923,0.28006569,9.76943565,0.002877,-0.000818,0.004083
18.16592599998694,18.16592599998694,0.0,0.0,2.388947403363616,0.0,0.0,0.08562168,0.29264211,9.78245352,0.003968,-0.000424,0.00506
18.185911000007764,18.185911000007764,0.0,0.0,2.3890250896469816,0.0,0.0,0.09700128,0.29398608,9.7692885,0.002639,0.001803,0.003808
18.205895000020973,18.205895000020973,0.0,0.0,2.3891187967870353,0.0,0.0,0.0956475,0.29697813,9.76164651,0.004459,-0.001567,0.004737
18.245864999946207,18.245864999946207,0.0,0.0,2.3893034842538796,0.0,0.0,0.09504909,0.28740357,9.79129233,0.001603,-0.001431,0.004847
18.245864999946207,18.245864999946207,0.0,0.0,2.3893098351186675,0.0,0.0,0.09504909,0.28740357,9.79129233,0.001603,-0.001431,0.004847
18.28583399998024,18.28583399998024,0.0,0.0,2.389497768603233,0.0,0.0,0.08846658,0.29264211,9.76345155,0.001922,0.001206,0.004906
18.30581799999345,18.30581799999345,0.0,0.0,2.389559702844612,0.0,0.0,0.08756406,0.28769787,9.77362452,0.00382,-0.002113,0.002996
18.325803000014275,18.325803000014275,0.0,0.0,2.389677376754518,0.0,0.0,0.0925083,0.2948886,9.79038981,0.002107,0.00056,0.00601
18.3457880000351,18.3457880000351,0.0,0.0,2.389763106608111,0.0,0.0,0.06885639,0.28051695,9.79158663,0.003213,-0.004758,0.004264
18.365771999931894,18.365771999931894,0.0,0.0,2.389867022623511,0.0,0.0,0.08996751,0.28695231,9.76972995,0.003626,0.000116,0.005263
18.38575699995272,18.38575699995272,0.0,0.0,2.3899559938604424,0.0,0.0,0.09700128,0.28905165,9.7897914,0.003328,-0.001879,0.004433
18.40574099996593,18.40574099996593,0.0,0.0,2.390049435679509,0.0,0.0,0.08067744,0.2951829,9.75671208,0.003177,-0.000819,0.004683
18.425725999986753,18.425725999986753,0.0,0.0,2.3901128138914043,0.0,0.0,0.08935929,0.28156662,9.77677353,0.000176,0.000901,0.003007
18.445711000007577,18.445711000007577,0.0,0.0,2.3901936079292945,0.0,0.0,0.08921214,0.2951829,9.78485697,0.00389,-0.002807,0.004
18.465695000020787,18.465695000020787,0.0,0.0,2.3902600798850138,0.0,0.0,0.09340101,0.28785483,9.75656493,0.002608,0.000168,0.003201
18.48568000004161,18.48568000004161,0.0,0.0,2.390382012367086,0.0,0.0,0.1013373,0.29429019,9.76090095,0.003339,-0.001576,0.006341
18.505663999938406,18.505663999938406,0.0,0.0,2.390472093614024,0.0,0.0,0.08772102,0.28695231,9.79203789,0.003217,0.000326,0.004511
18.52564899995923,18.52564899995923,0.0,0.0,2.3905822233842766,0.0,0.0,0.08667135,0.28620675,9.78156081,0.002626,-0.000576,0.005646
18.52564899995923,18.52564899995923,0.0,0.0,2.3905979253132372,0.0,0.0,0.08667135,0.28620675,9.78156081,0.002626,-0.000576,0.005646
18.52564899995923,18.52564899995923,0.0,0.0,2.390610345469506,0.0,0.0,0.08667135,0.28620675,9.78156081,0.002626,-0.000576,0.005646
18.565617999993265,18.565617999993265,0.0,0.0,2.3908125200275467,0.0,0.0,0.0836793,0.2832147,9.77048532,0.002351,0.000719,0.005376
18.605588000034913,18.605588000034913,0.0,0.0,2.3909856642201666,0.0,0.0,0.07933347,0.28680516,9.76749327,0.002617,0.001717,0.003613
18.625571999931708,18.625571999931708,0.0,0.0,2.3910617541770884,0.0,0.0,0.09116433,0.28410741,9.77228055,0.003887,-0.002065,0.003698
18.645556999952532,18.645556999952532,0.0,0.0,2.39115541796688,0.0,0.0,0.10014048,0.28590264,9.75745764,0.005691,0.001777,0.004699
18.665540999965742,18.665540999965742,0.0,0.0,2.391236175291283,0.0,0.0,0.09071307,0.29429019,9.77048532,0.002197,-0.000392,0.003971
18.685525999986567,18.685525999986567,0.0,0.0,2.3913083019932984,0.0,0.0,0.09669717,0.28470582,9.78529842,0.003994,-0.00119,0.003493
18.7254950000206,18.7254950000206,0.0,0.0,2.3914869538258756,0.0,0.0,0.09700128,0.27961443,9.77677353,0.004671,-0.00168,0.004565
18.745480000041425,18.745480000041425,0.0,0.0,2.391576615631724,0.0,0.0,0.08981055,0.30221667,9.78305193,0.001064,-9.7e-05,0.004489
18.76546399993822,18.76546399993822,0.0,0.0,2.391657677280252,0.0,0.0,0.08801532,0.28934595,9.76613949,0.003805,-0.000176,0.00404
18.785448999959044,18.785448999959044,0.0,0.0,2.391722859403231,0.0,0.0,0.09624591,0.28620675,9.780815250000002,0.003949,-0.00272,0.003198
18.80543399997987,18.80543399997987,0.0,0.0,2.3917916330896496,0.0,0.0,0.09490194,0.28470582,9.78739776,0.001331,-0.00157,0.003389
18.82541799999308,18.82541799999308,0.0,0.0,2.391852485816708,0.0,0.0,0.08007903,0.29757654,9.75461274,0.004764,-0.000504,0.002963
