timestamp,time_rel,x,y,theta,vx,vy,accel_x,accel_y,accel_z,gyro_x,gyro_y,gyro_z
0.0,0.0,0.0,0.0,1.971110960172287,0.0,0.0,9.30315654,2.01436578,1.1047041,-0.002011,0.031099,-0.013321
0.01998400001320988,0.01998400001320988,0.0,0.0,1.6635970659082862,0.0,0.0,9.22815909,1.9130186700000005,1.09407006,-0.027744,0.056273,-0.029253
0.05995000002440065,0.05995000002440065,0.0,0.0,1.6622357182822185,0.0,0.0,9.27381483,1.96811163,1.0910780100000002,-0.052706,0.096601,-0.049272
0.05995000002440065,0.05995000002440065,0.0,0.0,1.6619735722343778,0.0,0.0,9.27381483,1.96811163,1.0910780100000002,-0.052706,0.096601,-0.049272
0.09991600003559142,0.09991600003559142,0.0,0.0,1.6605241632835455,0.0,0.0,9.62902512,2.16988371,1.00681011,-0.046159,0.126871,-0.037407
0.09991600003559142,0.09991600003559142,0.0,0.0,1.6604991032848098,0.0,0.0,9.62902512,2.16988371,1.00681011,-0.046159,0.126871,-0.037407
0.13988199998857453,0.13988199998857453,0.0,0.0,1.6596283109343943,0.0,0.0,9.72782163,2.09728971,1.26592164,-0.051091,0.1073,-0.005124
0.15986499999416992,0.15986499999416992,0.0,0.0,1.6595190909723048,0.0,0.0,9.6133095,2.01540564,1.29840255,-0.071971,0.082977,-0.003278
0.15986499999416992,0.15986499999416992,0.0,0.0,1.659872484680447,0.0,0.0,9.6133095,2.01540564,1.29840255,-0.071971,0.082977,-0.003278
0.19983200001297519,0.19983200001297519,0.0,0.0,1.6593430551636574,0.0,0.0,9.6622614,2.15402094,1.22775093,-0.085914,0.031125,-0.002098
0.21981500001857057,0.21981500001857057,0.0,0.0,1.6593717941286412,0.0,0.0,9.70371846,2.2219748100000003,1.1560496400000002,-0.061232,-0.003597,0.003624
0.21981500001857057,0.21981500001857057,0.0,0.0,1.6596787525395582,0.0,0.0,9.70371846,2.2219748100000003,1.1560496400000002,-0.061232,-0.003597,0.003624
0.21981500001857057,0.21981500001857057,0.0,0.0,1.6599149936769022,0.0,0.0,9.70371846,2.2219748100000003,1.1560496400000002,-0.061232,-0.003597,0.003624
0.27976400003535673,0.27976400003535673,0.0,0.0,1.659825580058837,0.0,0.0,9.46287315,2.14624161,1.24316244,-0.063276,-0.049062,0.022122
0.29974699998274446,0.29974699998274446,0.0,0.0,1.6602804598427898,0.0,0.0,9.37455372,2.29247928,1.1560496400000002,-0.040995,-0.034008,0.026519
0.29974699998274446,0.29974699998274446,0.0,0.0,1.66071603474008,0.0,0.0,9.37455372,2.29247928,1.1560496400000002,-0.040995,-0.034008,0.026519
0.3397129999939352,0.3397129999939352,0.0,0.0,1.661379861176071,0.0,0.0,9.24312915,2.3685264,1.08359298,0.041921,0.014513,0.035302
0.3596970000071451,0.3596970000071451,0.0,0.0,1.6621673277539113,0.0,0.0,9.13535649,2.29996431,1.1485646100000002,0.079104,0.040032,0.043877
0.3796800000127405,0.3796800000127405,0.0,0.0,1.663119201932207,0.0,0.0,8.980123050000001,2.2159907100000003,1.26007488,0.103428,0.062841,0.052549
0.3996630000183359,0.3996630000183359,0.0,0.0,1.6642897153712806,0.0,0.0,8.86292298,2.23081362,1.25035317,0.123077,0.088584,0.064266
0.41964600002393126,0.41964600002393126,0.0,0.0,1.6659447670694405,0.0,0.0,8.780440500000001,2.24174196,1.32249591,0.14363,0.130337,0.091053
0.43962900002952665,0.43962900002952665,0.0,0.0,1.6684268363858212,0.0,0.0,8.598415950000001,2.23679772,1.3644140400000002,0.164078,0.185813,0.137049
0.45961200003512204,0.45961200003512204,0.0,0.0,1.6717305781332819,0.0,0.0,8.36790057,2.05043715,1.4756300100000002,0.158147,0.252898,0.182113
0.47959499998250976,0.47959499998250976,0.0,0.0,1.6757389884586527,0.0,0.0,8.2598238,1.89565497,1.5760746,0.134773,0.317838,0.219953
0.49957799998810515,0.49957799998810515,0.0,0.0,1.6804394028884362,0.0,0.0,8.25788142,1.90913391,1.65361284,0.104213,0.390153,0.256724
0.5195609999937005,0.5195609999937005,0.0,0.0,1.6860806720365105,0.0,0.0,8.394397380000001,1.93113774,1.65211191,0.08526,0.498426,0.307462
0.5195609999937005,0.5195609999937005,0.0,0.0,1.6887431166666218,0.0,0.0,8.394397380000001,1.93113774,1.65211191,0.08526,0.498426,0.307462
0.5595280000125058,0.5595280000125058,0.0,0.0,1.6984388429321493,0.0,0.0,8.58853728,1.54479051,1.7670753,0.027483,0.703516,0.356649
0.5795110000181012,0.5795110000181012,0.0,0.0,1.7046092242167816,0.0,0.0,8.538692670000001,1.3232512800000005,1.88757153,-0.01527,0.780865,0.32778
0.619477000029292,0.619477000029292,0.0,0.0,1.712770438391388,0.0,0.0,8.399184660000001,1.14272766,2.0332206,-0.089589,0.913964,0.206632
0.619477000029292,0.619477000029292,0.0,0.0,1.712838092585117,0.0,0.0,8.399184660000001,1.14272766,2.0332206,-0.089589,0.913964,0.206632
0.6594429999822751,0.6594429999822751,0.0,0.0,1.7182850336011084,0.0,0.0,8.49887388,1.04587353,2.50788726,-0.169593,1.023085,0.061371
0.6794259999878705,0.6794259999878705,0.0,0.0,1.7187148905643213,0.0,0.0,8.57656908,1.14496434,2.73930516,-0.216334,1.065749,0.010126
0.6994100000010803,0.6994100000010803,0.0,0.0,1.7186859112635178,0.0,0.0,8.57701053,1.15574553,2.90021859,-0.259506,1.101039,-0.014222
0.7193930000066757,0.7193930000066757,0.0,0.0,1.7184509113397848,0.0,0.0,8.45037324,1.12715919,3.1145769000000003,-0.307504,1.138803,-0.024646
0.7193930000066757,0.7193930000066757,0.0,0.0,1.7162377719319188,0.0,0.0,8.45037324,1.12715919,3.1145769000000003,-0.307504,1.138803,-0.024646
0.7393760000122711,0.7393760000122711,0.0,0.0,1.717210114842656,0.0,0.0,8.67805353,1.42054686,3.39583941,-0.303415,1.166738,0.03788
0.7393760000122711,0.7393760000122711,0.0,0.0,1.7164736183005145,0.0,0.0,8.67805353,1.42054686,3.39583941,-0.303415,1.166738,0.03788
0.7393760000122711,0.7393760000122711,0.0,0.0,1.7158828131986077,0.0,0.0,8.67805353,1.42054686,3.39583941,-0.303415,1.166738,0.03788
0.7393760000122711,0.7393760000122711,0.0,0.0,1.7153983601929763,0.0,0.0,8.67805353,1.42054686,3.39583941,-0.303415,1.166738,0.03788
0.7393760000122711,0.7393760000122711,0.0,0.0,1.7149939135550651,0.0,0.0,8.67805353,1.42054686,3.39583941,-0.303415,1.166738,0.03788
0.7393760000122711,0.7393760000122711,0.0,0.0,1.7146511656959733,0.0,0.0,8.67805353,1.42054686,3.39583941,-0.303415,1.166738,0.03788
0.7793420000234619,0.7793420000234619,0.0,0.0,1.717509900128043,0.0,0.0,8.18946648,1.60376823,3.70823886,-0.293279,1.238357,0.076795
0.8592739999876358,0.8592739999876358,0.0,0.0,1.7275909947410497,0.0,0.0,8.31385728,0.80187921,4.1971202100000005,-0.368687,1.481164,0.334211
0.9192240000120364,0.9192240000120364,0.0,0.0,1.7383012476138457,0.0,0.0,7.522003890000001,0.7286868000000001,5.17473576,-0.515344,1.675791,0.298341
0.9392070000176318,0.9392070000176318,0.0,0.0,1.7443731185710645,0.0,0.0,7.566462810000001,0.91265373,5.28146856,-0.479644,1.696108,0.296037
0.9591900000232272,0.9591900000232272,0.0,0.0,1.7513666192662942,0.0,0.0,7.146889110000001,1.26516627,5.4660339,-0.399268,1.586604,0.345289
0.9791730000288226,0.9791730000288226,0.0,0.0,1.7592683465165884,0.0,0.0,7.375167810000001,1.17954459,6.10909902,-0.367552,1.50404,0.394308
0.999156000034418,0.999156000034418,0.0,0.0,1.7662052057239546,0.0,0.0,7.33220001,0.8264336400000001,6.2405235900000005,-0.331935,1.448237,0.348638
1.0191389999818057,1.0191389999818057,0.0,0.0,1.7718458638648524,0.0,0.0,7.40764872,0.37855809,6.195466260000001,-0.275541,1.378888,0.283361
1.0191389999818057,1.0191389999818057,0.0,0.0,1.7724202223341816,0.0,0.0,7.40764872,0.37855809,6.195466260000001,-0.275541,1.378888,0.283361
1.059106000000611,1.059106000000611,0.0,0.0,1.780125824013263,0.0,0.0,6.27211179,0.51118929,6.73284825,-0.18332,1.39684,0.124672
1.059106000000611,1.059106000000611,0.0,0.0,1.7782899705233008,0.0,0.0,6.27211179,0.51118929,6.73284825,-0.18332,1.39684,0.124672
1.0990720000118017,1.0990720000118017,0.0,0.0,1.7835643955327143,0.0,0.0,6.55502238,0.62465175,7.164998370000001,-0.050535,1.445894,0.027265
1.0990720000118017,1.0990720000118017,0.0,0.0,1.7808556749393007,0.0,0.0,6.55502238,0.62465175,7.164998370000001,-0.050535,1.445894,0.027265
1.0990720000118017,1.0990720000118017,0.0,0.0,1.778741131652291,0.0,0.0,6.55502238,0.62465175,7.164998370000001,-0.050535,1.445894,0.027265
1.1390380000229925,1.1390380000229925,0.0,0.0,1.7818393219313835,0.0,0.0,5.214260250000001,0.10733121,7.469471340000001,0.022832,1.540765,-0.038502
1.1790040000341833,1.1790040000341833,0.0,0.0,1.7816760794410538,0.0,0.0,5.42801034,0.54845748,7.997268960000001,0.0499,1.62137,-0.163613
1.1989879999891855,1.1989879999891855,0.0,0.0,1.7785170436416138,0.0,0.0,4.73495346,0.66371517,8.03498841,0.066545,1.710417,-0.180848
1.2189709999947809,1.2189709999947809,0.0,0.0,1.775226775530859,0.0,0.0,4.0478806800000005,0.55983708,8.42508306,0.071521,1.812334,-0.1859
1.2589370000059716,1.2589370000059716,0.0,0.0,1.7689711843484144,0.0,0.0,4.32585684,0.3333536099999999,9.13804443,0.07131,1.862095,-0.328153
1.278920000011567,1.278920000011567,0.0,0.0,1.761106095925114,0.0,0.0,3.89729718,0.25147935,9.27651258,0.054411,1.832796,-0.397236
1.2989030000171624,1.2989030000171624,0.0,0.0,1.7521120349060801,0.0,0.0,3.83532741,0.41583609,9.56615283,0.038453,1.721864,-0.459658
1.3188860000227578,1.3188860000227578,0.0,0.0,1.7421010597742743,0.0,0.0,3.75090255,0.6515998199999999,9.72901845,0.029728,1.567559,-0.515709
1.3388690000283532,1.3388690000283532,0.0,0.0,1.7315794601070174,0.0,0.0,3.42802602,0.82748331,9.87481467,0.032108,1.458606,-0.54447
1.3388690000283532,1.3388690000283532,0.0,0.0,1.7265386216716436,0.0,0.0,3.42802602,0.82748331,9.87481467,0.032108,1.458606,-0.54447
1.3788359999889508,1.3788359999889508,0.0,0.0,1.7104563492892098,0.0,0.0,3.08987532,0.86520276,10.38405177,0.042409,1.277817,-0.545684
1.3988189999945462,1.3988189999945462,0.0,0.0,1.7004356336870323,0.0,0.0,3.13897437,1.07806014,10.52745435,0.069783,1.086798,-0.517687
1.4188020000001416,1.4188020000001416,0.0,0.0,1.6910727727035235,0.0,0.0,2.79304434,1.32339843,10.637032050000002,0.114004,0.903739,-0.480422
1.4188020000001416,1.4188020000001416,0.0,0.0,1.6891694947149096,0.0,0.0,2.79304434,1.32339843,10.637032050000002,0.114004,0.903739,-0.480422
1.4188020000001416,1.4188020000001416,0.0,0.0,1.6876725530766974,0.0,0.0,2.79304434,1.32339843,10.637032050000002,0.114004,0.903739,-0.480422
1.4188020000001416,1.4188020000001416,0.0,0.0,1.6864643735310008,0.0,0.0,2.79304434,1.32339843,10.637032050000002,0.114004,0.903739,-0.480422
1.498734000022523,1.498734000022523,0.0,0.0,1.6569052506015431,0.0,0.0,1.74671955,0.75562506,10.42791228,0.025314,0.292832,-0.275984
1.518718000035733,1.518718000035733,0.0,0.0,1.652528097886517,0.0,0.0,1.75001571,0.85247919,10.4638365,-0.055849,0.228161,-0.197333
1.5387009999831207,1.5387009999831207,0.0,0.0,1.650004577782699,0.0,0.0,1.793268,0.94663557,10.44407916,-0.134425,0.172538,-0.095492
1.558683999988716,1.558683999988716,0.0,0.0,1.6493635477418644,0.0,0.0,1.53969912,0.77943393,10.176442740000002,-0.228276,0.171308,0.006781
1.5786669999943115,1.5786669999943115,0.0,0.0,1.6499448039312918,0.0,0.0,1.6341498,0.5996558700000001,10.18976472,-0.325131,0.161125,0.070442
1.5986499999999069,1.5986499999999069,0.0,0.0,1.65106855958825,0.0,0.0,1.6271160300000005,0.50535234,10.393940250000002,-0.41124,0.167599,0.095156
1.6186330000055023,1.6186330000055023,0.0,0.0,1.652867841988714,0.0,0.0,1.3638156300000002,0.55864026,10.66606965,-0.461382,0.218576,0.127923
1.6386160000110976,1.6386160000110976,0.0,0.0,1.6557705595642345,0.0,0.0,1.10350728,0.6914088,10.73552445,-0.464572,0.273252,0.185355
1.6586000000243075,1.6586000000243075,0.0,0.0,1.6594477725311823,0.0,0.0,0.96908085,0.75862692,10.64810754,-0.428702,0.282455,0.223742
1.678583000029903,1.678583000029903,0.0,0.0,1.6630625407626054,0.0,0.0,0.8707356,0.6974027100000001,10.48016034,-0.366948,0.259258,0.214342
1.6985660000354983,1.6985660000354983,0.0,0.0,1.6661925309510321,0.0,0.0,0.8975365200000001,0.51972399,10.44168552,-0.287919,0.223004,0.181682
1.718548999982886,1.718548999982886,0.0,0.0,1.6689518186325287,0.0,0.0,0.96503913,0.27991854,10.42956036,-0.198395,0.175043,0.156764
1.718548999982886,1.718548999982886,0.0,0.0,1.6709250202943862,0.0,0.0,0.96503913,0.27991854,10.42956036,-0.198395,0.175043,0.156764
1.7585149999940768,1.7585149999940768,0.0,0.0,1.6741543071638247,0.0,0.0,0.82507986,0.0754389,10.18347651,-0.054921,0.131731,0.129091
1.7784979999996722,1.7784979999996722,0.0,0.0,1.6767102442720452,0.0,0.0,0.80861868,0.17214588,10.32118929,0.003706,0.157135,0.138831
1.798482000012882,1.798482000012882,0.0,0.0,1.6795631242614597,0.0,0.0,0.90890631,0.31763799,10.489440600000002,0.069862,0.170885,0.154208
1.8184650000184774,1.8184650000184774,0.0,0.0,1.682767051678768,0.0,0.0,0.93076299,0.31959018,10.50590178,0.130029,0.172011,0.172643
1.8584310000296682,1.8584310000296682,0.0,0.0,1.6878783678082705,0.0,0.0,0.91624419,0.12558762,10.81980216,0.182152,0.155613,0.167323
1.8584310000296682,1.8584310000296682,0.0,0.0,1.6889769419023866,0.0,0.0,0.91624419,0.12558762,10.81980216,0.182152,0.155613,0.167323
1.8784140000352636,1.8784140000352636,0.0,0.0,1.6920013576902022,0.0,0.0,0.7821218700000001,0.16705449,10.561141890000002,0.172236,0.141641,0.158741
1.9183799999882467,1.9183799999882467,0.0,0.0,1.6971025242574438,0.0,0.0,0.39772683,-0.00928026,9.979899390000002,0.086415,0.15895,0.139735
1.9183799999882467,1.9183799999882467,0.0,0.0,1.697426218737462,0.0,0.0,0.39772683,-0.00928026,9.979899390000002,0.086415,0.15895,0.139735
1.9383640000014566,1.9383640000014566,0.0,0.0,1.6996141694836542,0.0,0.0,0.42257556,-0.06811083,9.85460607,0.012875,0.150202,0.106809
1.9783300000126474,1.9783300000126474,0.0,0.0,1.7034128599600953,0.0,0.0,0.40954788,-0.02559429,9.76000824,-0.117705,0.122688,0.065678
1.9983130000182427,1.9983130000182427,0.0,0.0,1.7044184100779916,0.0,0.0,0.41553198,0.02604555,9.68186178,-0.174195,0.094061,0.045101
2.018296000023838,2.018296000023838,0.0,0.0,1.7049309591144137,0.0,0.0,0.39412656,-0.04699971,9.71375409,-0.229325,0.083837,0.018562
2.018296000023838,2.018296000023838,0.0,0.0,1.7037582222710936,0.0,0.0,0.39412656,-0.04699971,9.71375409,-0.229325,0.083837,0.018562
2.0382790000294335,2.0382790000294335,0.0,0.0,1.7039491581023354,0.0,0.0,0.4451778,0.00269775,9.7143525,-0.260673,0.074151,-0.007409
2.078245999990031,2.078245999990031,0.0,0.0,1.7042672066844329,0.0,0.0,0.21584943,-0.37706697,11.30134563,-0.224062,0.131196,-0.068051
2.078245999990031,2.078245999990031,0.0,0.0,1.7023562550596703,0.0,0.0,0.21584943,-0.37706697,11.30134563,-0.224062,0.131196,-0.068051
2.118212000001222,2.118212000001222,0.0,0.0,1.7017675837208763,0.0,0.0,0.22228479,0.26839179,9.83185668,-0.054321,0.35983,-0.078202
2.1381950000068173,2.1381950000068173,0.0,0.0,1.700453001757115,0.0,0.0,0.44951382,0.8963397000000001,10.19515041,0.032875,0.234647,-0.075951
2.1581780000124127,2.1581780000124127,0.0,0.0,1.6993198349805816,0.0,0.0,-0.23096664,-0.19893699,9.77661657,0.057208,0.331379,-0.064469
2.178161000018008,2.178161000018008,0.0,0.0,1.6983079678745394,0.0,0.0,0.15971661,-0.38828961,9.74967831,0.009228,0.354535,-0.056637
2.1981440000236034,2.1981440000236034,0.0,0.0,1.697345548264856,0.0,0.0,0.03577707,-0.38544471,9.60971904,-0.029162,0.324751,-0.053059
2.2181280000368133,2.2181280000368133,0.0,0.0,1.6967477604305161,0.0,0.0,-0.18172044,-0.5234616,9.63875664,-0.080777,0.328691,-0.031783
2.238110999984201,2.238110999984201,0.0,0.0,1.6963980449083165,0.0,0.0,-0.05658408,-0.33485454,9.3967047,-0.082544,0.311675,-0.01747
2.238110999984201,2.238110999984201,0.0,0.0,1.696401574228406,0.0,0.0,-0.05658408,-0.33485454,9.3967047,-0.082544,0.311675,-0.01747
2.238110999984201,2.238110999984201,0.0,0.0,1.6964043607183301,0.0,0.0,-0.05658408,-0.33485454,9.3967047,-0.082544,0.311675,-0.01747
2.238110999984201,2.238110999984201,0.0,0.0,1.6964066165675726,0.0,0.0,-0.05658408,-0.33485454,9.3967047,-0.082544,0.311675,-0.01747
2.238110999984201,2.238110999984201,0.0,0.0,1.6964084801757267,0.0,0.0,-0.05658408,-0.33485454,9.3967047,-0.082544,0.311675,-0.01747
2.238110999984201,2.238110999984201,0.0,0.0,1.6964100456628781,0.0,0.0,-0.05658408,-0.33485454,9.3967047,-0.082544,0.311675,-0.01747
2.238110999984201,2.238110999984201,0.0,0.0,1.6964113792665563,0.0,0.0,-0.05658408,-0.33485454,9.3967047,-0.082544,0.311675,-0.01747
2.238110999984201,2.238110999984201,0.0,0.0,1.696412528954843,0.0,0.0,-0.05658408,-0.33485454,9.3967047,-0.082544,0.311675,-0.01747
2.238110999984201,2.238110999984201,0.0,0.0,1.6964135303188446,0.0,0.0,-0.05658408,-0.33485454,9.3967047,-0.082544,0.311675,-0.01747
2.298060000000987,2.298060000000987,0.0,0.0,1.6963955312491645,0.0,0.0,0.33978897,0.95022603,10.079137350000002,0.15697,0.254477,0.076321
2.3779930000309832,2.3779930000309832,0.0,0.0,1.6968830496705287,0.0,0.0,-0.34398765,0.24129657,9.70626906,-0.00719,0.026771,0.056419
2.457924999995157,2.457924999995157,0.0,0.0,1.6947672669261822,0.0,0.0,-0.62779095,0.54905589,9.7086627,-0.047214,-0.005462,-0.096031
2.477909000008367,2.477909000008367,0.0,0.0,1.6924032914898302,0.0,0.0,-0.50579379,0.55608966,10.16102142,-0.059471,-0.005682,-0.105734
2.5178750000195578,2.5178750000195578,0.0,0.0,1.6939055254610844,0.0,0.0,0.19250163,-0.22617936,9.82197801,-0.019249,-0.024971,0.081364
2.537858000025153,2.537858000025153,0.0,0.0,1.6960363854017206,0.0,0.0,0.24189498,-0.48634056,10.1746377,0.026211,0.01097,0.08916
2.537858000025153,2.537858000025153,0.0,0.0,1.6977329133266164,0.0,0.0,0.24189498,-0.48634056,10.1746377,0.026211,0.01097,0.08916
2.577824000036344,2.577824000036344,0.0,0.0,1.697803686201409,0.0,0.0,-0.13621185,-0.58004568,9.49924863,0.008786,-0.008184,-0.010717
2.577824000036344,2.577824000036344,0.0,0.0,1.6973634608955264,0.0,0.0,-0.13621185,-0.58004568,9.49924863,0.008786,-0.008184,-0.010717
2.6177909999969415,2.6177909999969415,0.0,0.0,1.6984184858089462,0.0,0.0,-0.12379239,-0.14729715,9.75580956,0.003961,-0.005236,0.042228
2.6177909999969415,2.6177909999969415,0.0,0.0,1.6989213137916677,0.0,0.0,-0.12379239,-0.14729715,9.75580956,0.003961,-0.005236,0.042228
2.637774000002537,2.637774000002537,0.0,0.0,1.7013428865840057,0.0,0.0,-0.25222491,-0.00837774,9.81643536,0.007067,0.008113,0.133134
2.6777400000137277,2.6777400000137277,0.0,0.0,1.7033967378050736,0.0,0.0,-0.67958775,0.3614985,9.71135064,0.000567,0.003243,0.070441
2.697723000019323,2.697723000019323,0.0,0.0,1.7026368888009973,0.0,0.0,-0.81416133,0.79140213,9.81523854,0.016596,-0.001932,-0.040194
2.697723000019323,2.697723000019323,0.0,0.0,1.701490529556577,0.0,0.0,-0.81416133,0.79140213,9.81523854,0.016596,-0.001932,-0.040194
2.7177060000249185,2.7177060000249185,0.0,0.0,1.7005989745201564,0.0,0.0,-0.3182364,0.38515041,9.78784902,-0.009894,-0.003193,-0.055545
2.757672999985516,2.757672999985516,0.0,0.0,1.701201957810417,0.0,0.0,0.19878984,0.12379239,9.79413723,-0.002897,0.002491,0.021349
2.7776559999911115,2.7776559999911115,0.0,0.0,1.7016103733988102,0.0,0.0,-0.16061913,-0.329616,9.69713595,-0.004623,-0.002174,0.021056
2.7776559999911115,2.7776559999911115,0.0,0.0,1.7017506429624785,0.0,0.0,-0.16061913,-0.329616,9.69713595,-0.004623,-0.002174,0.021056
2.8176220000023022,2.8176220000023022,0.0,0.0,1.7020560450228395,0.0,0.0,-0.49502241,-0.25147935,9.78230637,0.009421,-0.004292,0.000662
2.8376050000078976,2.8376050000078976,0.0,0.0,1.7021617290814683,0.0,0.0,-0.26494848,-0.00509139,9.78440571,0.005922,0.001915,0.004668
2.857588000013493,2.857588000013493,0.0,0.0,1.7022703293710784,0.0,0.0,-0.09355797,0.29369178,9.82107549,0.008333,-0.00274,0.004887
2.877572000026703,2.877572000026703,0.0,0.0,1.7023779319555663,0.0,0.0,-0.19518957,0.34024023,9.79009551,0.008333,-0.00274,0.004887
2.8975550000322983,2.8975550000322983,0.0,0.0,1.7025074568333105,0.0,0.0,-0.18471249,0.24444558,9.77737194,-0.003246,-0.002705,0.006163
2.8975550000322983,2.8975550000322983,0.0,0.0,1.7024645324686913,0.0,0.0,-0.18471249,0.24444558,9.77737194,-0.003246,-0.002705,0.006163
2.8975550000322983,2.8975550000322983,0.0,0.0,1.7024306944898129,0.0,0.0,-0.18471249,0.24444558,9.77737194,-0.003246,-0.002705,0.006163
2.9375209999852814,2.9375209999852814,0.0,0.0,1.7026564885795619,0.0,0.0,-0.21840003,-0.14654178,9.78261048,0.002162,-7.6e-05,0.001695
2.977486999996472,2.977486999996472,0.0,0.0,1.7028629324885438,0.0,0.0,-0.23845167,-0.03817071,9.7841016,0.0044,-0.000514,0.002393
2.9974700000020675,2.9974700000020675,0.0,0.0,1.702918025029545,0.0,0.0,-0.21555513,0.16061913,9.78993855,0.004914,-0.000145,0.002324
3.0174540000152774,3.0174540000152774,0.0,0.0,1.7030074906601378,0.0,0.0,-0.20776599,0.19295289,9.77856876,0.002447,-2.6e-05,0.004291
3.037437000020873,3.037437000020873,0.0,0.0,1.7030991174205479,0.0,0.0,-0.2052252,0.19040229,9.77751909,0.000182,-0.002295,0.004435
3.057420000026468,3.057420000026468,0.0,0.0,1.703210403917546,0.0,0.0,-0.22199049,0.06675705,9.78500412,0.001564,3.5e-05,0.005557
3.0774030000320636,3.0774030000320636,0.0,0.0,1.7032932202366293,0.0,0.0,-0.23007393,-0.07724394,9.78904584,0.002447,-0.000255,0.003956
3.097386000037659,3.097386000037659,0.0,0.0,1.7033842662673262,0.0,0.0,-0.25297047,-0.07469334,9.78634809,0.004771,-0.002072,0.004445
3.137351999990642,3.137351999990642,0.0,0.0,1.7035632884292857,0.0,0.0,-0.22722903,0.10208286,9.79368597,0.004115,-6.2e-05,0.003637
3.137351999990642,3.137351999990642,0.0,0.0,1.7035391256255714,0.0,0.0,-0.22722903,0.10208286,9.79368597,0.004115,-6.2e-05,0.003637
3.1773190000094473,3.1773190000094473,0.0,0.0,1.7037324580603785,0.0,0.0,-0.21106215,0.11780829,9.78290478,0.001714,0.000296,0.004805
3.1773190000094473,3.1773190000094473,0.0,0.0,1.7037315790999408,0.0,0.0,-0.21106215,0.11780829,9.78290478,0.001714,0.000296,0.004805
3.217285000020638,3.217285000020638,0.0,0.0,1.7039006076580385,0.0,0.0,-0.23576373,-0.02110131,9.77333022,0.001682,0.000735,0.003515
3.217285000020638,3.217285000020638,0.0,0.0,1.7038819561662244,0.0,0.0,-0.23576373,-0.02110131,9.77333022,0.001682,0.000735,0.003515
3.217285000020638,3.217285000020638,0.0,0.0,1.7038674420402735,0.0,0.0,-0.23576373,-0.02110131,9.77333022,0.001682,0.000735,0.003515
3.2772340000374243,3.2772340000374243,0.0,0.0,1.7041383477610408,0.0,0.0,-0.21720321,0.11929941,9.78036399,0.002595,0.000721,0.00478
3.2972179999924265,3.2972179999924265,0.0,0.0,1.704196346453891,0.0,0.0,-0.22992678,0.11256975,9.79158663,0.002096,0.001737,0.002728
3.2972179999924265,3.2972179999924265,0.0,0.0,1.7041729567691677,0.0,0.0,-0.22992678,0.11256975,9.79158663,0.002096,0.001737,0.002728
3.3371840000036173,3.3371840000036173,0.0,0.0,1.7043186705856606,0.0,0.0,-0.22588506,-0.00688662,9.79024266,0.002497,-0.000538,0.003168
3.3371840000036173,3.3371840000036173,0.0,0.0,1.7043071441114037,0.0,0.0,-0.22588506,-0.00688662,9.79024266,0.002497,-0.000538,0.003168
3.377150000014808,3.377150000014808,0.0,0.0,1.704471740574867,0.0,0.0,-0.23067234,0.0375723,9.77960862,0.004592,-0.001165,0.004501
3.377150000014808,3.377150000014808,0.0,0.0,1.7044808444767625,0.0,0.0,-0.23067234,0.0375723,9.77960862,0.004592,-0.001165,0.004501
3.417116000025999,3.417116000025999,0.0,0.0,1.704659063223315,0.0,0.0,-0.22108797,0.15433092,9.77541975,0.003243,0.001734,0.005066
3.417116000025999,3.417116000025999,0.0,0.0,1.7046733500309177,0.0,0.0,-0.22108797,0.15433092,9.77541975,0.003243,0.001734,0.005066
3.4570829999865964,3.4570829999865964,0.0,0.0,1.7048344416397407,0.0,0.0,-0.21959685,0.09415638,9.78290478,0.002617,0.000327,0.003746
3.477065999992192,3.477065999992192,0.0,0.0,1.7049103958142684,0.0,0.0,-0.23486121,0.03202965,9.76628664,0.002617,0.000327,0.003746
3.477065999992192,3.477065999992192,0.0,0.0,1.7049046538172128,0.0,0.0,-0.23486121,0.03202965,9.76628664,0.002617,0.000327,0.003746
3.5170320000033826,3.5170320000033826,0.0,0.0,1.705025691170725,0.0,0.0,-0.2399526,-0.04909905,9.76778757,0.003586,-0.000478,0.001669
3.5170320000033826,3.5170320000033826,0.0,0.0,1.7049940695293113,0.0,0.0,-0.2399526,-0.04909905,9.76778757,0.003586,-0.000478,0.001669
3.5170320000033826,3.5170320000033826,0.0,0.0,1.704969322171345,0.0,0.0,-0.2399526,-0.04909905,9.76778757,0.003586,-0.000478,0.001669
3.576982000027783,3.576982000027783,0.0,0.0,1.7051614098043508,0.0,0.0,-0.23770611,0.16914402,9.75236625,-0.000617,0.000913,0.00299
3.5969650000333786,3.5969650000333786,0.0,0.0,1.705221857872285,0.0,0.0,-0.17184177,0.28994436,9.79562835,-0.000617,0.000913,0.00299
3.616948000038974,3.616948000038974,0.0,0.0,1.7053188012592937,0.0,0.0,-0.22108797,0.14429529,9.793087560000002,0.003842,0.000955,0.005106
3.616948000038974,3.616948000038974,0.0,0.0,1.7053435953947513,0.0,0.0,-0.22108797,0.14429529,9.793087560000002,0.003842,0.000955,0.005106
3.656913999991957,3.656913999991957,0.0,0.0,1.705473322917241,0.0,0.0,-0.23605803,-0.10208286,9.77886306,0.004402,-0.002532,0.002685
3.6768969999975525,3.6768969999975525,0.0,0.0,1.7055897587445923,0.0,0.0,-0.25282332,-0.09190989,9.77826465,0.006493,0.000429,0.006183
3.6968810000107624,3.6968810000107624,0.0,0.0,1.7057402780566822,0.0,0.0,-0.23920704,0.02215098,9.77018121,0.002239,-0.001552,0.008092
3.7168640000163577,3.7168640000163577,0.0,0.0,1.7058441734161631,0.0,0.0,-0.2297698199999999,0.18905832,9.78515127,0.004269,0.00014,0.005311
3.736847000021953,3.736847000021953,0.0,0.0,1.7059661854183155,0.0,0.0,-0.1850166,0.21420135,9.79952292,0.002668,-0.000972,0.006338
3.7568300000275485,3.7568300000275485,0.0,0.0,1.7059636223989267,0.0,0.0,-0.18576216,0.2112093,9.77871591,-0.002221,-0.003698,-0.00088
3.776813000033144,3.776813000033144,0.0,0.0,1.705970725299606,0.0,0.0,-0.24174783,0.10972485,9.77871591,-0.001311,0.000962,-0.000206
3.7967960000387393,3.7967960000387393,0.0,0.0,1.7060861941348566,0.0,0.0,-0.22213764,-0.0722997,9.78634809,0.001523,-0.001818,0.006125
3.8167799999937415,3.8167799999937415,0.0,0.0,1.706170117213171,0.0,0.0,-0.27018702,-0.14759145,9.77302611,0.005966,0.001598,0.004254
3.8167799999937415,3.8167799999937415,0.0,0.0,1.7061756263988919,0.0,0.0,-0.27018702,-0.14759145,9.77302611,0.005966,0.001598,0.004254
3.8567460000049323,3.8567460000049323,0.0,0.0,1.7063306983541633,0.0,0.0,-0.20881566,0.06840513,9.75955698,0.006055,0.002594,0.003806
3.896712000016123,3.896712000016123,0.0,0.0,1.7065019841430438,0.0,0.0,-0.22318731,0.17154747,9.77646942,0.003123,-0.001244,0.004678
3.896712000016123,3.896712000016123,0.0,0.0,1.7065128364824735,0.0,0.0,-0.22318731,0.17154747,9.77646942,0.003123,-0.001244,0.004678
3.936678000027314,3.936678000027314,0.0,0.0,1.706630421717243,0.0,0.0,-0.21255327,0.09100737,9.77467419,-0.000139,0.000804,0.001621
3.936678000027314,3.936678000027314,0.0,0.0,1.706595401495437,0.0,0.0,-0.21255327,0.09100737,9.77467419,-0.000139,0.000804,0.001621
3.9766449999879114,3.9766449999879114,0.0,0.0,1.7067116089021974,0.0,0.0,-0.25836597,-0.10492776,9.76345155,0.004372,0.000216,0.002234
3.996627999993507,3.996627999993507,0.0,0.0,1.7067610235728221,0.0,0.0,-0.22304016,-0.02499588,9.780815250000002,0.00538,0.000797,0.002396
3.996627999993507,3.996627999993507,0.0,0.0,1.7067484865619882,0.0,0.0,-0.22304016,-0.02499588,9.780815250000002,0.00538,0.000797,0.002396
4.016610999999102,4.016610999999102,0.0,0.0,1.7068088737251923,0.0,0.0,-0.22438413,0.0960987599999999,9.78620094,0.005564,0.00115,0.003008
4.016610999999102,4.016610999999102,0.0,0.0,1.706807950414646,0.0,0.0,-0.22438413,0.0960987599999999,9.78620094,0.005564,0.00115,0.003008
4.076561000023503,4.076561000023503,0.0,0.0,1.7070338339885307,0.0,0.0,-0.23081949,0.04535163,9.79323471,0.001091,0.000104,0.005409
4.076561000023503,4.076561000023503,0.0,0.0,1.7070652275547307,0.0,0.0,-0.23081949,0.04535163,9.79323471,0.001091,0.000104,0.005409
4.096544000029098,4.096544000029098,0.0,0.0,1.707166165554459,0.0,0.0,-0.21959685,-0.05687838,9.77482134,0.001091,0.000104,0.005409
4.116527000034694,4.116527000034694,0.0,0.0,1.7072727663379457,0.0,0.0,-0.21914559,-0.0552302999999999,9.78424875,0.000995,0.002251,0.005687
4.116527000034694,4.116527000034694,0.0,0.0,1.7072950702151477,0.0,0.0,-0.21914559,-0.0552302999999999,9.78424875,0.000995,0.002251,0.005687
4.176475999993272,4.176475999993272,0.0,0.0,1.7075456657341324,0.0,0.0,-0.20582361,0.1764819,9.79682517,0.001351,-3.2e-05,0.003902
4.196460000006482,4.196460000006482,0.0,0.0,1.707624344305044,0.0,0.0,-0.22917141,0.11436498,9.79817895,0.001351,-3.2e-05,0.003902
4.216443000012077,4.216443000012077,0.0,0.0,1.7076635506862363,0.0,0.0,-0.22872015,0.01212516,9.77751909,0.0022,-0.000844,0.001697
4.216443000012077,4.216443000012077,0.0,0.0,1.707630013716746,0.0,0.0,-0.22872015,0.01212516,9.77751909,0.0022,-0.000844,0.001697
4.256409000023268,4.256409000023268,0.0,0.0,1.7078030258931634,0.0,0.0,-0.23785326,0.00344331,9.77632227,0.003238,-0.001017,0.005278
4.2763920000288635,4.2763920000288635,0.0,0.0,1.7078737992014261,0.0,0.0,-0.22108797,0.06452037,9.77452704,0.002831,-0.002093,0.003506
4.296375000034459,4.296375000034459,0.0,0.0,1.7079563892911276,0.0,0.0,-0.22153923,0.11945637,9.78739776,0.002457,-0.001495,0.004181
4.296375000034459,4.296375000034459,0.0,0.0,1.707961875271912,0.0,0.0,-0.22153923,0.11945637,9.78739776,0.002457,-0.001495,0.004181
4.3363419999950565,4.3363419999950565,0.0,0.0,1.7081095229824008,0.0,0.0,-0.2342628,0.05927202,9.780511140000002,0.002769,7.9e-05,0.003469
4.3363419999950565,4.3363419999950565,0.0,0.0,1.7081042023275863,0.0,0.0,-0.2342628,0.05927202,9.780511140000002,0.002769,7.9e-05,0.003469
4.376309000013862,4.376309000013862,0.0,0.0,1.7082554792816271,0.0,0.0,-0.22632651,-0.00643536,9.77781339,0.002927,0.000147,0.003801
4.396292000019457,4.396292000019457,0.0,0.0,1.708327937650413,0.0,0.0,-0.22558095,0.04266369,9.77572386,0.002354,0.000462,0.003604
4.416276000032667,4.416276000032667,0.0,0.0,1.708428692136259,0.0,0.0,-0.22139208,0.09220419,9.77916717,0.003059,-0.000902,0.00523
4.416276000032667,4.416276000032667,0.0,0.0,1.7084482902351397,0.0,0.0,-0.22139208,0.09220419,9.77916717,0.003059,-0.000902,0.00523
4.416276000032667,4.416276000032667,0.0,0.0,1.7084637034105388,0.0,0.0,-0.22139208,0.09220419,9.77916717,0.003059,-0.000902,0.00523
4.476224999991246,4.476224999991246,0.0,0.0,1.7087205678581743,0.0,0.0,-0.23291883,0.03862197,9.79113537,0.001803,-0.000283,0.00443
4.496207999996841,4.496207999996841,0.0,0.0,1.7088183321006758,0.0,0.0,-0.23830452,0.01302768,9.7721334,0.005186,-0.00128,0.004992
4.496207999996841,4.496207999996841,0.0,0.0,1.7088279359620575,0.0,0.0,-0.23830452,0.01302768,9.7721334,0.005186,-0.00128,0.004992
4.536175000015646,4.536175000015646,0.0,0.0,1.7089916531830243,0.0,0.0,-0.22467843,0.05957613,9.77377167,0.003262,0.000211,0.003649
4.556158000021242,4.556158000021242,0.0,0.0,1.7090728436305884,0.0,0.0,-0.21195486,0.06960195,9.78814332,0.003163,-0.00125,0.004022
4.576141000026837,4.576141000026837,0.0,0.0,1.7091586933872307,0.0,0.0,-0.22648347,0.07439904,9.78769206,0.003218,0.000754,0.004298
4.596124000032432,4.596124000032432,0.0,0.0,1.7092289012691255,0.0,0.0,-0.21809592,0.06196977,9.79502994,0.002018,-0.000622,0.003395
4.616107000038028,4.616107000038028,0.0,0.0,1.709302404613239,0.0,0.0,-0.22408002,0.03831786,9.77347737,0.001562,-0.001482,0.003604
4.6360899999854155,4.6360899999854155,0.0,0.0,1.7093945778743986,0.0,0.0,-0.22408002,0.04879494,9.77946147,0.002602,-0.001803,0.004692
4.656073999998625,4.656073999998625,0.0,0.0,1.7094916204516029,0.0,0.0,-0.22797459,0.04445892,9.77362452,0.003449,-0.000656,0.00496
4.696039000002202,4.696039000002202,0.0,0.0,1.7096494194415621,0.0,0.0,-0.21884148,0.06960195,9.7752726,0.004673,0.000899,0.003599
4.696039000002202,4.696039000002202,0.0,0.0,1.7096397046125986,0.0,0.0,-0.21884148,0.06960195,9.7752726,0.004673,0.000899,0.003599
4.7160230000154115,4.7160230000154115,0.0,0.0,1.7097243481708748,0.0,0.0,-0.22363857,0.05328792,9.76404996,0.002778,-0.000588,0.00426
4.7160230000154115,4.7160230000154115,0.0,0.0,1.709726411628358,0.0,0.0,-0.22363857,0.05328792,9.76404996,0.002778,-0.000588,0.00426
4.7759729999816045,4.7759729999816045,0.0,0.0,1.7099399244229714,0.0,0.0,-0.21989115,0.03967164,9.7664436,0.002261,-0.000265,0.002279
4.7759729999816045,4.7759729999816045,0.0,0.0,1.7099143096636062,0.0,0.0,-0.21989115,0.03967164,9.7664436,0.002261,-0.000265,0.002279
4.815938999992795,4.815938999992795,0.0,0.0,1.7100947057521108,0.0,0.0,-0.21510387,0.06930765,9.77377167,0.003708,-0.000965,0.005532
4.815938999992795,4.815938999992795,0.0,0.0,1.7101202849409107,0.0,0.0,-0.21510387,0.06930765,9.77377167,0.003708,-0.000965,0.005532
4.855903999996372,4.855903999996372,0.0,0.0,1.710311464892527,0.0,0.0,-0.22483539,0.04535163,9.77108373,0.002065,0.001609,0.005579
4.855903999996372,4.855903999996372,0.0,0.0,1.7103310250258126,0.0,0.0,-0.22483539,0.04535163,9.77108373,0.002065,0.001609,0.005579
4.855903999996372,4.855903999996372,0.0,0.0,1.7103462421364064,0.0,0.0,-0.22483539,0.04535163,9.77108373,0.002065,0.001609,0.005579
4.895872000022791,4.895872000022791,0.0,0.0,1.7105255449269645,0.0,0.0,-0.2314179,0.0464013,9.77677353,0.002954,-0.000838,0.004296
4.935838000033982,4.935838000033982,0.0,0.0,1.7106965510295264,0.0,0.0,-0.21720321,0.04730382,9.7894971,0.003172,-0.000636,0.003927
4.935838000033982,4.935838000033982,0.0,0.0,1.7106878260785416,0.0,0.0,-0.21720321,0.04730382,9.7894971,0.003172,-0.000636,0.003927
4.975803999986965,4.975803999986965,0.0,0.0,1.7108583502092376,0.0,0.0,-0.21704625,0.04221243,9.78605379,0.002388,0.000829,0.004094
4.995788000000175,4.995788000000175,0.0,0.0,1.710947023445649,0.0,0.0,-0.22318731,0.046107,9.77452704,0.003091,-0.001953,0.004446
5.015769999998156,5.015769999998156,0.0,0.0,1.7110340863478122,0.0,0.0,-0.21899844,0.04371336,9.793087560000002,0.002834,-0.001263,0.004355
5.015769999998156,5.015769999998156,0.0,0.0,1.7110338275433445,0.0,0.0,-0.21899844,0.04371336,9.793087560000002,0.002834,-0.001263,0.004355
5.015769999998156,5.015769999998156,0.0,0.0,1.711033624803867,0.0,0.0,-0.21899844,0.04371336,9.793087560000002,0.002834,-0.001263,0.004355
5.055737000016961,5.055737000016961,0.0,0.0,1.7111837424517624,0.0,0.0,-0.21031659,0.04371336,9.78829047,0.003009,0.000481,0.002833
5.0957040000357665,5.0957040000357665,0.0,0.0,1.7113232985785736,0.0,0.0,-0.21884148,0.05643693,9.78290478,0.003497,-0.000295,0.002668
5.115686999983154,5.115686999983154,0.0,0.0,1.7114340868031288,0.0,0.0,-0.22902426,0.04056435,9.77137803,0.003277,0.000603,0.005722
5.13566999998875,5.13566999998875,0.0,0.0,1.7115118958512188,0.0,0.0,-0.21840003,0.05223825,9.79098822,0.002327,-0.001179,0.003858
5.155652999994345,5.155652999994345,0.0,0.0,1.711567936722452,0.0,0.0,-0.21240612,0.04730382,9.79233219,0.001941,-0.000306,0.002643
5.17563599999994,5.17563599999994,0.0,0.0,1.711626454548771,0.0,0.0,-0.22512969,0.04939335,9.77946147,0.001731,-0.000357,0.002803
5.195619000005536,5.195619000005536,0.0,0.0,1.7117101792866265,0.0,0.0,-0.22887711,0.05747679,9.77587101,0.002905,-0.000925,0.00424
5.215603000018746,5.215603000018746,0.0,0.0,1.711797954311181,0.0,0.0,-0.22063671,0.05553441,9.780815250000002,0.00475,0.000121,0.004462
5.235586000024341,5.235586000024341,0.0,0.0,1.7118734954869161,0.0,0.0,-0.23081949,0.06287229,9.78245352,0.002551,-0.000287,0.00376
5.255569000029936,5.255569000029936,0.0,0.0,1.7119429445220664,0.0,0.0,-0.22648347,0.0538863299999999,9.78545538,0.00214,0.000108,0.003417
5.275552000035532,5.275552000035532,0.0,0.0,1.7120108805351624,0.0,0.0,-0.22304016,0.0538863299999999,9.79398027,0.003553,-2.7e-05,0.003339
5.275552000035532,5.275552000035532,0.0,0.0,1.7120040638334277,0.0,0.0,-0.22304016,0.0538863299999999,9.79398027,0.003553,-2.7e-05,0.003339
5.315518999996129,5.315518999996129,0.0,0.0,1.7121636478808187,0.0,0.0,-0.22768029,0.0511983899999999,9.79113537,0.004067,-0.00063,0.004336
5.315518999996129,5.315518999996129,0.0,0.0,1.712171746264933,0.0,0.0,-0.22768029,0.0511983899999999,9.79113537,0.004067,-0.00063,0.004336
5.375467000005301,5.375467000005301,0.0,0.0,1.7124040494332196,0.0,0.0,-0.2257281,0.05463189,9.78529842,0.003223,-0.001735,0.003881
5.375467000005301,5.375467000005301,0.0,0.0,1.71240417170654,0.0,0.0,-0.2257281,0.05463189,9.78529842,0.003223,-0.001735,0.003881
5.415434000024106,5.415434000024106,0.0,0.0,1.7125624310271181,0.0,0.0,-0.22812174,0.0520911,9.780658290000002,0.002552,-0.000166,0.004057
5.415434000024106,5.415434000024106,0.0,0.0,1.7125649628932278,0.0,0.0,-0.22812174,0.0520911,9.780658290000002,0.002552,-0.000166,0.004057
5.455400000035297,5.455400000035297,0.0,0.0,1.7127328265705444,0.0,0.0,-0.22153923,0.04984461,9.78245352,0.00398,0.000394,0.00453
5.455400000035297,5.455400000035297,0.0,0.0,1.712741169090994,0.0,0.0,-0.22153923,0.04984461,9.78245352,0.00398,0.000394,0.00453
5.475382999982685,5.475382999982685,0.0,0.0,1.7128299522723287,0.0,0.0,-0.22527684,0.06211692,9.79129233,0.00398,0.000394,0.00453
5.49536599998828,5.49536599998828,0.0,0.0,1.7129027230655538,0.0,0.0,-0.22872015,0.05059017,9.77587101,0.002608,0.000977,0.003531
5.51535000000149,5.51535000000149,0.0,0.0,1.7129927643148042,0.0,0.0,-0.23216346,0.04999176,9.79488279,0.002274,-0.000354,0.004603
5.5353330000070855,5.5353330000070855,0.0,0.0,1.7130785397139832,0.0,0.0,-0.2112093,0.05747679,9.78215922,0.000968,-0.000131,0.004327
5.575299000018276,5.575299000018276,0.0,0.0,1.7132582086016006,0.0,0.0,-0.22438413,0.04580289,9.78485697,0.003683,-0.000367,0.004891
5.575299000018276,5.575299000018276,0.0,0.0,1.7132684589993268,0.0,0.0,-0.22438413,0.04580289,9.78485697,0.003683,-0.000367,0.004891
5.6152660000370815,5.6152660000370815,0.0,0.0,1.7134036530156802,0.0,0.0,-0.23366439,0.04850064,9.79368597,0.003203,0.000658,0.002244
5.6152660000370815,5.6152660000370815,0.0,0.0,1.713374977960302,0.0,0.0,-0.23366439,0.04850064,9.79368597,0.003203,0.000658,0.002244
5.6152660000370815,5.6152660000370815,0.0,0.0,1.713352675472299,0.0,0.0,-0.23366439,0.04850064,9.79368597,0.003203,0.000658,0.002244
5.655231999990065,5.655231999990065,0.0,0.0,1.7135179363540072,0.0,0.0,-0.22692492,0.04400766,9.78185511,0.003793,-0.000281,0.004861
5.655231999990065,5.655231999990065,0.0,0.0,1.713533104839259,0.0,0.0,-0.22692492,0.04400766,9.78185511,0.003793,-0.000281,0.004861
5.695198000001255,5.695198000001255,0.0,0.0,1.7137165640512153,0.0,0.0,-0.21450546,0.06735546,9.79038981,0.003642,-0.001328,0.005549
5.735165000020061,5.735165000020061,0.0,0.0,1.7138838397435041,0.0,0.0,-0.22063671,0.05703534,9.780658290000002,0.003831,-0.002196,0.004234
5.735165000020061,5.735165000020061,0.0,0.0,1.7138850862969655,0.0,0.0,-0.22063671,0.05703534,9.780658290000002,0.003831,-0.002196,0.004234
5.7751310000312515,5.7751310000312515,0.0,0.0,1.714062573555828,0.0,0.0,-0.22632651,0.04879494,9.77108373,0.004,-0.001004,0.004768
5.795114000036847,5.795114000036847,0.0,0.0,1.7141536010264797,0.0,0.0,-0.23246757,0.05359203,9.76000824,0.003141,-0.000281,0.004586
5.815096999984235,5.815096999984235,0.0,0.0,1.714212929987121,0.0,0.0,-0.23127075,0.0580752,9.75236625,0.0032,-0.000554,0.002826
5.815096999984235,5.815096999984235,0.0,0.0,1.7141928138040639,0.0,0.0,-0.23127075,0.0580752,9.75236625,0.0032,-0.000554,0.002826
5.85506400000304,5.85506400000304,0.0,0.0,1.7143424177107232,0.0,0.0,-0.22467843,0.04909905,9.75626082,0.003759,-0.000489,0.003498
5.85506400000304,5.85506400000304,0.0,0.0,1.7143364556155154,0.0,0.0,-0.22467843,0.04909905,9.75626082,0.003759,-0.000489,0.003498
5.895030000014231,5.895030000014231,0.0,0.0,1.714495957222323,0.0,0.0,-0.2282787,0.04969746,9.80985285,0.002702,-0.000785,0.004191
5.895030000014231,5.895030000014231,0.0,0.0,1.7145007418491698,0.0,0.0,-0.2282787,0.04969746,9.80985285,0.002702,-0.000785,0.004191
5.915013000019826,5.915013000019826,0.0,0.0,1.7145605322588544,0.0,0.0,-0.22423698,0.05732964,9.79817895,0.002637,-0.001156,0.00274
5.915013000019826,5.915013000019826,0.0,0.0,1.714546099052499,0.0,0.0,-0.22423698,0.05732964,9.79817895,0.002637,-0.001156,0.00274
5.974962999986019,5.974962999986019,0.0,0.0,1.714731492149057,0.0,0.0,-0.22139208,0.05223825,9.79084107,0.002535,-0.000246,0.001732
5.994945999991614,5.994945999991614,0.0,0.0,1.714804328040315,0.0,0.0,-0.2254338,0.0538863299999999,9.80281908,0.002396,-2.8e-05,0.003681
6.01492899999721,6.01492899999721,0.0,0.0,1.7148688880656522,0.0,0.0,-0.22244175,0.0580752,9.78110955,0.002132,-0.000112,0.003205
6.01492899999721,6.01492899999721,0.0,0.0,1.714866025380383,0.0,0.0,-0.22244175,0.0580752,9.78110955,0.002132,-0.000112,0.003205
6.054896000016015,6.054896000016015,0.0,0.0,1.7150270432071864,0.0,0.0,-0.22123512,0.0407115,9.780815250000002,0.001542,-0.00081,0.004878
6.07487900002161,6.07487900002161,0.0,0.0,1.715104141976024,0.0,0.0,-0.21764466,0.05508315,9.76913154,0.003581,-0.000678,0.003898
6.094862000027206,6.094862000027206,0.0,0.0,1.715177011961349,0.0,0.0,-0.23395869,0.05478885,9.78529842,0.003796,-0.000361,0.00365
6.114845000032801,6.114845000032801,0.0,0.0,1.7152778571107312,0.0,0.0,-0.2270818799999999,0.046107,9.77901021,0.004768,-0.000786,0.00525
6.134828999987803,6.134828999987803,0.0,0.0,1.715346242507115,0.0,0.0,-0.24160068,0.04235958,9.77452704,0.004228,0.000846,0.003361
6.154811999993399,6.154811999993399,0.0,0.0,1.7154284670886497,0.0,0.0,-0.22603221,0.05763375,9.78036399,0.003423,0.000838,0.004163
6.174794999998994,6.174794999998994,0.0,0.0,1.7155032442352844,0.0,0.0,-0.22094082,0.06511878,9.78335604,0.003059,-0.000988,0.003729
6.214761000010185,6.214761000010185,0.0,0.0,1.715686351123451,0.0,0.0,-0.23935419,0.05268951,9.75580956,0.001983,-0.000791,0.00539
6.214761000010185,6.214761000010185,0.0,0.0,1.7157090146567278,0.0,0.0,-0.23935419,0.05268951,9.75580956,0.001983,-0.000791,0.00539
6.214761000010185,6.214761000010185,0.0,0.0,1.7157265132200568,0.0,0.0,-0.23935419,0.05268951,9.75580956,0.001983,-0.000791,0.00539
6.25472800002899,6.25472800002899,0.0,0.0,1.7158994288447245,0.0,0.0,-0.21271023,0.04565574,9.78859458,0.002839,0.001451,0.004287
6.294693999981973,6.294693999981973,0.0,0.0,1.716052861674008,0.0,0.0,-0.22228479,0.05763375,9.81194238,0.003163,5.6e-05,0.003278
6.294693999981973,6.294693999981973,0.0,0.0,1.7160378078755416,0.0,0.0,-0.22228479,0.05763375,9.81194238,0.003163,5.6e-05,0.003278
6.314676999987569,6.314676999987569,0.0,0.0,1.7161022112304334,0.0,0.0,-0.22153923,0.04775508,9.80026848,0.00448,0.0007,0.003052
6.334661000000779,6.334661000000779,0.0,0.0,1.71615596528944,0.0,0.0,-0.22737618,0.04969746,9.79189074,0.00311,-0.000198,0.002446
6.374628000019584,6.374628000019584,0.0,0.0,1.716318571435509,0.0,0.0,-0.22692492,0.04475322,9.78589683,0.002378,0.000269,0.004435
6.374628000019584,6.374628000019584,0.0,0.0,1.7163282149752277,0.0,0.0,-0.22692492,0.04475322,9.78589683,0.002378,0.000269,0.004435
6.414594000030775,6.414594000030775,0.0,0.0,1.716489329920548,0.0,0.0,-0.22453128,0.06436341,9.780658290000002,0.003402,-0.000109,0.004162
6.434577999985777,6.434577999985777,0.0,0.0,1.7165625820483905,0.0,0.0,-0.23261472,0.04999176,9.78574968,0.003584,5.2e-05,0.003638
6.434577999985777,6.434577999985777,0.0,0.0,1.7165582227261558,0.0,0.0,-0.23261472,0.04999176,9.78574968,0.003584,5.2e-05,0.003638
6.474543999996968,6.474543999996968,0.0,0.0,1.7166987976626098,0.0,0.0,-0.23186916,0.05074713,9.79428438,0.004295,0.001112,0.003078
6.494527000002563,6.494527000002563,0.0,0.0,1.7167749295851973,0.0,0.0,-0.22588506,0.05598567,9.81014715,0.002678,0.000782,0.003815
6.494527000002563,6.494527000002563,0.0,0.0,1.7167756079941325,0.0,0.0,-0.22588506,0.05598567,9.81014715,0.002678,0.000782,0.003815
6.514511000015773,6.514511000015773,0.0,0.0,1.716864858981797,0.0,0.0,-0.22887711,0.06601149,9.78230637,0.003197,-0.001716,0.004642
6.514511000015773,6.514511000015773,0.0,0.0,1.7168755953200066,0.0,0.0,-0.22887711,0.06601149,9.78230637,0.003197,-0.001716,0.004642
6.554477000026964,6.554477000026964,0.0,0.0,1.7170291823505472,0.0,0.0,-0.23411565,0.05673123,9.77991273,0.00033,0.00088,0.003659
6.594443000038154,6.594443000038154,0.0,0.0,1.7171757157076817,0.0,0.0,-0.23007393,0.04190832,9.77946147,0.001894,-0.000243,0.003356
6.614426999993157,6.614426999993157,0.0,0.0,1.717283848891567,0.0,0.0,-0.23261472,0.04520448,9.78201207,0.001279,-0.00135,0.005569
6.614426999993157,6.614426999993157,0.0,0.0,1.71730736984611,0.0,0.0,-0.23261472,0.04520448,9.78201207,0.001279,-0.00135,0.005569
6.654393000004347,6.654393000004347,0.0,0.0,1.7174724167344708,0.0,0.0,-0.23381154,0.04819653,9.79712928,0.002771,0.001685,0.003953
6.654393000004347,6.654393000004347,0.0,0.0,1.7174680965657014,0.0,0.0,-0.23381154,0.04819653,9.79712928,0.002771,0.001685,0.003953
6.694359000015538,6.694359000015538,0.0,0.0,1.7176266481785154,0.0,0.0,-0.22887711,0.06002739,9.81134397,0.002091,0.000852,0.003683
6.694359000015538,6.694359000015538,0.0,0.0,1.7176198162290648,0.0,0.0,-0.22887711,0.06002739,9.81134397,0.002091,0.000852,0.003683
6.7343260000343435,6.7343260000343435,0.0,0.0,1.717792721582323,0.0,0.0,-0.23516532,0.0347274,9.79098822,0.003143,-0.001542,0.004654
6.7343260000343435,6.7343260000343435,0.0,0.0,1.7178005000351337,0.0,0.0,-0.23516532,0.0347274,9.79098822,0.003143,-0.001542,0.004654
6.774291999987327,6.774291999987327,0.0,0.0,1.717975863086866,0.0,0.0,-0.22199049,0.0577809,9.76988691,0.002118,-0.000808,0.004613
6.774291999987327,6.774291999987327,0.0,0.0,1.7179811532909772,0.0,0.0,-0.22199049,0.0577809,9.76988691,0.002118,-0.000808,0.004613
6.814259000006132,6.814259000006132,0.0,0.0,1.7181565143059334,0.0,0.0,-0.22872015,0.05299362,9.76044969,0.002734,-0.002476,0.004487
6.814259000006132,6.814259000006132,0.0,0.0,1.718158830313243,0.0,0.0,-0.22872015,0.05299362,9.76044969,0.002734,-0.002476,0.004487
6.834242000011727,6.834242000011727,0.0,0.0,1.718220065951404,0.0,0.0,-0.22304016,0.06601149,9.7667379,0.004292,-5.9e-05,0.002694
6.874208000022918,6.874208000022918,0.0,0.0,1.7183884908690104,0.0,0.0,-0.21675195,0.04685256,9.77482134,0.002368,0.00017,0.0043
6.894191000028513,6.894191000028513,0.0,0.0,1.718435840833231,0.0,0.0,-0.2342628,0.05568156,9.78201207,0.002362,-0.001077,0.002126
6.914174999983516,6.914174999983516,0.0,0.0,1.7184940475532358,0.0,0.0,-0.22812174,0.05044302,9.79802199,0.001782,0.000137,0.00278
6.934157999989111,6.934157999989111,0.0,0.0,1.718553380075793,0.0,0.0,-0.2342628,0.04475322,9.78634809,0.002433,-0.001927,0.002864
6.954140999994706,6.954140999994706,0.0,0.0,1.7186377235474897,0.0,0.0,-0.22363857,0.05508315,9.793087560000002,0.003656,9.2e-05,0.004305
6.974124000000302,6.974124000000302,0.0,0.0,1.7187303971938581,0.0,0.0,-0.21135645,0.04130991,9.77541975,0.004493,-0.000169,0.004768
6.994108000013512,6.994108000013512,0.0,0.0,1.7188151087682453,0.0,0.0,-0.21899844,0.05823216,9.78545538,0.00188,0.000358,0.004294
7.014091000019107,7.014091000019107,0.0,0.0,1.7189138621297797,0.0,0.0,-0.23860863,0.04266369,9.77871591,0.004169,-0.001167,0.005089
7.014091000019107,7.014091000019107,0.0,0.0,1.7189296523237987,0.0,0.0,-0.23860863,0.04266369,9.77871591,0.004169,-0.001167,0.005089
7.054057000030298,7.054057000030298,0.0,0.0,1.7190923637798141,0.0,0.0,-0.22558095,0.05373918,9.77901021,0.003585,-0.000801,0.003922
7.094023999990895,7.094023999990895,0.0,0.0,1.7192453823168314,0.0,0.0,-0.22872015,0.05149269,9.79727643,0.002072,-0.000621,0.003488
7.094023999990895,7.094023999990895,0.0,0.0,1.7192358722347993,0.0,0.0,-0.22872015,0.05149269,9.79727643,0.002072,-0.000621,0.003488
7.114006999996491,7.114006999996491,0.0,0.0,1.719325784085468,0.0,0.0,-0.22677777,0.05627997,9.78799617,0.004415,-0.001633,0.004593
7.114006999996491,7.114006999996491,0.0,0.0,1.719333798857738,0.0,0.0,-0.22677777,0.05627997,9.78799617,0.004415,-0.001633,0.004593
7.173957000020891,7.173957000020891,0.0,0.0,1.7195877430887965,0.0,0.0,-0.22603221,0.04625415,9.78005988,0.003177,-0.000342,0.004493
7.173957000020891,7.173957000020891,0.0,0.0,1.7195928905150133,0.0,0.0,-0.22603221,0.04625415,9.78005988,0.003177,-0.000342,0.004493
7.213923000032082,7.213923000032082,0.0,0.0,1.71975015040789,0.0,0.0,-0.21869433,0.04699971,9.77632227,0.002963,0.000978,0.003601
7.213923000032082,7.213923000032082,0.0,0.0,1.7197417376207014,0.0,0.0,-0.21869433,0.04699971,9.77632227,0.002963,0.000978,0.003601
7.253888999985065,7.253888999985065,0.0,0.0,1.719896185867693,0.0,0.0,-0.21764466,0.05029587,9.77228055,0.000515,0.000876,0.003626
7.273872999998275,7.273872999998275,0.0,0.0,1.7199608639233634,0.0,0.0,-0.21884148,0.05223825,9.78395445,0.002363,-0.000763,0.003151
7.273872999998275,7.273872999998275,0.0,0.0,1.7199493766948661,0.0,0.0,-0.21884148,0.05223825,9.78395445,0.002363,-0.000763,0.003151
7.293856000003871,7.293856000003871,0.0,0.0,1.720052464815188,0.0,0.0,-0.24160068,0.06002739,9.78230637,0.002903,-4.1e-05,0.005506
7.333822000015061,7.333822000015061,0.0,0.0,1.7202188307322235,0.0,0.0,-0.22467843,0.05598567,9.77976558,0.002684,-0.001572,0.004356
7.333822000015061,7.333822000015061,0.0,0.0,1.7202235768504348,0.0,0.0,-0.22467843,0.05598567,9.77976558,0.002684,-0.001572,0.004356
7.373789000033867,7.373789000033867,0.0,0.0,1.7203844875705796,0.0,0.0,-0.2282787,0.0407115,9.78141366,0.003279,-0.000228,0.003944
7.393771999981254,7.393771999981254,0.0,0.0,1.72045402150584,0.0,0.0,-0.22677777,0.05658408,9.77991273,0.003205,0.001936,0.003405
7.41375499998685,7.41375499998685,0.0,0.0,1.7205131547364587,0.0,0.0,-0.22467843,0.0691605,9.77661657,0.003539,7.4e-05,0.002828
7.41375499998685,7.41375499998685,0.0,0.0,1.7204976862362358,0.0,0.0,-0.22467843,0.0691605,9.77661657,0.003539,7.4e-05,0.002828
7.41375499998685,7.41375499998685,0.0,0.0,1.7204855419744982,0.0,0.0,-0.22467843,0.0691605,9.77661657,0.003539,7.4e-05,0.002828
7.47370500001125,7.47370500001125,0.0,0.0,1.720693015934656,0.0,0.0,-0.23186916,0.05448474,9.78290478,0.003857,1.7e-05,0.003102
7.493688000016846,7.493688000016846,0.0,0.0,1.720764005339488,0.0,0.0,-0.22048956,0.05703534,9.7841016,0.003277,0.000647,0.003555
7.513671000022441,7.513671000022441,0.0,0.0,1.7208350019123966,0.0,0.0,-0.22558095,0.04415481,9.7841016,0.003277,0.000647,0.003555
7.513671000022441,7.513671000022441,0.0,0.0,1.7208352259692345,0.0,0.0,-0.22558095,0.04415481,9.7841016,0.003277,0.000647,0.003555
7.533655000035651,7.533655000035651,0.0,0.0,1.7209158725319629,0.0,0.0,-0.23261472,0.04909905,9.79084107,0.005123,0.000221,0.004176
7.553637999983039,7.553637999983039,0.0,0.0,1.7209996111914325,0.0,0.0,-0.22768029,0.04835349,9.78784902,0.003615,-0.00032,0.004343
7.573620999988634,7.573620999988634,0.0,0.0,1.7210730046557199,0.0,0.0,-0.2131614899999999,0.0435564,9.78036399,0.002649,-0.000663,0.003663
7.613586999999825,7.613586999999825,0.0,0.0,1.7212185997974236,0.0,0.0,-0.22333446,0.04221243,9.78784902,0.003819,-0.000419,0.003567
7.633571000013035,7.633571000013035,0.0,0.0,1.7212876454146135,0.0,0.0,-0.22603221,0.0663156,9.78560253,0.003067,-0.000613,0.003429
7.65355400001863,7.65355400001863,0.0,0.0,1.7213940749360717,0.0,0.0,-0.24608385,0.04550859,9.77452704,0.003283,-0.000907,0.005522
7.673537000024226,7.673537000024226,0.0,0.0,1.7214842948823321,0.0,0.0,-0.22408002,0.03876912,9.77302611,0.001257,-0.001529,0.004588
7.693520000029821,7.693520000029821,0.0,0.0,1.7215720515434008,0.0,0.0,-0.22304016,0.0480493799999999,9.78350319,0.003575,-0.001172,0.00444
7.713503999984823,7.713503999984823,0.0,0.0,1.7216389513692567,0.0,0.0,-0.22768029,0.06151851,9.7983261,0.004275,0.000688,0.003257
7.713503999984823,7.713503999984823,0.0,0.0,1.7216280829714954,0.0,0.0,-0.22768029,0.06151851,9.7983261,0.004275,0.000688,0.003257
7.7334869999904186,7.7334869999904186,0.0,0.0,1.7217085154631224,0.0,0.0,-0.21959685,0.04460607,9.76314744,0.00387,-0.000109,0.004066
7.773453000001609,7.773453000001609,0.0,0.0,1.7218538736630489,0.0,0.0,-0.22768029,0.05343507,9.77960862,0.003707,-0.000445,0.003317
7.793437000014819,7.793437000014819,0.0,0.0,1.721935505292696,0.0,0.0,-0.21854718,0.046107,9.78649524,0.001308,-0.001303,0.004119
7.813420000020415,7.813420000020415,0.0,0.0,1.7219937884979997,0.0,0.0,-0.22527684,0.04879494,9.77886306,0.002072,-0.00095,0.002796
7.83340300002601,7.83340300002601,0.0,0.0,1.7220679290340453,0.0,0.0,-0.21914559,0.04759812,9.76972995,0.003235,-0.00065,0.00371
7.853386000031605,7.853386000031605,0.0,0.0,1.722144731793751,0.0,0.0,-0.21735036,0.05059017,9.77737194,0.002783,-0.000325,0.003861
7.873369999986608,7.873369999986608,0.0,0.0,1.722209911617254,0.0,0.0,-0.22333446,0.04879494,9.7866522,0.003795,0.000364,0.003198
7.893352999992203,7.893352999992203,0.0,0.0,1.7223084589478113,0.0,0.0,-0.23007393,0.0480493799999999,9.780962400000002,0.004281,0.000719,0.005106
7.933319000003394,7.933319000003394,0.0,0.0,1.7224511410100343,0.0,0.0,-0.22677777,0.05613282,9.78515127,0.001621,-0.000605,0.003274
7.933319000003394,7.933319000003394,0.0,0.0,1.722442753466325,0.0,0.0,-0.22677777,0.05613282,9.78515127,0.001621,-0.000605,0.003274
7.973286000022199,7.973286000022199,0.0,0.0,1.7225881159026493,0.0,0.0,-0.21899844,0.04625415,9.78230637,0.002893,0.000279,0.003563
7.973286000022199,7.973286000022199,0.0,0.0,1.7225861198587333,0.0,0.0,-0.21899844,0.04625415,9.78230637,0.002893,0.000279,0.003563
8.01325200003339,8.01325200003339,0.0,0.0,1.7227625263774797,0.0,0.0,-0.21255327,0.05283666,9.78141366,0.001601,-0.001734,0.005277
8.01325200003339,8.01325200003339,0.0,0.0,1.7227848971648045,0.0,0.0,-0.21255327,0.05283666,9.78141366,0.001601,-0.001734,0.005277
8.01325200003339,8.01325200003339,0.0,0.0,1.7228023099696506,0.0,0.0,-0.21255327,0.05283666,9.78141366,0.001601,-0.001734,0.005277
8.073201999999583,8.073201999999583,0.0,0.0,1.7230656182594615,0.0,0.0,-0.22947552,0.04400766,9.7954812,0.002303,-0.000861,0.004833
8.093185000005178,8.093185000005178,0.0,0.0,1.7231540092890816,0.0,0.0,-0.22079367,0.05134554,9.7838073,0.002638,0.001138,0.004438
8.113168000010774,8.113168000010774,0.0,0.0,1.7232356610549138,0.0,0.0,-0.22648347,0.04130991,9.77797035,0.003719,0.000716,0.004059
8.133152000023983,8.133152000023983,0.0,0.0,1.7233163447259674,0.0,0.0,-0.21809592,0.02948886,9.78500412,0.002302,0.000202,0.004008
8.133152000023983,8.133152000023983,0.0,0.0,1.723312676459929,0.0,0.0,-0.21809592,0.02948886,9.78500412,0.002302,0.000202,0.004008
8.173118000035174,8.173118000035174,0.0,0.0,1.7234730737922188,0.0,0.0,-0.22768029,0.05972328,9.78110955,0.003396,-0.000112,0.00376
8.173118000035174,8.173118000035174,0.0,0.0,1.723467011364165,0.0,0.0,-0.22768029,0.05972328,9.78110955,0.003396,-0.000112,0.00376
8.213084999995772,8.213084999995772,0.0,0.0,1.723618429673186,0.0,0.0,-0.22123512,0.04984461,9.780962400000002,0.003032,-0.000523,0.003386
8.233068000001367,8.233068000001367,0.0,0.0,1.7237119022165395,0.0,0.0,-0.20911977,0.05673123,9.77302611,0.003511,-0.000162,0.004772
8.253051000006963,8.253051000006963,0.0,0.0,1.7237978311468884,0.0,0.0,-0.22677777,0.03726819,9.78141366,0.002898,3e-05,0.004327
8.273034000012558,8.273034000012558,0.0,0.0,1.7238807674821368,0.0,0.0,-0.2254338,0.05673123,9.77797035,0.00234,0.000308,0.004152
8.293018000025768,8.293018000025768,0.0,0.0,1.7239514336335517,0.0,0.0,-0.23905008,0.05553441,9.78529842,0.004288,0.000548,0.00345
8.313001000031363,8.313001000031363,0.0,0.0,1.7240218728567003,0.0,0.0,-0.22692492,0.0467054099999999,9.78395445,0.004288,0.000548,0.00345
8.313001000031363,8.313001000031363,0.0,0.0,1.7240138850771975,0.0,0.0,-0.22692492,0.0467054099999999,9.78395445,0.004288,0.000548,0.00345
8.332984000036959,8.332984000036959,0.0,0.0,1.7240901936424482,0.0,0.0,-0.23096664,0.04146687,9.77541975,0.004072,-0.000565,0.003794
8.372949999989942,8.372949999989942,0.0,0.0,1.7242573489426167,0.0,0.0,-0.22393287,0.04835349,9.7721334,0.003298,-0.000583,0.004549
8.392932999995537,8.392932999995537,0.0,0.0,1.7243633277587627,0.0,0.0,-0.22887711,0.04909905,9.77751909,0.00303,-0.000751,0.005482
8.392932999995537,8.392932999995537,0.0,0.0,1.7243833376035385,0.0,0.0,-0.22887711,0.04909905,9.77751909,0.00303,-0.000751,0.005482
8.432899000006728,8.432899000006728,0.0,0.0,1.724558566646821,0.0,0.0,-0.2342628,0.04955031,9.79203789,0.004907,0.001639,0.004435
8.452883000019938,8.452883000019938,0.0,0.0,1.7246663407349514,0.0,0.0,-0.22363857,0.05627997,9.78005988,0.003171,-0.000922,0.005541
8.492849000031129,8.492849000031129,0.0,0.0,1.7247973593244925,0.0,0.0,-0.24428862,0.04850064,9.793087560000002,0.002309,0.000797,0.001976
8.492849000031129,8.492849000031129,0.0,0.0,1.7247607068390396,0.0,0.0,-0.24428862,0.04850064,9.793087560000002,0.002309,0.000797,0.001976
8.532815999991726,8.532815999991726,0.0,0.0,1.7249128572538472,0.0,0.0,-0.22842585,0.04371336,9.78305193,0.001475,-0.002104,0.003753
8.532815999991726,8.532815999991726,0.0,0.0,1.7249114097092102,0.0,0.0,-0.22842585,0.04371336,9.78305193,0.001475,-0.002104,0.003753
8.572782000002917,8.572782000002917,0.0,0.0,1.7250803949635412,0.0,0.0,-0.23785326,0.05463189,9.80041563,0.003008,-0.002351,0.00469
8.572782000002917,8.572782000002917,0.0,0.0,1.7250923415231245,0.0,0.0,-0.23785326,0.05463189,9.80041563,0.003008,-0.002351,0.00469
8.592765000008512,8.592765000008512,0.0,0.0,1.7251978180416367,0.0,0.0,-0.22947552,0.04311495,9.77541975,0.00403,-0.001162,0.005554
8.612749000021722,8.612749000021722,0.0,0.0,1.7252696886329506,0.0,0.0,-0.21420135,0.04909905,9.78605379,0.003825,-0.000203,0.003459
8.612749000021722,8.612749000021722,0.0,0.0,1.7252598028055068,0.0,0.0,-0.21420135,0.04909905,9.78605379,0.003825,-0.000203,0.003459
8.652715000032913,8.652715000032913,0.0,0.0,1.7254107410390613,0.0,0.0,-0.23815737,0.04999176,9.78679935,0.002554,-5e-05,0.003377
8.69268199999351,8.69268199999351,0.0,0.0,1.7255633428428858,0.0,0.0,-0.22348161,0.05223825,9.78574968,0.003271,0.000992,0.003646
8.69268199999351,8.69268199999351,0.0,0.0,1.7255588630957917,0.0,0.0,-0.22348161,0.05223825,9.78574968,0.003271,0.000992,0.003646
8.732648000004701,8.732648000004701,0.0,0.0,1.7257019729240044,0.0,0.0,-0.22782744,0.04011309,9.7841016,0.001537,-0.00118,0.00322
8.732648000004701,8.732648000004701,0.0,0.0,1.725692848848376,0.0,0.0,-0.22782744,0.04011309,9.7841016,0.001537,-0.00118,0.00322
8.772615000023507,8.772615000023507,0.0,0.0,1.7258367567754362,0.0,0.0,-0.2311236,0.04281084,9.78290478,0.003452,-0.000604,0.003458
8.772615000023507,8.772615000023507,0.0,0.0,1.72583323171283,0.0,0.0,-0.2311236,0.04281084,9.78290478,0.003452,-0.000604,0.003458
8.772615000023507,8.772615000023507,0.0,0.0,1.7258304878789863,0.0,0.0,-0.2311236,0.04281084,9.78290478,0.003452,-0.000604,0.003458
8.8325649999897,8.8325649999897,0.0,0.0,1.72607507632938,0.0,0.0,-0.22992678,0.04027005,9.77960862,0.002165,0.000831,0.005152
8.852547999995295,8.852547999995295,0.0,0.0,1.726172415803381,0.0,0.0,-0.22588506,0.05673123,9.77407578,0.003847,-0.001071,0.005005
8.87253100000089,8.87253100000089,0.0,0.0,1.7262514179280783,0.0,0.0,-0.22199049,0.03907323,9.78245352,0.003277,-0.000302,0.003945
8.892514000006486,8.892514000006486,0.0,0.0,1.7263167435163371,0.0,0.0,-0.21884148,0.05942898,9.77886306,0.003476,-0.002075,0.00317
8.912498000019696,8.912498000019696,0.0,0.0,1.7264012425870732,0.0,0.0,-0.21749751,0.05478885,9.78485697,0.002822,-0.00128,0.004274
8.912498000019696,8.912498000019696,0.0,0.0,1.7264063539996855,0.0,0.0,-0.21749751,0.05478885,9.78485697,0.002822,-0.00128,0.004274
8.912498000019696,8.912498000019696,0.0,0.0,1.7264103715251,0.0,0.0,-0.21749751,0.05478885,9.78485697,0.002822,-0.00128,0.004274
8.952464000030886,8.952464000030886,0.0,0.0,1.726564447397962,0.0,0.0,-0.22363857,0.05014872,9.76508982,0.003799,-0.000127,0.003611
8.972447999985889,8.972447999985889,0.0,0.0,1.7266539985451557,0.0,0.0,-0.22079367,0.04386051,9.7866522,0.003313,0.00108,0.004611
9.01241399999708,9.01241399999708,0.0,0.0,1.7268145906911503,0.0,0.0,-0.22737618,0.046107,9.78589683,0.004225,0.000244,0.003984
9.032397000002675,9.032397000002675,0.0,0.0,1.726921552767286,0.0,0.0,-0.21465261,0.04625415,9.77991273,0.003023,-0.000716,0.005497
9.052381000015885,9.052381000015885,0.0,0.0,1.7270215571821694,0.0,0.0,-0.22333446,0.05044302,9.78036399,0.001636,0.000231,0.005091
9.052381000015885,9.052381000015885,0.0,0.0,1.7270330493080088,0.0,0.0,-0.22333446,0.05044302,9.78036399,0.001636,0.000231,0.005091
9.092347000027075,9.092347000027075,0.0,0.0,1.7272078344230035,0.0,0.0,-0.22304016,0.05538726,9.77916717,0.002502,-0.001132,0.004277
9.132313999987673,9.132313999987673,0.0,0.0,1.727352283640191,0.0,0.0,-0.2297698199999999,0.05089428,9.77287896,0.003154,0.000585,0.002785
9.132313999987673,9.132313999987673,0.0,0.0,1.727328398113122,0.0,0.0,-0.2297698199999999,0.05089428,9.77287896,0.003154,0.000585,0.002785
9.172279999998864,9.172279999998864,0.0,0.0,1.727501900928952,0.0,0.0,-0.21989115,0.05463189,9.77452704,0.003798,-8.7e-05,0.00472
9.192264000012074,9.192264000012074,0.0,0.0,1.7275566983732666,0.0,0.0,-0.2282787,0.0480493799999999,9.77182929,0.003562,0.000235,0.002666
9.212247000017669,9.212247000017669,0.0,0.0,1.7276609954875797,0.0,0.0,-0.22603221,0.04116276,9.78170796,0.003487,-0.000243,0.005308
9.232230000023264,9.232230000023264,0.0,0.0,1.727753790089837,0.0,0.0,-0.21959685,0.04400766,9.77946147,0.003099,0.000388,0.004686
9.232230000023264,9.232230000023264,0.0,0.0,1.7277621303483501,0.0,0.0,-0.21959685,0.04400766,9.77946147,0.003099,0.000388,0.004686
9.232230000023264,9.232230000023264,0.0,0.0,1.7277686670078687,0.0,0.0,-0.21959685,0.04400766,9.77946147,0.003099,0.000388,0.004686
9.272196999983862,9.272196999983862,0.0,0.0,1.7279359693261789,0.0,0.0,-0.23336028,0.04371336,9.780658290000002,0.003124,-4.5e-05,0.004044
9.312162999995053,9.312162999995053,0.0,0.0,1.728085542542802,0.0,0.0,-0.2314179,0.04984461,9.78829047,0.003075,-0.000372,0.003147
9.332146000000648,9.332146000000648,0.0,0.0,1.7281858016600733,0.0,0.0,-0.22019526,0.04955031,9.78814332,0.003507,0.00083,0.0051
9.332146000000648,9.332146000000648,0.0,0.0,1.7281996821848882,0.0,0.0,-0.22019526,0.04955031,9.78814332,0.003507,0.00083,0.0051
9.372114000027068,9.372114000027068,0.0,0.0,1.728366186298877,0.0,0.0,-0.21510387,0.05163984,9.78874173,0.004022,-0.000119,0.003951
9.392097000032663,9.392097000032663,0.0,0.0,1.728442828714707,0.0,0.0,-0.22737618,0.05044302,9.7929306,0.004342,-0.000473,0.003785
9.412080999987666,9.412080999987666,0.0,0.0,1.728513330863061,0.0,0.0,-0.21615354,0.04864779,9.79203789,0.003042,-0.00146,0.003448
9.432063999993261,9.432063999993261,0.0,0.0,1.7285991078752065,0.0,0.0,-0.23081949,0.05299362,9.78201207,0.0033,-0.000468,0.004314
9.452046999998856,9.452046999998856,0.0,0.0,1.728670702632857,0.0,0.0,-0.2225889,0.04400766,9.77646942,0.003359,-0.000195,0.003514
9.472028999996837,9.472028999996837,0.0,0.0,1.728756236629251,0.0,0.0,-0.21780162,0.05343507,9.77317326,0.003281,-0.000623,0.004309
9.492014000017662,9.492014000017662,0.0,0.0,1.728827927142322,0.0,0.0,-0.237402,0.04206528,9.78305193,0.002535,-0.000594,0.003522
9.511997000023257,9.511997000023257,0.0,0.0,1.7289234577874932,0.0,0.0,-0.2257281,0.05044302,9.78649524,0.001982,-0.00043,0.004882
9.511997000023257,9.511997000023257,0.0,0.0,1.7289351802649895,0.0,0.0,-0.2257281,0.05044302,9.78649524,0.001982,-0.00043,0.004882
9.511997000023257,9.511997000023257,0.0,0.0,1.728944440680106,0.0,0.0,-0.2257281,0.05044302,9.78649524,0.001982,-0.00043,0.004882
9.57194699998945,9.57194699998945,0.0,0.0,1.7291654053621155,0.0,0.0,-0.23516532,0.04654845,9.7692885,0.003307,-0.000929,0.002211
9.591929999995045,9.591929999995045,0.0,0.0,1.729242416155575,0.0,0.0,-0.2200383,0.04266369,9.78156081,0.002592,-9e-05,0.003833
9.61191300000064,9.61191300000064,0.0,0.0,1.7293230220107993,0.0,0.0,-0.22947552,0.05627997,9.7812567,0.003743,-0.001091,0.004043
9.63189700001385,9.63189700001385,0.0,0.0,1.7293925165439061,0.0,0.0,-0.21943989,0.04445892,9.78574968,0.002257,-0.001916,0.003403
9.651880000019446,9.651880000019446,0.0,0.0,1.7294604112094198,0.0,0.0,-0.22273605,0.04520448,9.780962400000002,0.003998,-0.000166,0.003323
9.671863000025041,9.671863000025041,0.0,0.0,1.729532631523317,0.0,0.0,-0.21345579,0.04879494,9.79158663,0.002952,-0.00048,0.003583
9.691847000038251,9.691847000038251,0.0,0.0,1.7296039373079672,0.0,0.0,-0.2270818799999999,0.03322647,9.78170796,0.002332,0.000442,0.003535
9.711829999985639,9.711829999985639,0.0,0.0,1.7296840969328668,0.0,0.0,-0.22677777,0.0435564,9.7866522,0.003191,0.000182,0.004049
9.731812999991234,9.731812999991234,0.0,0.0,1.7297504709214575,0.0,0.0,-0.23620518,0.05419044,9.78634809,0.00445,0.001307,0.003251
9.75179599999683,9.75179599999683,0.0,0.0,1.7298229568745196,0.0,0.0,-0.20013381,0.05703534,9.780815250000002,0.001917,-0.000187,0.003613
9.771779000002425,9.771779000002425,0.0,0.0,1.72989829206435,0.0,0.0,-0.22423698,0.0520911,9.78934014,0.002796,0.00015,0.003779
9.81174600002123,9.81174600002123,0.0,0.0,1.7300828452561534,0.0,0.0,-0.23440995,0.04311495,9.77572386,0.002298,0.00056,0.005576
9.81174600002123,9.81174600002123,0.0,0.0,1.730109571489593,0.0,0.0,-0.23440995,0.04311495,9.77572386,0.002298,0.00056,0.005576
9.81174600002123,9.81174600002123,0.0,0.0,1.7301302272136354,0.0,0.0,-0.23440995,0.04311495,9.77572386,0.002298,0.00056,0.005576
9.83173000003444,9.83173000003444,0.0,0.0,1.7302229677330736,0.0,0.0,-0.21840003,0.04984461,9.78529842,0.003403,-0.002394,0.004732
9.891680000000633,9.891680000000633,0.0,0.0,1.7304689441037642,0.0,0.0,-0.22139208,0.05448474,9.79069392,0.002931,0.001582,0.003466
9.911661999998614,9.911661999998614,0.0,0.0,1.7305409625082078,0.0,0.0,-0.23036823,0.06691401,9.7784118,0.003409,0.000149,0.00356
9.93164500000421,9.93164500000421,0.0,0.0,1.7306382386916006,0.0,0.0,-0.22947552,0.03951468,9.76284333,0.003017,-0.000483,0.004923
9.951630000025034,9.951630000025034,0.0,0.0,1.7307370948663436,0.0,0.0,-0.22079367,0.05373918,9.77677353,0.000211,-0.000771,0.005005
9.97161300003063,9.97161300003063,0.0,0.0,1.7308040509702733,0.0,0.0,-0.22902426,0.06196977,9.78005988,0.003759,-0.000774,0.003256
9.991596000036225,9.991596000036225,0.0,0.0,1.7308771048073197,0.0,0.0,-0.22632651,0.0344331,9.78874173,0.004444,-0.000385,0.0036
10.011578999983612,10.011578999983612,0.0,0.0,1.7309933496500713,0.0,0.0,-0.22378572,0.03951468,9.78245352,0.002764,0.000149,0.005996
10.031562999996822,10.031562999996822,0.0,0.0,1.731075742681746,0.0,0.0,-0.21555513,0.06556023,9.79248915,0.003385,-0.000663,0.004094
10.051544999994803,10.051544999994803,0.0,0.0,1.7311541844766634,0.0,0.0,-0.23172201,0.03951468,9.77587101,0.003479,-4.7e-05,0.003877
10.071528000000399,10.071528000000399,0.0,0.0,1.7312231669160205,0.0,0.0,-0.2254338,0.05343507,9.78769206,0.001878,0.000863,0.003352
10.091513000021223,10.091513000021223,0.0,0.0,1.7312919401410518,0.0,0.0,-0.23321313,0.04460607,9.77257485,0.001878,0.000863,0.003352
10.111496000026818,10.111496000026818,0.0,0.0,1.7313811294939692,0.0,0.0,-0.23007393,0.0435564,9.78500412,0.00213,-0.000116,0.004516
10.131479000032414,10.131479000032414,0.0,0.0,1.7314798761275263,0.0,0.0,-0.22663062,0.05583852,9.78709365,0.004675,0.000376,0.00505
10.151462999987416,10.151462999987416,0.0,0.0,1.731569536438733,0.0,0.0,-0.22228479,0.04415481,9.77991273,0.002298,-0.000247,0.00452
10.171445999993011,10.171445999993011,0.0,0.0,1.7316716760224828,0.0,0.0,-0.22423698,0.04790223,9.7866522,0.003082,-0.00068,0.005225
10.191428999998607,10.191428999998607,0.0,0.0,1.7317712269102143,0.0,0.0,-0.2225889,0.04415481,9.7755669,0.003857,-0.001547,0.005062
10.211412000004202,10.211412000004202,0.0,0.0,1.731852140207807,0.0,0.0,-0.23860863,0.04475322,9.78844743,0.002709,-0.001074,0.003988
10.231396000017412,10.231396000017412,0.0,0.0,1.731933992906594,0.0,0.0,-0.21225897,0.04999176,9.78245352,0.002625,0.000579,0.00405
10.271362000028603,10.271362000028603,0.0,0.0,1.732077019265322,0.0,0.0,-0.22752333,0.05239521,9.77572386,0.002102,-0.002307,0.002741
10.291345999983605,10.291345999983605,0.0,0.0,1.7321736888119643,0.0,0.0,-0.21824307,0.05508315,9.78814332,0.001668,-0.000704,0.004867
10.3113289999892,10.3113289999892,0.0,0.0,1.7322262249727745,0.0,0.0,-0.23096664,0.05852646,9.78574968,0.003221,-0.000729,0.002541
10.331311999994796,10.331311999994796,0.0,0.0,1.7323216780847321,0.0,0.0,-0.21989115,0.04146687,9.78305193,0.001533,0.000311,0.004828
10.351295000000391,10.351295000000391,0.0,0.0,1.732397018254506,0.0,0.0,-0.21899844,0.03637548,9.78634809,0.001993,-0.001766,0.003744
10.371279000013601,10.371279000013601,0.0,0.0,1.7324839232872096,0.0,0.0,-0.22692492,0.05718249,9.78424875,0.003873,0.001039,0.004373
10.391262000019196,10.391262000019196,0.0,0.0,1.7325427209580813,0.0,0.0,-0.22962267,0.0435564,9.78230637,0.004188,-0.000547,0.002834
10.411246000032406,10.411246000032406,0.0,0.0,1.7326535766923712,0.0,0.0,-0.22617936,0.03876912,9.78844743,0.004953,0.000647,0.005709
10.411246000032406,10.411246000032406,0.0,0.0,1.7326781984588493,0.0,0.0,-0.22617936,0.03876912,9.78844743,0.004953,0.000647,0.005709
10.411246000032406,10.411246000032406,0.0,0.0,1.7326976254780906,0.0,0.0,-0.22617936,0.03876912,9.78844743,0.004953,0.000647,0.005709
10.45121199998539,10.45121199998539,0.0,0.0,1.7328473508321904,0.0,0.0,-0.21675195,0.05957613,9.78230637,0.003882,-0.001697,0.002645
10.491179000004195,10.491179000004195,0.0,0.0,1.733011550265819,0.0,0.0,-0.21135645,0.0404172,9.77452704,0.00288,-0.001294,0.003926
10.51116200000979,10.51116200000979,0.0,0.0,1.7331167483162488,0.0,0.0,-0.22094082,0.06571719,9.79682517,0.00194,-0.001012,0.005372
10.531146000023,10.531146000023,0.0,0.0,1.7332114494783202,0.0,0.0,-0.22737618,0.03862197,9.78859458,0.001749,-0.001201,0.004778
10.531146000023,10.531146000023,0.0,0.0,1.733216945665335,0.0,0.0,-0.22737618,0.03862197,9.78859458,0.001749,-0.001201,0.004778
10.57111200003419,10.57111200003419,0.0,0.0,1.7334229207481062,0.0,0.0,-0.21959685,0.04580289,9.796530870000002,0.004262,0.00042,0.005999
10.611078999994788,10.611078999994788,0.0,0.0,1.7336110427635631,0.0,0.0,-0.22123512,0.0577809,9.79158663,0.002921,-0.000116,0.004729
10.631062000000384,10.631062000000384,0.0,0.0,1.7336738786950203,0.0,0.0,-0.23127075,0.05823216,9.77317326,0.00424,-0.000107,0.003107
10.651045000005979,10.651045000005979,0.0,0.0,1.7337442862669734,0.0,0.0,-0.23201631,0.03936753,9.77737194,0.001701,0.00075,0.003487
10.651045000005979,10.651045000005979,0.0,0.0,1.7337302515490656,0.0,0.0,-0.23201631,0.03936753,9.77737194,0.001701,0.00075,0.003487
10.691012000024784,10.691012000024784,0.0,0.0,1.7338725162950412,0.0,0.0,-0.2297698199999999,0.05478885,9.780658290000002,0.003529,-0.000594,0.002815
10.691012000024784,10.691012000024784,0.0,0.0,1.7338527678529143,0.0,0.0,-0.2297698199999999,0.05478885,9.780658290000002,0.003529,-0.000594,0.002815
10.71099500003038,10.71099500003038,0.0,0.0,1.7339507236572365,0.0,0.0,-0.21824307,0.04400766,9.77228055,0.00252,-0.000955,0.005119
10.71099500003038,10.71099500003038,0.0,0.0,1.7339667497822644,0.0,0.0,-0.21824307,0.04400766,9.77228055,0.00252,-0.000955,0.005119
10.770944999996573,10.770944999996573,0.0,0.0,1.7342304337537975,0.0,0.0,-0.22887711,0.04266369,9.77946147,0.003276,0.000531,0.00497
10.790929000009783,10.790929000009783,0.0,0.0,1.7342909242644753,0.0,0.0,-0.22947552,0.03771945,9.79024266,0.00312,7e-06,0.002901
10.810912000015378,10.810912000015378,0.0,0.0,1.7343695352519282,0.0,0.0,-0.2282787,0.04790223,9.79069392,0.003117,-0.000735,0.003919
10.830895000020973,10.830895000020973,0.0,0.0,1.734431394409289,0.0,0.0,-0.21151341,0.0517968,9.78230637,0.003058,0.000864,0.002989
10.850879000034183,10.850879000034183,0.0,0.0,1.7345132470498843,0.0,0.0,-0.23022108,0.03307932,9.78874173,0.003629,0.001845,0.004118
10.870861999981571,10.870861999981571,0.0,0.0,1.7345963930675339,0.0,0.0,-0.21899844,0.05508315,9.7869465,0.003059,0.000506,0.004188
10.890844999987166,10.890844999987166,0.0,0.0,1.7347123236031878,0.0,0.0,-0.22199049,0.04850064,9.78814332,0.002041,-0.000344,0.006028
10.910829000000376,10.910829000000376,0.0,0.0,1.7347700606948182,0.0,0.0,-0.23276187,0.04386051,9.77407578,0.003604,0.001769,0.002717
10.930812000005972,10.930812000005972,0.0,0.0,1.7348519792733885,0.0,0.0,-0.2314179,0.04879494,9.77991273,0.003207,-0.000179,0.004107
10.950795000011567,10.950795000011567,0.0,0.0,1.7349659416967107,0.0,0.0,-0.23127075,0.05059017,9.79742358,0.003079,0.000425,0.005922
10.970779000024777,10.970779000024777,0.0,0.0,1.735022585850575,0.0,0.0,-0.22887711,0.05029587,9.78799617,0.002993,0.000711,0.002637
10.990762000030372,10.990762000030372,0.0,0.0,1.7350788722743244,0.0,0.0,-0.23381154,0.04984461,9.780815250000002,0.003218,0.001673,0.002644
11.010745000035968,11.010745000035968,0.0,0.0,1.7351917512433035,0.0,0.0,-0.22692492,0.0407115,9.78844743,0.00287,5.1e-05,0.005893
11.03072899999097,11.03072899999097,0.0,0.0,1.7352671932644528,0.0,0.0,-0.22872015,0.0492462,9.80026848,0.001944,-0.001784,0.003722
11.050711999996565,11.050711999996565,0.0,0.0,1.7353499022599514,0.0,0.0,-0.22872015,0.04775508,9.78215922,0.001806,-0.000685,0.004145
11.09067900001537,11.09067900001537,0.0,0.0,1.735503855233942,0.0,0.0,-0.23052519,0.05598567,9.77901021,0.003164,-0.001038,0.003587
11.110662000020966,11.110662000020966,0.0,0.0,1.7355996827182265,0.0,0.0,-0.23081949,0.0489519,9.78874173,0.003058,0.00019,0.004828
11.130645000026561,11.130645000026561,0.0,0.0,1.7356996694018756,0.0,0.0,-0.22034241,0.04984461,9.77692068,0.003307,0.000997,0.005051
11.150628999981564,11.150628999981564,0.0,0.0,1.7357663901840787,0.0,0.0,-0.23576373,0.05223825,9.78574968,0.00336,-0.000377,0.003277
11.150628999981564,11.150628999981564,0.0,0.0,1.7357523077581742,0.0,0.0,-0.23576373,0.05223825,9.78574968,0.00336,-0.000377,0.003277
11.190594999992754,11.190594999992754,0.0,0.0,1.735909647462167,0.0,0.0,-0.22153923,0.03652263,9.77737194,0.002858,0.000503,0.003829
11.210579000005964,11.210579000005964,0.0,0.0,1.7359779151620929,0.0,0.0,-0.22244175,0.04086846,9.77496849,0.003444,-0.001437,0.00336
11.23056200001156,11.23056200001156,0.0,0.0,1.7360343572793777,0.0,0.0,-0.2254338,0.05627997,9.77467419,0.003239,-0.00056,0.002713
11.250545000017155,11.250545000017155,0.0,0.0,1.736117984484201,0.0,0.0,-0.24100227,0.05314077,9.78874173,0.002958,-0.001458,0.004232
11.250545000017155,11.250545000017155,0.0,0.0,1.7361246104475434,0.0,0.0,-0.24100227,0.05314077,9.78874173,0.002958,-0.001458,0.004232
11.29051200003596,11.29051200003596,0.0,0.0,1.7363127845533768,0.0,0.0,-0.2270818799999999,0.04580289,9.79218504,0.003285,0.000533,0.005758
11.310494999983348,11.310494999983348,0.0,0.0,1.7363918554703872,0.0,0.0,-0.22887711,0.04550859,9.78305193,0.002088,0.002033,0.003936
11.310494999983348,11.310494999983348,0.0,0.0,1.7363893164718327,0.0,0.0,-0.22887711,0.04550859,9.78305193,0.002088,0.002033,0.003936
11.330478999996558,11.330478999996558,0.0,0.0,1.7364694390325113,0.0,0.0,-0.2270818799999999,0.05538726,9.78814332,0.003597,-0.000732,0.003991
11.370444000000134,11.370444000000134,0.0,0.0,1.7366478605922442,0.0,0.0,-0.22184334,0.05823216,9.780962400000002,0.003423,-0.001283,0.004957
11.390429000020958,11.390429000020958,0.0,0.0,1.7367222730930152,0.0,0.0,-0.22603221,0.05988024,9.780815250000002,0.001747,-0.000827,0.003665
11.410412000026554,11.410412000026554,0.0,0.0,1.7368336576476615,0.0,0.0,-0.2270818799999999,0.04295799,9.78156081,0.003777,-0.001304,0.005759
11.43039500003215,11.43039500003215,0.0,0.0,1.7369496444643726,0.0,0.0,-0.22094082,0.04999176,9.78829047,0.002456,0.000162,0.005994
11.470361999992747,11.470361999992747,0.0,0.0,1.7371274380672217,0.0,0.0,-0.23232042,0.05912487,9.768690090000002,0.005193,4e-06,0.004327
11.470361999992747,11.470361999992747,0.0,0.0,1.73712396034861,0.0,0.0,-0.23232042,0.05912487,9.768690090000002,0.005193,4e-06,0.004327
11.510328000003938,11.510328000003938,0.0,0.0,1.7372771267007803,0.0,0.0,-0.21539817,0.0489519,9.780658290000002,0.003316,-0.000437,0.003095
11.530312000017148,11.530312000017148,0.0,0.0,1.7373621155802716,0.0,0.0,-0.21135645,0.04580289,9.78529842,0.002502,0.000724,0.00425
11.550295000022743,11.550295000022743,0.0,0.0,1.7374505883788256,0.0,0.0,-0.22752333,0.05747679,9.78739776,0.002746,2.7e-05,0.004437
11.550295000022743,11.550295000022743,0.0,0.0,1.7374526234430316,0.0,0.0,-0.22752333,0.05747679,9.78739776,0.002746,2.7e-05,0.004437
11.570279000035953,11.570279000035953,0.0,0.0,1.7375479611552054,0.0,0.0,-0.2270818799999999,0.0489519,9.79758054,0.003363,-0.000839,0.004865
11.610244999988936,11.610244999988936,0.0,0.0,1.7377516049787918,0.0,0.0,-0.23605803,0.05687838,9.79038981,0.002421,-0.000121,0.005915
11.630227999994531,11.630227999994531,0.0,0.0,1.7378180966700993,0.0,0.0,-0.22902426,0.04475322,9.78589683,0.004602,0.000299,0.003209
11.630227999994531,11.630227999994531,0.0,0.0,1.7377987237656072,0.0,0.0,-0.22902426,0.04475322,9.78589683,0.004602,0.000299,0.003209
11.670194000005722,11.670194000005722,0.0,0.0,1.737953586847624,0.0,0.0,-0.23321313,0.05837931,9.77916717,0.00375,-0.001072,0.003396
11.690179000026546,11.690179000026546,0.0,0.0,1.7380523802315535,0.0,0.0,-0.2225889,0.06271533,9.78993855,0.002023,-8.2e-05,0.005034
11.710162000032142,11.710162000032142,0.0,0.0,1.738159799723297,0.0,0.0,-0.23605803,0.0467054099999999,9.78529842,0.002654,0.000272,0.005506
11.730145000037737,11.730145000037737,0.0,0.0,1.7382450610718854,0.0,0.0,-0.22902426,0.04790223,9.7781175,0.001606,0.00011,0.004246
11.75012899999274,11.75012899999274,0.0,0.0,1.7383133367453336,0.0,0.0,-0.2257281,0.04835349,9.77991273,0.002032,-0.000886,0.003292
11.770111999998335,11.770111999998335,0.0,0.0,1.7384107579619759,0.0,0.0,-0.21720321,0.0492462,9.78964425,0.002431,-0.000945,0.004954
11.790093999996316,11.790093999996316,0.0,0.0,1.7384912391831504,0.0,0.0,-0.2257281,0.05763375,9.79981722,0.003278,-0.000205,0.003985
11.81007900001714,11.81007900001714,0.0,0.0,1.7385999611815066,0.0,0.0,-0.21390705,0.04999176,9.77916717,0.002486,0.00067,0.005592
11.830062000022735,11.830062000022735,0.0,0.0,1.7387112202023376,0.0,0.0,-0.2297698199999999,0.05074713,9.78529842,0.003519,-0.000912,0.005716
11.85004500002833,11.85004500002833,0.0,0.0,1.7387811079641757,0.0,0.0,-0.228573,0.0606258,9.79338186,0.003193,-0.000358,0.00334
11.870028999983333,11.870028999983333,0.0,0.0,1.7388319724942232,0.0,0.0,-0.22872015,0.04146687,9.78470001,0.003068,0.000883,0.002277
11.909994999994524,11.909994999994524,0.0,0.0,1.7389878781065162,0.0,0.0,-0.21899844,0.04371336,9.78784902,0.002457,-0.000315,0.003609
11.909994999994524,11.909994999994524,0.0,0.0,1.7389796341817876,0.0,0.0,-0.21899844,0.04371336,9.78784902,0.002457,-0.000315,0.003609
11.909994999994524,11.909994999994524,0.0,0.0,1.7389732618316165,0.0,0.0,-0.21899844,0.04371336,9.78784902,0.002457,-0.000315,0.003609
11.92997800000012,11.92997800000012,0.0,0.0,1.73903992093798,0.0,0.0,-0.22677777,0.06017454,9.78844743,0.002404,-5.4e-05,0.003136
11.989929000032134,11.989929000032134,0.0,0.0,1.7392611064938057,0.0,0.0,-0.22153923,0.04386051,9.78904584,0.003533,-7.9e-05,0.003268
12.00991200003773,12.00991200003773,0.0,0.0,1.7393585279492223,0.0,0.0,-0.23291883,0.06541308,9.77976558,0.003601,0.000292,0.004945
12.029895999992732,12.029895999992732,0.0,0.0,1.7394552263080083,0.0,0.0,-0.21959685,0.0538863299999999,9.78500412,0.003084,-0.000239,0.004904
12.049878999998327,12.049878999998327,0.0,0.0,1.739548902151867,0.0,0.0,-0.21106215,0.05014872,9.7866522,0.003855,-0.000863,0.004737
12.069860999996308,12.069860999996308,0.0,0.0,1.739643003523767,0.0,0.0,-0.22378572,0.04580289,9.80222067,0.003625,-0.000612,0.004757
12.089846000017133,12.089846000017133,0.0,0.0,1.7397313298019181,0.0,0.0,-0.23261472,0.06301944,9.77871591,0.001843,-0.000995,0.004435
12.109829000022728,12.109829000022728,0.0,0.0,1.739810625692641,0.0,0.0,-0.21943989,0.04955031,9.78395445,0.003455,-0.001437,0.003935
12.129812000028323,12.129812000028323,0.0,0.0,1.7398814344183364,0.0,0.0,-0.22199049,0.04715667,9.78769206,0.003562,-0.000778,0.003467
12.149795999983326,12.149795999983326,0.0,0.0,1.7399928519165773,0.0,0.0,-0.23007393,0.05089428,9.78574968,0.004629,-0.001935,0.005741
12.169778999988921,12.169778999988921,0.0,0.0,1.7400647116438055,0.0,0.0,-0.22363857,0.05403348,9.77572386,0.004182,-0.000146,0.003506
12.189761999994516,12.189761999994516,0.0,0.0,1.7401253675654038,0.0,0.0,-0.23306598,0.04475322,9.78201207,0.00596,-0.000838,0.002887
12.209745000000112,12.209745000000112,0.0,0.0,1.7402171689198722,0.0,0.0,-0.22304016,0.05239521,9.780815250000002,0.002721,0.001372,0.004662
12.229728000005707,12.229728000005707,0.0,0.0,1.7403344652528592,0.0,0.0,-0.22304016,0.0464013,9.77287896,0.003569,0.000297,0.006095
12.229728000005707,12.229728000005707,0.0,0.0,1.7403609812543221,0.0,0.0,-0.22304016,0.0464013,9.77287896,0.003569,0.000297,0.006095
12.269696000032127,12.269696000032127,0.0,0.0,1.7405424360200907,0.0,0.0,-0.22558095,0.0517968,9.78634809,0.004139,0.000495,0.004469
12.289679000037722,12.289679000037722,0.0,0.0,1.7406248432480815,0.0,0.0,-0.21390705,0.03831786,9.7869465,0.002378,-0.000695,0.00406
12.32964599999832,12.32964599999832,0.0,0.0,1.7408201172381954,0.0,0.0,-0.22438413,0.06452037,9.78335604,0.003219,-0.000857,0.005282
12.3496279999963,12.3496279999963,0.0,0.0,1.7409023049263945,0.0,0.0,-0.23081949,0.05912487,9.77452704,0.003447,-0.000415,0.004093
12.369611000001896,12.369611000001896,0.0,0.0,1.7409664305678518,0.0,0.0,-0.22348161,0.0480493799999999,9.78620094,0.004213,0.000826,0.003139
12.38959600002272,12.38959600002272,0.0,0.0,1.7410343168328808,0.0,0.0,-0.21824307,0.0634707,9.77108373,0.002874,0.000244,0.003336
12.409579000028316,12.409579000028316,0.0,0.0,1.7411075222819266,0.0,0.0,-0.21615354,0.05478885,9.79323471,0.002713,-0.000342,0.003623
12.429562999983318,12.429562999983318,0.0,0.0,1.741177620625411,0.0,0.0,-0.23545962,0.04550859,9.77092677,0.003191,-0.000332,0.003456
12.449545999988914,12.449545999988914,0.0,0.0,1.7412678658988279,0.0,0.0,-0.2297698199999999,0.03607137,9.79413723,0.000644,0.000172,0.00456
12.469528999994509,12.469528999994509,0.0,0.0,1.741366430628351,0.0,0.0,-0.2228832,0.05299362,9.77751909,0.002584,0.000183,0.005014
12.489513000007719,12.489513000007719,0.0,0.0,1.7414736680127065,0.0,0.0,-0.21899844,0.05134554,9.78799617,0.003515,-0.001696,0.005486
12.509496000013314,12.509496000013314,0.0,0.0,1.7415716942206192,0.0,0.0,-0.22917141,0.05478885,9.77737194,0.002351,-0.001393,0.004962
12.52947900001891,12.52947900001891,0.0,0.0,1.7416224185281202,0.0,0.0,-0.21495672,0.0489519,9.78589683,0.003067,0.0005,0.002314
12.52947900001891,12.52947900001891,0.0,0.0,1.7415928374743945,0.0,0.0,-0.21495672,0.0489519,9.78589683,0.003067,0.0005,0.002314
12.569446000037715,12.569446000037715,0.0,0.0,1.7417635850233717,0.0,0.0,-0.21929274,0.04415481,9.78245352,0.002826,-0.000235,0.004657
12.589428999985103,12.589428999985103,0.0,0.0,1.741824043728653,0.0,0.0,-0.22632651,0.05883057,9.77781339,0.002429,-0.000377,0.00289
12.609412999998312,12.609412999998312,0.0,0.0,1.7418783056298217,0.0,0.0,-0.23411565,0.06706116,9.77512545,0.003072,-9.6e-05,0.002557
12.629396000003908,12.629396000003908,0.0,0.0,1.7419523831035297,0.0,0.0,-0.22512969,0.06421626,9.78335604,0.003571,-0.001115,0.003705
12.649379000009503,12.649379000009503,0.0,0.0,1.7420439740973164,0.0,0.0,-0.20821725,0.0347274,9.78350319,0.001843,-0.000891,0.004702
12.669363000022713,12.669363000022713,0.0,0.0,1.7421224222876193,0.0,0.0,-0.23007393,0.02724237,9.77751909,0.002894,-0.000921,0.003936
12.689346000028308,12.689346000028308,0.0,0.0,1.7422143315852283,0.0,0.0,-0.2254338,0.05792805,9.77766624,0.003284,0.000845,0.004703
12.70932999998331,12.70932999998331,0.0,0.0,1.7422892482585377,0.0,0.0,-0.22617936,0.05627997,9.77077962,0.003915,7.1e-05,0.003717
12.729312999988906,12.729312999988906,0.0,0.0,1.74237726252223,0.0,0.0,-0.21824307,0.03039138,9.77467419,0.003341,-0.000584,0.004471
12.749295999994501,12.749295999994501,0.0,0.0,1.7424604322550623,0.0,0.0,-0.23665644,0.04146687,9.77661657,0.001756,0.000168,0.004184
12.769280000007711,12.769280000007711,0.0,0.0,1.7425375189289252,0.0,0.0,-0.20911977,0.0606258,9.78440571,0.003554,0.000908,0.003832
12.789263000013307,12.789263000013307,0.0,0.0,1.7426224016297827,0.0,0.0,-0.23471406,0.03862197,9.79443153,0.001737,-0.001011,0.004283
12.829230000032112,12.829230000032112,0.0,0.0,1.7427740195305654,0.0,0.0,-0.22812174,0.06301944,9.78455286,0.00308,0.000268,0.003529
12.829230000032112,12.829230000032112,0.0,0.0,1.742766611798693,0.0,0.0,-0.22812174,0.06301944,9.78455286,0.00308,0.000268,0.003529
12.849213000037707,12.849213000037707,0.0,0.0,1.7428744287752718,0.0,0.0,-0.23022108,0.05044302,9.79758054,0.00203,0.000901,0.005661
12.889179999998305,12.889179999998305,0.0,0.0,1.7430319753813093,0.0,0.0,-0.23381154,-0.01092834,9.79248915,0.00558,-0.002466,0.003725
12.9091630000039,12.9091630000039,0.0,0.0,1.7431377778077835,0.0,0.0,-0.22737618,0.0404172,9.79607961,0.003953,0.000875,0.005377
12.92914700001711,12.92914700001711,0.0,0.0,1.7432339285221428,0.0,0.0,-0.22782744,0.07559586,9.82152675,0.003876,-0.000368,0.004854
12.949130000022706,12.949130000022706,0.0,0.0,1.7433196843966066,0.0,0.0,-0.22333446,0.06137136,9.79607961,0.0033,9.2e-05,0.004287
12.969113000028301,12.969113000028301,0.0,0.0,1.7433845882304668,0.0,0.0,-0.22094082,0.01856052,9.78574968,0.001302,-0.00041,0.003146
12.989096999983303,12.989096999983303,0.0,0.0,1.74349472622571,0.0,0.0,-0.23306598,0.02155257,9.79189074,0.001797,-0.001026,0.005646
13.009079999988899,13.009079999988899,0.0,0.0,1.7435946222580752,0.0,0.0,-0.23306598,0.02769363,9.78919299,0.005028,-0.000772,0.005066
13.029062999994494,13.029062999994494,0.0,0.0,1.7436718457269462,0.0,0.0,-0.2128573799999999,0.06795387,9.79398027,0.004094,0.000349,0.003797
13.049047000007704,13.049047000007704,0.0,0.0,1.743762086386516,0.0,0.0,-0.23306598,0.07184844,9.78365034,0.004445,-9.5e-05,0.004532
13.0690300000133,13.0690300000133,0.0,0.0,1.7438205311827124,0.0,0.0,-0.2297698199999999,0.0691605,9.77032836,0.001831,-0.001845,0.002746
13.08901400002651,13.08901400002651,0.0,0.0,1.7438706355228515,0.0,0.0,-0.22812174,0.04984461,9.7869465,0.004783,-1.3e-05,0.002298
13.108997000032105,13.108997000032105,0.0,0.0,1.7439321492806066,0.0,0.0,-0.22947552,0.03622833,9.7755669,0.005194,-0.001623,0.002969
13.1289800000377,13.1289800000377,0.0,0.0,1.743968809933361,0.0,0.0,-0.22467843,0.03353058,9.78545538,0.004055,-0.000679,0.001576
13.1289800000377,13.1289800000377,0.0,0.0,1.743938674397235,0.0,0.0,-0.22467843,0.03353058,9.78545538,0.004055,-0.000679,0.001576
13.168946999998298,13.168946999998298,0.0,0.0,1.744074565404123,0.0,0.0,-0.23500836,0.06032169,9.78500412,0.001294,-0.00024,0.003551
13.188930000003893,13.188930000003893,0.0,0.0,1.7441563806283185,0.0,0.0,-0.2254338,0.06316659,9.78799617,0.001698,-0.001367,0.004204
13.208914000017103,13.208914000017103,0.0,0.0,1.7442591232475726,0.0,0.0,-0.21180771,0.04520448,9.77916717,0.001549,-0.00122,0.005384
13.248881000035908,13.248881000035908,0.0,0.0,1.7443969637463308,0.0,0.0,-0.21615354,0.03726819,9.78305193,0.004297,0.000344,0.003186
13.268863999983296,13.268863999983296,0.0,0.0,1.7444896668151522,0.0,0.0,-0.23156505,0.04161402,9.76778757,0.004621,0.00168,0.004681
13.288846999988891,13.288846999988891,0.0,0.0,1.744567074208775,0.0,0.0,-0.22048956,0.03248091,9.77706783,0.002823,0.000613,0.003879
13.308831000002101,13.308831000002101,0.0,0.0,1.7446292320316124,0.0,0.0,-0.22123512,0.06930765,9.79937577,0.002309,-0.002239,0.003066
13.308831000002101,13.308831000002101,0.0,0.0,1.744618964183104,0.0,0.0,-0.22123512,0.06930765,9.79937577,0.002309,-0.002239,0.003066
13.348797000013292,13.348797000013292,0.0,0.0,1.7447692110646216,0.0,0.0,-0.22917141,0.04580289,9.78799617,0.003043,0.000506,0.003931
13.368781000026502,13.368781000026502,0.0,0.0,1.744838133388435,0.0,0.0,-0.21869433,0.04475322,9.77886306,0.003007,9e-06,0.003429
13.388763000024483,13.388763000024483,0.0,0.0,1.7449070154639958,0.0,0.0,-0.23381154,0.06780672,9.78754491,0.003007,9e-06,0.003429
13.408747000037692,13.408747000037692,0.0,0.0,1.7450078759599892,0.0,0.0,-0.2140542,0.04835349,9.76704201,0.005398,-0.001437,0.005203
13.42872999998508,13.42872999998508,0.0,0.0,1.7450974173302374,0.0,0.0,-0.23096664,0.04595004,9.77422293,0.001816,-0.000484,0.004556
13.42872999998508,13.42872999998508,0.0,0.0,1.7451075674080307,0.0,0.0,-0.23096664,0.04595004,9.77422293,0.001816,-0.000484,0.004556
13.448712999990676,13.448712999990676,0.0,0.0,1.7451482492842185,0.0,0.0,-0.2080701,0.04790223,9.7869465,0.003891,0.001718,0.001547
13.48868000000948,13.48868000000948,0.0,0.0,1.7452970531526404,0.0,0.0,-0.22632651,0.03128409,9.7784118,0.00434,0.000952,0.003759
13.508663000015076,13.508663000015076,0.0,0.0,1.745404786252438,0.0,0.0,-0.2131614899999999,0.04654845,9.77512545,0.002127,-0.000311,0.00559
13.528647000028286,13.528647000028286,0.0,0.0,1.7455091228238402,0.0,0.0,-0.22333446,0.06541308,9.78201207,0.00339,9.1e-05,0.005374
13.548630000033882,13.548630000033882,0.0,0.0,1.7455866063106988,0.0,0.0,-0.23516532,0.06196977,9.78275763,0.004416,-0.000478,0.003843
13.568613999988884,13.568613999988884,0.0,0.0,1.7456874709734915,0.0,0.0,-0.2297698199999999,0.0375723,9.77437008,0.003376,-0.000328,0.005167
13.58859699999448,13.58859699999448,0.0,0.0,1.7457750392905496,0.0,0.0,-0.22348161,0.04685256,9.78305193,0.003906,0.000352,0.004399
13.58859699999448,13.58859699999448,0.0,0.0,1.7457770099346872,0.0,0.0,-0.22348161,0.04685256,9.78305193,0.003906,0.000352,0.004399
13.628564000013284,13.628564000013284,0.0,0.0,1.7459528655226997,0.0,0.0,-0.23067234,0.04386051,9.78245352,0.003925,-3.4e-05,0.004544
13.64854700001888,13.64854700001888,0.0,0.0,1.746018280923372,0.0,0.0,-0.22588506,0.06107706,9.77572386,0.002464,-0.000604,0.003126
13.66853100003209,13.66853100003209,0.0,0.0,1.746113581505469,0.0,0.0,-0.21495672,0.04999176,9.79069392,0.002585,0.000578,0.004855
13.688514000037685,13.688514000037685,0.0,0.0,1.7461919258112992,0.0,0.0,-0.2282787,0.04386051,9.77706783,0.001527,-0.001103,0.003873
13.708496999985073,13.708496999985073,0.0,0.0,1.746262283982765,0.0,0.0,-0.23306598,0.046107,9.77871591,0.002874,-0.000942,0.003423
13.728480999998283,13.728480999998283,0.0,0.0,1.7463694140470665,0.0,0.0,-0.21824307,0.03726819,9.78545538,0.00272,-0.000188,0.005543
13.748464000003878,13.748464000003878,0.0,0.0,1.7464557717251505,0.0,0.0,-0.21659499,0.03876912,9.77182929,0.003284,0.000806,0.004326
13.788431000022683,13.788431000022683,0.0,0.0,1.7466362500344284,0.0,0.0,-0.22812174,0.05627997,9.78784902,0.003143,0.000904,0.004749
13.788431000022683,13.788431000022683,0.0,0.0,1.7466427898195764,0.0,0.0,-0.22812174,0.05627997,9.78784902,0.003143,0.000904,0.004749
13.828397999983281,13.828397999983281,0.0,0.0,1.7468118781502797,0.0,0.0,-0.22648347,0.03967164,9.78156081,0.001317,-0.000307,0.004028
13.848380999988876,13.848380999988876,0.0,0.0,1.7468908368555578,0.0,0.0,-0.22408002,0.0480493799999999,9.77347737,0.002266,0.000275,0.003923
13.868363999994472,13.868363999994472,0.0,0.0,1.7469781644010594,0.0,0.0,-0.22199049,0.0375723,9.77661657,0.003075,-0.000185,0.004376
13.888348000007682,13.888348000007682,0.0,0.0,1.747044981090589,0.0,0.0,-0.2342628,0.05419044,9.77333022,0.001365,-0.001587,0.003259
13.908331000013277,13.908331000013277,0.0,0.0,1.7471347208883854,0.0,0.0,-0.2270818799999999,0.04371336,9.77496849,0.003595,-0.000578,0.004522
13.928315000026487,13.928315000026487,0.0,0.0,1.7472230097249035,0.0,0.0,-0.23500836,0.03907323,9.78455286,0.005401,-0.00021,0.004439
13.948298000032082,13.948298000032082,0.0,0.0,1.747326914240369,0.0,0.0,-0.22902426,0.05343507,9.780511140000002,0.004521,-0.001883,0.005303
13.968281000037678,13.968281000037678,0.0,0.0,1.7473963920906046,0.0,0.0,-0.22782744,0.05598567,9.76823883,0.003859,0.000592,0.003374
13.98826499999268,13.98826499999268,0.0,0.0,1.7474667209439128,0.0,0.0,-0.22199049,0.05239521,9.78709365,0.001757,-0.000951,0.003433
14.008247999998275,14.008247999998275,0.0,0.0,1.7475742046839704,0.0,0.0,-0.21929274,0.05763375,9.79248915,0.001672,-0.001377,0.00553
14.02823100000387,14.02823100000387,0.0,0.0,1.7476820191282787,0.0,0.0,-0.2225889,0.05463189,9.7841016,0.001672,-0.001377,0.00553
14.02823100000387,14.02823100000387,0.0,0.0,1.74769839913378,0.0,0.0,-0.2225889,0.05463189,9.7841016,0.001672,-0.001377,0.00553
14.068198000022676,14.068198000022676,0.0,0.0,1.7478988506113335,0.0,0.0,-0.22648347,0.04595004,9.79024266,0.002441,-0.00198,0.005535
14.088182000035886,14.088182000035886,0.0,0.0,1.7479874628735095,0.0,0.0,-0.2254338,0.05044302,9.77856876,0.003358,-0.000174,0.004393
14.108164999983273,14.108164999983273,0.0,0.0,1.7480594235606013,0.0,0.0,-0.22048956,0.05239521,9.79338186,0.003363,5.7e-05,0.00345
14.128147999988869,14.128147999988869,0.0,0.0,1.7481305813561834,0.0,0.0,-0.23591088,0.05328792,9.79084107,0.003202,-0.000842,0.003426
14.148132000002079,14.148132000002079,0.0,0.0,1.7482289341979786,0.0,0.0,-0.21195486,0.05059017,9.78515127,0.003684,-0.000349,0.004999
14.168115000007674,14.168115000007674,0.0,0.0,1.7483254505860417,0.0,0.0,-0.22588506,0.0467054099999999,9.78395445,0.004162,0.000966,0.004883
14.188099000020884,14.188099000020884,0.0,0.0,1.7483940494327275,0.0,0.0,-0.22168638,0.0580752,9.78215922,0.002046,-0.000459,0.003277
14.20808200002648,14.20808200002648,0.0,0.0,1.748472022433984,0.0,0.0,-0.22378572,0.05613282,9.7781175,0.001688,0.000659,0.003837
14.228065000032075,14.228065000032075,0.0,0.0,1.7485310778560779,0.0,0.0,-0.22917141,0.03862197,9.7894971,0.002553,-0.000741,0.002762
14.248048999987077,14.248048999987077,0.0,0.0,1.7486220480696861,0.0,0.0,-0.23336028,0.05553441,9.79084107,0.003394,-0.001238,0.004621
14.288016000005882,14.288016000005882,0.0,0.0,1.748807931142446,0.0,0.0,-0.24608385,0.04685256,9.78993855,0.002905,-3.7e-05,0.00518
14.307999000011478,14.307999000011478,0.0,0.0,1.7488673982535978,0.0,0.0,-0.22992678,0.0258984,9.78649524,0.002158,-0.000568,0.002916
14.327982000017073,14.327982000017073,0.0,0.0,1.74893909167987,0.0,0.0,-0.21943989,0.05373918,9.77392863,0.004682,0.000814,0.003558
14.327982000017073,14.327982000017073,0.0,0.0,1.7489312885131723,0.0,0.0,-0.21943989,0.05373918,9.77392863,0.004682,0.000814,0.003558
14.367949000035878,14.367949000035878,0.0,0.0,1.749098292074855,0.0,0.0,-0.2314179,0.04969746,9.78904584,0.00217,-0.000548,0.00442
14.38793299999088,14.38793299999088,0.0,0.0,1.7491949375727698,0.0,0.0,-0.22123512,0.05268951,9.78993855,0.001902,-0.000888,0.004908
14.407915999996476,14.407915999996476,0.0,0.0,1.7492793141627452,0.0,0.0,-0.23306598,0.05163984,9.77407578,0.002937,-0.000537,0.004229
14.427899000002071,14.427899000002071,0.0,0.0,1.7493728672006457,0.0,0.0,-0.23545962,0.0520911,9.78201207,0.003927,-0.001479,0.004735
14.447883000015281,14.447883000015281,0.0,0.0,1.7494665221312253,0.0,0.0,-0.21525102,0.05314077,9.78440571,0.003927,-0.001479,0.004735
14.467866000020877,14.467866000020877,0.0,0.0,1.749536466700043,0.0,0.0,-0.21929274,0.03862197,9.77003406,0.00331,0.000803,0.003408
14.487850000034086,14.487850000034086,0.0,0.0,1.7496057975596857,0.0,0.0,-0.24100227,0.0580752,9.78261048,0.002968,-8e-05,0.003384
14.507832999981474,14.507832999981474,0.0,0.0,1.7496857810744375,0.0,0.0,-0.21135645,0.05792805,9.7866522,0.004346,0.000343,0.003993
14.52781599998707,14.52781599998707,0.0,0.0,1.7497638806495512,0.0,0.0,-0.22617936,0.0525423599999999,9.78470001,0.001442,0.001279,0.003888
14.54780000000028,14.54780000000028,0.0,0.0,1.7498575421955298,0.0,0.0,-0.219744,0.04790223,9.78455286,0.002921,-0.001762,0.00477
14.567783000005875,14.567783000005875,0.0,0.0,1.7499342560465836,0.0,0.0,-0.21959685,0.0464013,9.7869465,0.002476,-0.000188,0.003799
14.587767000019085,14.587767000019085,0.0,0.0,1.750015634394618,0.0,0.0,-0.23920704,0.046107,9.78634809,0.003349,-8.2e-05,0.004069
14.60775000002468,14.60775000002468,0.0,0.0,1.7500804615510068,0.0,0.0,-0.23216346,0.04445892,9.78036399,0.00328,0.000403,0.003128
14.627733000030275,14.627733000030275,0.0,0.0,1.7501382686486897,0.0,0.0,-0.22632651,0.05583852,9.79398027,0.003589,-0.000971,0.002744
14.627733000030275,14.627733000030275,0.0,0.0,1.7501218386497426,0.0,0.0,-0.22632651,0.05583852,9.79398027,0.003589,-0.000971,0.002744
14.667699999990873,14.667699999990873,0.0,0.0,1.7502654904011,0.0,0.0,-0.22363857,0.05074713,9.78485697,0.003608,0.00078,0.003483
14.687684000004083,14.687684000004083,0.0,0.0,1.7503608380169347,0.0,0.0,-0.22378572,0.04730382,9.77751909,0.002632,-0.001507,0.004935
14.727650000015274,14.727650000015274,0.0,0.0,1.7504983097827171,0.0,0.0,-0.22483539,0.04730382,9.79009551,0.002067,-0.000498,0.003031
14.747634000028484,14.747634000028484,0.0,0.0,1.7505769695062146,0.0,0.0,-0.23696055,0.04415481,9.76688505,0.002925,0.000244,0.003946
14.767617000034079,14.767617000034079,0.0,0.0,1.750656024223292,0.0,0.0,-0.22812174,0.04445892,9.7755669,0.002126,-7.5e-05,0.003968
14.787600999989081,14.787600999989081,0.0,0.0,1.7507699382037147,0.0,0.0,-0.2297698199999999,0.05867361,9.77392863,0.003269,0.000164,0.005829
14.807583999994677,14.807583999994677,0.0,0.0,1.750864689858484,0.0,0.0,-0.228573,0.06002739,9.78215922,0.004328,0.000761,0.004794
14.827567000000272,14.827567000000272,0.0,0.0,1.7509301849566077,0.0,0.0,-0.21735036,0.04386051,9.78305193,0.003188,0.000864,0.003202
14.847551000013482,14.847551000013482,0.0,0.0,1.7510003407023085,0.0,0.0,-0.22483539,0.03353058,9.77018121,0.002436,-0.00027,0.003462
14.847551000013482,14.847551000013482,0.0,0.0,1.7509924282713447,0.0,0.0,-0.22483539,0.03353058,9.77018121,0.002436,-0.00027,0.003462
14.867534000019077,14.867534000019077,0.0,0.0,1.7510684771491274,0.0,0.0,-0.24055101,0.06167547,9.7838073,0.002133,-0.000428,0.003785
14.907501000037882,14.907501000037882,0.0,0.0,1.7512206426961638,0.0,0.0,-0.22872015,0.04475322,9.77496849,0.001849,0.000506,0.003718
14.92748399998527,14.92748399998527,0.0,0.0,1.7513120446609598,0.0,0.0,-0.22617936,0.04909905,9.78709365,0.002574,0.000658,0.00465
14.92748399998527,14.92748399998527,0.0,0.0,1.7513228842055986,0.0,0.0,-0.22617936,0.04909905,9.78709365,0.002574,0.000658,0.00465
14.967451000004075,14.967451000004075,0.0,0.0,1.751489583315328,0.0,0.0,-0.22962267,0.06017454,9.7869465,0.002328,-0.00025,0.004321
14.987435000017285,14.987435000017285,0.0,0.0,1.7515748345146172,0.0,0.0,-0.22467843,0.04909905,9.78515127,0.004916,-0.000571,0.004288
15.00741800002288,15.00741800002288,0.0,0.0,1.7516426583972233,0.0,0.0,-0.22094082,0.06392196,9.77991273,0.00288,0.001758,0.003303
15.027401000028476,15.027401000028476,0.0,0.0,1.751732104959669,0.0,0.0,-0.23096664,0.04235958,9.77976558,0.003541,-0.001158,0.004537
15.047384999983478,15.047384999983478,0.0,0.0,1.7518126073193008,0.0,0.0,-0.21135645,0.0404172,9.78605379,0.003008,0.001144,0.004022
15.087352000002284,15.087352000002284,0.0,0.0,1.7519605557518112,0.0,0.0,-0.22632651,0.05299362,9.78305193,0.002697,0.00068,0.00332
15.087352000002284,15.087352000002284,0.0,0.0,1.7519496597172797,0.0,0.0,-0.22632651,0.05299362,9.78305193,0.002697,0.00068,0.00332
15.127318000013474,15.127318000013474,0.0,0.0,1.7520903047649057,0.0,0.0,-0.23800041,0.04759812,9.77677353,0.002248,-0.001058,0.003126
15.147302000026684,15.147302000026684,0.0,0.0,1.7521616164352585,0.0,0.0,-0.22842585,0.05478885,9.79353882,0.004304,-0.000831,0.003556
15.16728500003228,15.16728500003228,0.0,0.0,1.7522179265403652,0.0,0.0,-0.21510387,0.05403348,9.78769206,0.003229,-0.00133,0.002751
15.187268999987282,15.187268999987282,0.0,0.0,1.7522873580636,0.0,0.0,-0.23665644,0.0467054099999999,9.78185511,0.001271,0.000265,0.003464
15.207251999992877,15.207251999992877,0.0,0.0,1.7523527782422992,0.0,0.0,-0.22393287,0.054936,9.78395445,0.003796,0.000731,0.003246
15.227234999998473,15.227234999998473,0.0,0.0,1.7524423738288206,0.0,0.0,-0.21869433,0.0517968,9.78290478,0.00353,-0.000355,0.004576
15.227234999998473,15.227234999998473,0.0,0.0,1.752456808040466,0.0,0.0,-0.21869433,0.0517968,9.78290478,0.00353,-0.000355,0.004576
15.247219000011683,15.247219000011683,0.0,0.0,1.752517010534258,0.0,0.0,-0.23845167,0.04535163,9.79129233,0.00301,-0.000854,0.002831
15.287186000030488,15.287186000030488,0.0,0.0,1.7526729564243668,0.0,0.0,-0.2140542,0.03607137,9.77991273,0.003007,-0.001871,0.004185
15.307169000036083,15.307169000036083,0.0,0.0,1.7527727464012939,0.0,0.0,-0.23291883,0.06825798,9.780815250000002,0.004495,0.001208,0.00513
15.32715199998347,15.32715199998347,0.0,0.0,1.752843007080081,0.0,0.0,-0.23935419,0.04475322,9.79189074,0.002719,0.001431,0.003469
15.34713599999668,15.34713599999668,0.0,0.0,1.7529084528297263,0.0,0.0,-0.2228832,0.05359203,9.77601816,0.004121,0.000587,0.003205
15.367119000002276,15.367119000002276,0.0,0.0,1.7529718365884337,0.0,0.0,-0.2399526,0.0634707,9.77541975,0.002642,-1e-05,0.003098
15.3871040000231,15.3871040000231,0.0,0.0,1.7530203602718366,0.0,0.0,-0.22931856,0.0525423599999999,9.7929306,0.002313,-0.000119,0.00227
15.407087000028696,15.407087000028696,0.0,0.0,1.7531043371490789,0.0,0.0,-0.22768029,0.04730382,9.77152518,0.004233,-0.000167,0.004293
15.427070999983698,15.427070999983698,0.0,0.0,1.753146985684535,0.0,0.0,-0.23276187,0.05732964,9.77737194,0.004019,-0.000567,0.001941
15.467036999994889,15.467036999994889,0.0,0.0,1.7532923538282557,0.0,0.0,-0.22947552,0.05583852,9.76913154,0.001601,-0.001351,0.003902
15.487020000000484,15.487020000000484,0.0,0.0,1.7533533499006957,0.0,0.0,-0.23486121,0.05538726,9.78201207,0.002388,-0.000546,0.003038
15.50700300000608,15.50700300000608,0.0,0.0,1.753442458762981,0.0,0.0,-0.22782744,0.05988024,9.78245352,0.002878,-0.001107,0.004511
15.526988000026904,15.526988000026904,0.0,0.0,1.7535394634013546,0.0,0.0,-0.21495672,0.05883057,9.77781339,0.003748,0.001487,0.004933
15.526988000026904,15.526988000026904,0.0,0.0,1.7535591172886242,0.0,0.0,-0.21495672,0.05883057,9.77781339,0.003748,0.001487,0.004933
15.526988000026904,15.526988000026904,0.0,0.0,1.7535745155478546,0.0,0.0,-0.21495672,0.05883057,9.77781339,0.003748,0.001487,0.004933
15.5469710000325,15.5469710000325,0.0,0.0,1.7536551654906525,0.0,0.0,-0.2371077,0.05014872,9.78679935,0.003124,0.00028,0.004047
15.586937999993097,15.586937999993097,0.0,0.0,1.7538280834798696,0.0,0.0,-0.22378572,0.05553441,9.77362452,0.001969,-0.000231,0.00476
15.626904000004288,15.626904000004288,0.0,0.0,1.753980818141665,0.0,0.0,-0.20881566,0.04535163,9.780962400000002,0.001925,-0.000871,0.003505
15.646888000017498,15.646888000017498,0.0,0.0,1.7540806634660937,0.0,0.0,-0.21929274,0.0520911,9.77273181,0.002939,-0.000627,0.005059
15.666872000030708,15.666872000030708,0.0,0.0,1.7542008502768347,0.0,0.0,-0.219744,0.05852646,9.77541975,0.002886,-0.000492,0.006151
15.686855000036303,15.686855000036303,0.0,0.0,1.75427508248461,0.0,0.0,-0.21899844,0.05194395,9.77182929,0.003464,0.000435,0.003654
15.70683799998369,15.70683799998369,0.0,0.0,1.7543459607099683,0.0,0.0,-0.23232042,0.05478885,9.77617512,0.003645,0.000187,0.003475
15.7268219999969,15.7268219999969,0.0,0.0,1.7544207206144753,0.0,0.0,-0.2112093,0.0480493799999999,9.78245352,0.003056,0.000698,0.003694
15.746803999994881,15.746803999994881,0.0,0.0,1.7544950853794372,0.0,0.0,-0.22273605,0.04715667,9.77991273,0.00353,-0.000977,0.003677
15.766789000015706,15.766789000015706,0.0,0.0,1.754572008081861,0.0,0.0,-0.24009975,0.05703534,9.77302611,0.001709,-0.001244,0.003823
15.786772000021301,15.786772000021301,0.0,0.0,1.7546828601969668,0.0,0.0,-0.22663062,0.04745097,9.77452704,0.003121,-0.000138,0.00572
15.806755000026897,15.806755000026897,0.0,0.0,1.7547807380598854,0.0,0.0,-0.21809592,0.04221243,9.77182929,0.002764,-0.000142,0.004973
15.826738999981899,15.826738999981899,0.0,0.0,1.754888863929911,0.0,0.0,-0.23007393,0.05643693,9.79233219,0.002959,0.000603,0.00554
15.826738999981899,15.826738999981899,0.0,0.0,1.754904858225558,0.0,0.0,-0.23007393,0.05643693,9.79233219,0.002959,0.000603,0.00554
15.866706000000704,15.866706000000704,0.0,0.0,1.7550482383680457,0.0,0.0,-0.22184334,0.03053853,9.76628664,0.004304,-0.000329,0.002251
15.90667300001951,15.90667300001951,0.0,0.0,1.7551795499125662,0.0,0.0,-0.21780162,0.05658408,9.78844743,0.004708,-0.001689,0.002214
15.926656000025105,15.926656000025105,0.0,0.0,1.7552659329601745,0.0,0.0,-0.21704625,0.0480493799999999,9.77467419,0.003632,0.000274,0.004334
15.9466390000307,15.9466390000307,0.0,0.0,1.755393072444626,0.0,0.0,-0.2459367,0.05014872,9.78574968,0.002219,0.000541,0.006474
15.966622999985702,15.966622999985702,0.0,0.0,1.7554707038041633,0.0,0.0,-0.22139208,0.06196977,9.78739776,0.002841,-0.000808,0.003854
15.986605999991298,15.986605999991298,0.0,0.0,1.7555666184170748,0.0,0.0,-0.23650929,0.05314077,9.77946147,0.003585,-0.001231,0.004834
16.006588999996893,16.006588999996893,0.0,0.0,1.7556714485527252,0.0,0.0,-0.23186916,0.04969746,9.78350319,0.003009,0.000158,0.005315
16.02657200000249,16.02657200000249,0.0,0.0,1.755745818222655,0.0,0.0,-0.21584943,0.0492462,9.79098822,0.004952,0.001559,0.003651
16.046557000023313,16.046557000023313,0.0,0.0,1.7559212701596572,0.0,0.0,-0.22692492,0.08337519,9.76000824,0.009844,0.001438,0.009203
16.06654000002891,16.06654000002891,0.0,0.0,1.755979174241018,0.0,0.0,-0.26315325,-0.02649681,9.74473407,0.000699,0.000769,0.002676
16.086523000034504,16.086523000034504,0.0,0.0,1.7560891070016122,0.0,0.0,-0.19728891,0.05538726,9.7784118,-0.000415,0.000123,0.005586
16.106506999989506,16.106506999989506,0.0,0.0,1.7561387496299465,0.0,0.0,-0.2137599,0.10612458,9.80222067,0.005506,0.000791,0.002214
16.1264899999951,16.1264899999951,0.0,0.0,1.7562124445460672,0.0,0.0,-0.23456691,0.00748503,9.77601816,0.003189,-0.002264,0.003592
16.1264899999951,16.1264899999951,0.0,0.0,1.7562001311727622,0.0,0.0,-0.23456691,0.00748503,9.77601816,0.003189,-0.002264,0.003592
16.146473000000697,16.146473000000697,0.0,0.0,1.7563160778504665,0.0,0.0,-0.24264054,0.00942741,9.7869465,0.001386,0.000186,0.00619
16.186441000027116,16.186441000027116,0.0,0.0,1.756524727735167,0.0,0.0,-0.22902426,0.0407115,9.77797035,0.003308,-0.000572,0.006097
16.20642400003271,16.20642400003271,0.0,0.0,1.756612319086103,0.0,0.0,-0.23815737,0.02035575,9.76688505,0.001562,-0.001471,0.004341
16.226407999987714,16.226407999987714,0.0,0.0,1.756652319162912,0.0,0.0,-0.25581537,0.07380063,9.79488279,0.005742,0.001912,0.001667
16.24639099999331,16.24639099999331,0.0,0.0,1.7567304182254109,0.0,0.0,-0.20597076,0.0511983899999999,9.7954812,0.003409,0.001201,0.003862
16.266373999998905,16.266373999998905,0.0,0.0,1.7568047319102256,0.0,0.0,-0.21555513,0.04491018,9.77407578,0.00242,-0.001539,0.003654
16.2863570000045,16.2863570000045,0.0,0.0,1.756884163669926,0.0,0.0,-0.23980545,0.05763375,9.78350319,0.003934,8.2e-05,0.003953
16.30634100001771,16.30634100001771,0.0,0.0,1.756943270320928,0.0,0.0,-0.23336028,0.05598567,9.78485697,0.004343,-3.8e-05,0.002801
16.32632500003092,16.32632500003092,0.0,0.0,1.75704734494286,0.0,0.0,-0.23007393,0.0520911,9.77721498,0.003612,6.2e-05,0.005382
16.346308000036515,16.346308000036515,0.0,0.0,1.757146351872544,0.0,0.0,-0.22213764,0.04939335,9.78290478,0.003174,-0.000733,0.005069
16.366291999991518,16.366291999991518,0.0,0.0,1.757252514112909,0.0,0.0,-0.21943989,0.04999176,9.79443153,0.003609,0.00241,0.005461
16.3862739999895,16.3862739999895,0.0,0.0,1.7573301832612174,0.0,0.0,-0.22363857,0.05897772,9.78305193,0.002912,-0.000321,0.003812
16.406256999995094,16.406256999995094,0.0,0.0,1.757420061772363,0.0,0.0,-0.2459367,0.0407115,9.78455286,0.003262,0.000191,0.004521
16.426241000008304,16.426241000008304,0.0,0.0,1.757496853352455,0.0,0.0,-0.23531247,0.04984461,9.79398027,0.003374,0.000305,0.003768
16.426241000008304,16.426241000008304,0.0,0.0,1.7574889265120923,0.0,0.0,-0.23531247,0.04984461,9.79398027,0.003374,0.000305,0.003768
16.46620800002711,16.46620800002711,0.0,0.0,1.7576565014852168,0.0,0.0,-0.24055101,0.05763375,9.77931432,0.002507,0.000334,0.004155
16.486191000032704,16.486191000032704,0.0,0.0,1.757740602613068,0.0,0.0,-0.22887711,0.05239521,9.78814332,0.003431,-0.000513,0.004208
16.506174999987707,16.506174999987707,0.0,0.0,1.757856297805544,0.0,0.0,-0.22199049,0.04864779,9.78634809,0.002836,-0.002021,0.006026
16.526157999993302,16.526157999993302,0.0,0.0,1.7579530549598186,0.0,0.0,-0.24713352,0.06481467,9.77347737,0.003739,-0.000295,0.0049
16.546142000006512,16.546142000006512,0.0,0.0,1.7580407432992704,0.0,0.0,-0.22139208,0.05373918,9.78904584,0.003002,0.000954,0.004369
16.586108000017703,16.586108000017703,0.0,0.0,1.7582007716729269,0.0,0.0,-0.24384717,0.04850064,9.77692068,0.004154,0.000962,0.003481
16.586108000017703,16.586108000017703,0.0,0.0,1.7581861967119146,0.0,0.0,-0.24384717,0.04850064,9.77692068,0.004154,0.000962,0.003481
16.626075000036508,16.626075000036508,0.0,0.0,1.7583490256356846,0.0,0.0,-0.22423698,0.03712104,9.79517709,0.003138,-0.001282,0.003894
16.64605899999151,16.64605899999151,0.0,0.0,1.7584517509448334,0.0,0.0,-0.2456424,0.04864779,9.77108373,0.003122,0.000119,0.005209
16.666041999997105,16.666041999997105,0.0,0.0,1.7585275364746504,0.0,0.0,-0.21570228,0.05074713,9.77946147,0.002722,-0.001193,0.003749
16.686026000010315,16.686026000010315,0.0,0.0,1.758604963414653,0.0,0.0,-0.2131614899999999,0.05359203,9.78500412,0.001429,-0.001095,0.003841
16.70600900001591,16.70600900001591,0.0,0.0,1.7586525613575654,0.0,0.0,-0.23440995,0.05508315,9.76764042,0.002843,0.000593,0.002207
16.72599300002912,16.72599300002912,0.0,0.0,1.7587518102892492,0.0,0.0,-0.22108797,0.04295799,9.7869465,0.002831,-0.000252,0.005074
16.72599300002912,16.72599300002912,0.0,0.0,1.7587676992876302,0.0,0.0,-0.22108797,0.04295799,9.7869465,0.002831,-0.000252,0.005074
16.745976000034716,16.745976000034716,0.0,0.0,1.75883393400217,0.0,0.0,-0.22304016,0.04879494,9.76568823,0.002671,0.000686,0.003102
16.785942999995314,16.785942999995314,0.0,0.0,1.7590136246010797,0.0,0.0,-0.21989115,0.04520448,9.78261048,0.001914,-0.000271,0.005021
16.80592600000091,16.80592600000091,0.0,0.0,1.7591162015296797,0.0,0.0,-0.21615354,0.0407115,9.77632227,0.00217,-0.001161,0.005238
16.80592600000091,16.80592600000091,0.0,0.0,1.7591303939927956,0.0,0.0,-0.21615354,0.0407115,9.77632227,0.00217,-0.001161,0.005238
16.845893000019714,16.845893000019714,0.0,0.0,1.75930888451901,0.0,0.0,-0.21479976,0.0464013,9.78110955,0.003018,0.000414,0.004488
16.865877000032924,16.865877000032924,0.0,0.0,1.7593865814241907,0.0,0.0,-0.21390705,0.05747679,9.78156081,0.001854,-0.00095,0.003816
16.88586000003852,16.88586000003852,0.0,0.0,1.7594982224209854,0.0,0.0,-0.23755896,0.05134554,9.77781339,0.004255,0.000591,0.005745
16.90584399999352,16.90584399999352,0.0,0.0,1.7595518042350493,0.0,0.0,-0.21390705,0.05643693,9.79907166,0.003671,-0.000648,0.002434
16.925826999999117,16.925826999999117,0.0,0.0,1.75964033388576,0.0,0.0,-0.22184334,0.04819653,9.77467419,0.004585,0.000901,0.004452
16.945811000012327,16.945811000012327,0.0,0.0,1.7597085717094707,0.0,0.0,-0.23755896,0.05718249,9.78230637,0.002828,0.00033,0.003295
16.965794000017922,16.965794000017922,0.0,0.0,1.7597749829757356,0.0,0.0,-0.20971818,0.04835349,9.79353882,0.002263,-0.000325,0.003208
16.985778000031132,16.985778000031132,0.0,0.0,1.7598347469744091,0.0,0.0,-0.23186916,0.05897772,9.79009551,0.00135,0.000259,0.002845
17.005761000036728,17.005761000036728,0.0,0.0,1.7599668405837923,0.0,0.0,-0.22887711,0.0580752,9.79143948,0.003688,-0.000314,0.006996
17.025743999984115,17.025743999984115,0.0,0.0,1.7600502205362085,0.0,0.0,-0.2200383,0.0407115,9.78784902,0.00295,-0.001571,0.004156
17.025743999984115,17.025743999984115,0.0,0.0,1.7600484403957468,0.0,0.0,-0.2200383,0.0407115,9.78784902,0.00295,-0.001571,0.004156
17.06571100000292,17.06571100000292,0.0,0.0,1.760229953848901,0.0,0.0,-0.23306598,0.05239521,9.79997418,0.004214,0.001701,0.00491
17.105678000021726,17.105678000021726,0.0,0.0,1.760393175983686,0.0,0.0,-0.2270818799999999,0.04999176,9.7784118,0.003442,0.000145,0.003806
17.125662000034936,17.125662000034936,0.0,0.0,1.7604615601084657,0.0,0.0,-0.23007393,0.05478885,9.77003406,0.003124,-0.000648,0.003385
17.145644999982323,17.145644999982323,0.0,0.0,1.7605482800149987,0.0,0.0,-0.21255327,0.05194395,9.80057259,0.003352,-0.000497,0.004351
17.165628999995533,17.165628999995533,0.0,0.0,1.760631180311476,0.0,0.0,-0.22842585,0.05852646,9.76883724,0.001331,-0.000303,0.004147
17.18561200000113,17.18561200000113,0.0,0.0,1.760732758781188,0.0,0.0,-0.23665644,0.05463189,9.78605379,0.003143,-0.000542,0.005154
17.20559600001434,17.20559600001434,0.0,0.0,1.7608344068571835,0.0,0.0,-0.20537235,0.04759812,9.78634809,0.003143,-0.000542,0.005154
17.225579000019934,17.225579000019934,0.0,0.0,1.7609042187579353,0.0,0.0,-0.22768029,0.04790223,9.76613949,0.003465,0.000576,0.003407
17.245563000033144,17.245563000033144,0.0,0.0,1.7610036934896893,0.0,0.0,-0.24174783,0.05029587,9.77617512,0.004402,0.000863,0.005048
17.26554600003874,17.26554600003874,0.0,0.0,1.7611076168201558,0.0,0.0,-0.22153923,0.03802356,9.77871591,0.003567,0.000897,0.005288
17.285528999986127,17.285528999986127,0.0,0.0,1.7611978900735341,0.0,0.0,-0.2225889,0.04475322,9.77137803,0.004933,0.000166,0.004519
17.305512999999337,17.305512999999337,0.0,0.0,1.7612497907575708,0.0,0.0,-0.24234624,0.05673123,9.7866522,0.005271,0.000201,0.002373
17.325496000004932,17.325496000004932,0.0,0.0,1.7613275159306463,0.0,0.0,-0.20731473,0.04400766,9.780511140000002,0.003698,0.000294,0.003849
17.325496000004932,17.325496000004932,0.0,0.0,1.7613224105540946,0.0,0.0,-0.20731473,0.04400766,9.780511140000002,0.003698,0.000294,0.003849
17.365463000023738,17.365463000023738,0.0,0.0,1.761498887286547,0.0,0.0,-0.23576373,0.05747679,9.78320889,0.002757,0.00017,0.00477
17.385447000036947,17.385447000036947,0.0,0.0,1.7616074889460869,0.0,0.0,-0.2297698199999999,0.04281084,9.7841016,0.004369,-0.000421,0.005598
17.405429999984335,17.405429999984335,0.0,0.0,1.7616810670614163,0.0,0.0,-0.23096664,0.0407115,9.7692885,0.003009,-0.001556,0.003583
17.44539700000314,17.44539700000314,0.0,0.0,1.7618706345913235,0.0,0.0,-0.2128573799999999,0.0580752,9.79338186,0.003939,0.000331,0.00521
17.44539700000314,17.44539700000314,0.0,0.0,1.7618838742193779,0.0,0.0,-0.2128573799999999,0.0580752,9.79338186,0.003939,0.000331,0.00521
17.485364000021946,17.485364000021946,0.0,0.0,1.7620398036893103,0.0,0.0,-0.2282787,0.0520911,9.77826465,0.002561,-0.000376,0.003203
17.505348000035156,17.505348000035156,0.0,0.0,1.7621273602325616,0.0,0.0,-0.22677777,0.05104143,9.78784902,0.0024,-0.000867,0.004384
17.525330999982543,17.525330999982543,0.0,0.0,1.7622149133673064,0.0,0.0,-0.2282787,0.0663156,9.77617512,0.0024,-0.000867,0.004384
17.545314999995753,17.545314999995753,0.0,0.0,1.7623012561497777,0.0,0.0,-0.2311236,0.05897772,9.76314744,0.003672,-0.000844,0.004318
17.56529800000135,17.56529800000135,0.0,0.0,1.762398353909023,0.0,0.0,-0.23127075,0.0435564,9.78350319,0.004223,-0.000349,0.004906
17.58528200001456,17.58528200001456,0.0,0.0,1.7624821785872609,0.0,0.0,-0.24414147,0.04955031,9.77617512,0.003773,-0.001062,0.004172
17.605265000020154,17.605265000020154,0.0,0.0,1.7625441928913705,0.0,0.0,-0.22438413,0.03322647,9.77960862,0.001931,-0.0001,0.002968
17.605265000020154,17.605265000020154,0.0,0.0,1.762524572450416,0.0,0.0,-0.22438413,0.03322647,9.77960862,0.001931,-0.0001,0.002968
17.605265000020154,17.605265000020154,0.0,0.0,1.7625090988556824,0.0,0.0,-0.22438413,0.03322647,9.77960862,0.001931,-0.0001,0.002968
17.605265000020154,17.605265000020154,0.0,0.0,1.7624965830843067,0.0,0.0,-0.22438413,0.03322647,9.77960862,0.001931,-0.0001,0.002968
17.64523200003896,17.64523200003896,0.0,0.0,1.762630167865348,0.0,0.0,-0.23605803,0.06496182,9.79697232,0.002618,-0.000525,0.002479
17.705182000005152,17.705182000005152,0.0,0.0,1.7628738392154935,0.0,0.0,-0.23605803,0.05823216,9.78261048,0.000912,-0.000488,0.004917
17.725166000018362,17.725166000018362,0.0,0.0,1.7629653793945632,0.0,0.0,-0.22199049,0.05972328,9.7983261,0.001784,-0.000668,0.004641
17.745149000023957,17.745149000023957,0.0,0.0,1.7630528601174147,0.0,0.0,-0.22213764,0.05044302,9.78515127,0.003602,-0.000869,0.004414
17.765133000037167,17.765133000037167,0.0,0.0,1.7631217605706588,0.0,0.0,-0.22768029,0.05104143,9.7841016,0.003467,-0.00067,0.003389
17.785115999984555,17.785115999984555,0.0,0.0,1.7631974057644815,0.0,0.0,-0.21659499,0.0489519,9.78290478,0.004668,0.001524,0.003768
17.805099999997765,17.805099999997765,0.0,0.0,1.7633077594002131,0.0,0.0,-0.22393287,0.03891627,9.78424875,0.00341,0.000325,0.005697
17.82508300000336,17.82508300000336,0.0,0.0,1.7633769930214465,0.0,0.0,-0.237402,0.04505733,9.76898439,0.001852,0.000926,0.003384
17.84506700001657,17.84506700001657,0.0,0.0,1.76345177555197,0.0,0.0,-0.23276187,0.05403348,9.78844743,0.003219,-0.000539,0.003704
17.865050000022165,17.865050000022165,0.0,0.0,1.763537345898781,0.0,0.0,-0.21840003,0.05763375,9.76464837,0.002956,-0.000934,0.004315
17.885034000035375,17.885034000035375,0.0,0.0,1.7636253891210085,0.0,0.0,-0.23127075,0.05134554,9.77302611,0.00298,-0.000722,0.00445
17.905016999982763,17.905016999982763,0.0,0.0,1.7637010016093608,0.0,0.0,-0.22872015,0.0467054099999999,9.78874173,0.003249,-0.000593,0.003742
17.925000999995973,17.925000999995973,0.0,0.0,1.7637878531712623,0.0,0.0,-0.22378572,0.06960195,9.77632227,0.002956,-1.1e-05,0.004384
17.94498400000157,17.94498400000157,0.0,0.0,1.7638804621647406,0.0,0.0,-0.22752333,0.04955031,9.77032836,0.00395,6.1e-05,0.004706
17.984951000020374,17.984951000020374,0.0,0.0,1.7640612198266545,0.0,0.0,-0.22408002,0.04984461,9.7954812,0.002777,-0.001921,0.004879
18.004935000033583,18.004935000033583,0.0,0.0,1.7641456952799555,0.0,0.0,-0.24160068,0.04475322,9.78290478,0.003308,-7.9e-05,0.004225
18.02491799998097,18.02491799998097,0.0,0.0,1.7642214627401698,0.0,0.0,-0.23067234,0.05852646,9.78589683,0.002853,0.000253,0.003767
18.04490199999418,18.04490199999418,0.0,0.0,1.764325241675932,0.0,0.0,-0.20941407,0.06571719,9.78829047,0.003214,-0.000742,0.005255
18.064884999999776,18.064884999999776,0.0,0.0,1.7644014221391764,0.0,0.0,-0.23096664,0.06196977,9.75731049,0.002319,-0.00081,0.003773
18.084869000012986,18.084869000012986,0.0,0.0,1.764469918617988,0.0,0.0,-0.22048956,0.04340925,9.77437008,0.001255,-0.000688,0.003358
18.084869000012986,18.084869000012986,0.0,0.0,1.7644570826242756,0.0,0.0,-0.22048956,0.04340925,9.77437008,0.001255,-0.000688,0.003358
18.12483600003179,18.12483600003179,0.0,0.0,1.7645852305785894,0.0,0.0,-0.22438413,0.05627997,9.78529842,0.002904,0.000111,0.002187
18.144819000037387,18.144819000037387,0.0,0.0,1.764670073717081,0.0,0.0,-0.22498254,0.06392196,9.78709365,0.004957,-0.000204,0.004294
18.16480299999239,18.16480299999239,0.0,0.0,1.7647560933094164,0.0,0.0,-0.22199049,0.04685256,9.77541975,0.002481,6.4e-05,0.004354
18.184785999997985,18.184785999997985,0.0,0.0,1.7648231097565032,0.0,0.0,-0.23201631,0.05359203,9.77437008,0.002462,-0.001493,0.003286
18.204770000011194,18.204770000011194,0.0,0.0,1.764889985478991,0.0,0.0,-0.22962267,0.0606258,9.79069392,0.002462,-0.001493,0.003286
18.22475300001679,18.22475300001679,0.0,0.0,1.7649578432543915,0.0,0.0,-0.21615354,0.04984461,9.77871591,0.003517,-0.000918,0.003349
18.22475300001679,18.22475300001679,0.0,0.0,1.7649521267269268,0.0,0.0,-0.21615354,0.04984461,9.77871591,0.003517,-0.000918,0.003349
18.264720000035595,18.264720000035595,0.0,0.0,1.76512596198548,0.0,0.0,-0.22273605,0.05089428,9.7781175,0.002734,0.000492,0.005212
18.284703999990597,18.284703999990597,0.0,0.0,1.7651875604003724,0.0,0.0,-0.23036823,0.05972328,9.78156081,0.003589,-0.000651,0.002973
18.304686999996193,18.304686999996193,0.0,0.0,1.7652657983816145,0.0,0.0,-0.22842585,0.05343507,9.780511140000002,0.002678,0.000975,0.003937
18.324671000009403,18.324671000009403,0.0,0.0,1.7653345758752517,0.0,0.0,-0.21869433,0.03427614,9.77931432,0.004089,-0.000315,0.003394
18.344654000014998,18.344654000014998,0.0,0.0,1.7654020034252742,0.0,0.0,-0.22483539,0.0538863299999999,9.78993855,0.002853,0.000485,0.003324
18.38462199998321,18.38462199998321,0.0,0.0,1.7655492983882493,0.0,0.0,-0.21211182,0.0489519,9.78455286,0.002561,-7.7e-05,0.003695
18.40460599999642,18.40460599999642,0.0,0.0,1.7656181934294874,0.0,0.0,-0.23201631,0.05703534,9.7724277,0.00356,-0.000593,0.003438
18.424589000002015,18.424589000002015,0.0,0.0,1.7657159856158122,0.0,0.0,-0.23201631,0.05598567,9.7812567,0.002259,0.000423,0.004961
18.444573000015225,18.444573000015225,0.0,0.0,1.765800290050878,0.0,0.0,-0.21450546,0.04415481,9.78739776,0.001835,0.000299,0.004244
18.46455600002082,18.46455600002082,0.0,0.0,1.7658720544044026,0.0,0.0,-0.22752333,0.06032169,9.78754491,0.004503,-0.000469,0.003569
18.48454000003403,18.48454000003403,0.0,0.0,1.765959061719201,0.0,0.0,-0.23636214,0.04505733,9.77737194,0.002674,0.00043,0.004397
18.50452299998142,18.50452299998142,0.0,0.0,1.7660509818874797,0.0,0.0,-0.21720321,0.05194395,9.79009551,0.004565,0.000751,0.004663
18.524506999994628,18.524506999994628,0.0,0.0,1.7661429987219215,0.0,0.0,-0.24040386,0.04999176,9.77108373,0.004565,0.000751,0.004663
18.524506999994628,18.524506999994628,0.0,0.0,1.7661519467740527,0.0,0.0,-0.24040386,0.04999176,9.77108373,0.004565,0.000751,0.004663
