timestamp,x,y,theta,vx,vy,bias_accel_x,bias_accel_y,bias_angular_velocity,accel_x,accel_y,accel_z,gyro_x,gyro_y,gyro_z,cov_trace
1758011621.8660753,0.0,0.0,0.0,0.0,0.0,-0.09005599541832669,-0.1525817500996016,0.004255824701195219,-0.09430353000000001,-0.15507648,-9.820025820000001,0.004262,-0.000195,0.003714,3.13
1758011621.8869574,-3.878612295699576e-06,-6.275551281708843e-06,-2.2627529006058467e-06,1.0377996792322944e-05,1.6791482650596948e-05,-0.09005576295221202,-0.15258137397203,0.0002237561494359032,-0.09370512,-0.15373251000000002,-9.819731520000001,0.002858,-0.000397,0.004278,0.7971003683571463
1758011621.9075644,-1.1794748814442825e-05,-2.351751220577748e-05,-1.7964166443285023e-06,0.0005938417931472795,0.0012353936678983354,-0.09003237417362366,-0.1525327170480327,0.0002733330307807692,-0.07574301000000001,-0.14070483,-9.81119682,0.003483,0.000203,0.004581,0.5261875718872147
1758011621.9277196,-1.9636029724726864e-05,-3.341795412746351e-05,-6.548751284807253e-06,0.0012284731257891422,0.002138612464127043,-0.08996264203352397,-0.15241132135801688,-0.00017439278434499232,-0.09295956000000001,-0.15074046,-9.82152675,0.003193,-0.000323,0.003173,0.4110421789260264
1758011621.9486961,-2.0967984501535177e-05,-4.0014509299229174e-05,-5.7607938321879715e-06,0.0014480872940677756,0.002760735797363317,-0.08986335835542471,-0.15222203847755558,-9.886367248482579e-05,-0.07663572,-0.14789556,-9.81509139,0.001774,0.00017,0.004383,0.34732158495879145
1758011621.9687858,-2.870318348707996e-05,-4.883154709484972e-05,-8.429654136943299e-06,0.0018767326594314987,0.0032947525428135846,-0.0897080047874498,-0.15194929696866533,-0.00020923149097191074,-0.09190989000000001,-0.15777423000000002,-9.816582510000002,0.003157,0.000357,0.003614,0.30704630440357517
1758011621.989402,-3.138173095523755e-05,-5.2288841518299446e-05,-1.0005784918387661e-05,0.0018323236028786342,0.003135428073285943,-0.0895694003518825,-0.15171212654606522,-4.10261155202269e-05,-0.09176274,-0.14579622,-9.823174830000001,0.003592,-0.00079,0.005029,0.2787112798647545
1758011622.0096815,-3.322098431643048e-05,-5.610699642738885e-05,-9.480898563563045e-06,0.0018812937662882195,0.0032443113922333033,-0.08942007621088016,-0.15145462059497516,6.490687269581936e-05,-0.08801532000000001,-0.14699304000000002,-9.81763218,0.003686,0.000621,0.004926,0.2582385767968087
1758011622.0304763,-3.7294393969062715e-05,-6.330040549595357e-05,-9.616956099911533e-06,0.0019785021428487776,0.003413370366302451,-0.08925585902730931,-0.15117130156201775,5.751366407825326e-05,-0.08861373,-0.15552774,-9.82257642,0.001466,-0.001409,0.004265,0.2426223269699631
1758011622.0505664,-4.3364155528331716e-05,-7.096673245081332e-05,-9.787035308850278e-06,0.002076084424314885,0.003448155510831379,-0.08908098086531673,-0.1508808412722166,5.4467639105467955e-05,-0.09490194,-0.15507648,-9.81494424,0.002524,0.000441,0.004288,0.230254111637905
1758011622.0713303,-4.441390695904025e-05,-7.970265492021978e-05,-8.473364205396905e-06,0.0019029203858987732,0.0034584262616552965,-0.08891709069768304,-0.15058299341972176,0.00012002215484949972,-0.07739109000000001,-0.1414602,-9.807007950000001,0.004002,-7.3e-05,0.004903,0.22027994835996173
1758011622.091785,-5.196356534150102e-05,-9.258487298514731e-05,-7.446166165436807e-06,0.0019720312715237986,0.003544881339394885,-0.08874767354778941,-0.15027846762774924,0.00018165588120191203,-0.08636724,-0.15822549000000002,-9.81404172,0.001364,-0.001642,0.004975,0.21199018446626006
1758011622.113577,-5.972020998462842e-05,-0.00010441824518352705,-8.401178017702904e-06,0.002022850386635085,0.0035466965012830726,-0.08857326883668931,-0.14997265239967872,0.0001283626363154864,-0.08951625,-0.15447807000000002,-9.823174830000001,0.004628,-6.8e-05,0.003886,0.20504493740351648
1758011622.1342235,-6.596416227802142e-05,-0.0001161804319842613,-7.953714880493123e-06,0.001978888106225007,0.0035021307479645336,-0.08840437827299862,-0.14967376910643534,0.00015962107272184367,-0.08592579,-0.15014205,-9.81509139,0.004143,0.000261,0.004726,0.19909817878515929
1758011622.1554189,-7.463921015104106e-05,-0.0001320655144321674,-8.190304917832236e-06,0.002038695078240015,0.0036283572536258235,-0.08823304181605252,-0.14936880773396938,0.00012675821150423864,-0.09116433,-0.15806852999999998,-9.83679111,0.002649,-0.001474,0.003973,0.19395226002909535
1758011622.182958,-8.979661833678284e-05,-0.0001530057850838295,-9.074756581295418e-06,0.0020637338111345704,0.003441017451893215,-0.08788736196706902,-0.1487818205404129,8.195495401712533e-05,-0.09445068,-0.14849397,-9.807155100000001,0.005579,-0.000829,0.004216,0.1855834935162867
1758011622.2039742,-9.857654639117128e-05,-0.00016280226119621524,-1.0260667059558415e-05,0.0021231256679613937,0.003349927926962526,-0.0877109444502349,-0.14850342121121166,2.9373568161028666e-05,-0.10044459,-0.15043635,-9.825715620000002,0.003668,-0.000719,0.003661,0.18212157717655275
1758011622.2248373,-4.0804278188842165e-05,-7.164753701977022e-05,1.544828639721274e-05,0.00472005997766076,0.007385454950088912,-0.0877109444502349,-0.14850342121121166,2.9373568161028666e-05,-0.09684432000000001,-0.1562733,-9.8159841,0.004247,-0.001638,0.00523,0.18776020870701818
1758011622.2451198,-0.00012247325041862998,-0.00019861179817024546,-1.312933610853051e-05,0.0020340339174188676,0.0031821151610995054,-0.08732578753409283,-0.14790102429090085,0.00024223285177518272,-0.09595161,-0.14833701000000002,-9.79727643,0.003186,-0.001324,0.006261,0.17606861048066963
1758011622.2655263,-0.0001309346750074348,-0.00020922253839652228,-1.5723770478537347e-05,0.002165644167351538,0.00329952860674613,-0.08714323810011278,-0.14762284955598076,0.00019424074288790802,-0.10014048,-0.14893542,-9.83185668,0.003204,-0.000172,0.003835,0.17383275595530787
1758011622.285561,-0.00013687830195754526,-0.0002217939618526732,-1.3885528195256569e-05,0.00200829979268162,0.003229913391925272,-0.0869874243691039,-0.14737215894493802,0.00011058420873148567,-0.08831943,-0.15462522000000004,-9.80041563,0.005832,-0.000922,0.003262,0.171363621652533
1758011622.3056228,-0.00014114939835150226,-0.00023225959612053237,-1.5716760074724334e-05,0.0019787827296428384,0.0033308088931249947,-0.08682562296976083,-0.1470996839560346,1.8768832124646377e-05,-0.08667135000000001,-0.14909238,-9.840234420000002,0.005102,0.000484,0.003041,0.1694445142421271
1758011622.3266256,-0.00014838316706527593,-0.0002448233384909521,-1.412220337559944e-05,0.002014332653339295,0.0033972169704450353,-0.08665922455432463,-0.1468191724495528,0.00011892144236046515,-0.09026181000000001,-0.1562733,-9.82542132,0.003847,0.000206,0.005742,0.1675912259321
1758011622.3466773,-0.0001517151075623564,-0.0002572691041633247,-1.276095190316795e-05,0.0018697877890477628,0.0034101681189183664,-0.08650402817651531,-0.14653615639158812,0.00015526179672330182,-0.07813665,-0.14699304000000002,-9.803564640000001,0.003466,-0.0003,0.004914,0.16588334725678994
1758011622.3666813,-0.00016009385052447953,-0.0002718893521449931,-1.2673890014358591e-05,0.0019363186429953577,0.0034766871785767476,-0.08634329879975788,-0.1462475126220029,0.00013166450613205294,-0.08696565,-0.1591182,-9.83200383,0.003715,0.000951,0.004057,0.16429776440682026
1758011622.3874822,-0.00016873078645127416,-0.0002863683553575777,-2.0749866516123205e-05,0.0020062747085743487,0.003547750000812519,-0.08616118154458983,-0.14592528500767138,2.1829692513429045e-05,-0.08801532000000001,-0.14714019,-9.7897914,0.004437,-0.001213,0.002741,0.16306919110774473
1758011622.409392,-0.00011364593913467001,-0.00018896032530215734,-2.0658008601071032e-05,0.0043483180268801234,0.007452350185107031,-0.08616118154458983,-0.14592528500767138,2.1829692513429045e-05,-0.09116433,-0.14893542,-9.82078119,0.000635,0.000508,0.004281,0.16876033003419916
1758011622.4294045,-0.00019609498104934705,-0.0003314644324248652,-2.3023122070142676e-05,0.0018424443880128976,0.0031909594810530947,-0.08581778281423444,-0.14533437715466718,4.593318430188203e-05,-0.0868185,-0.16750575,-9.81554265,0.003226,-0.00153,0.004644,0.1598584607898696
1758011622.4498456,-0.00020038395002687718,-0.00034164333090984215,-2.2436678524861975e-05,0.0018237115309260137,0.0032615226190412733,-0.08567910938038927,-0.14508631814977405,2.5255570243851303e-05,-0.08337519,-0.14893542,-9.80940159,0.002868,-0.001027,0.003981,0.1588303195828772
1758011622.4707546,-0.00020737496659692045,-0.0003507802683045892,-2.115812480774082e-05,0.0019064989529757707,0.0032414197563630114,-0.08553510275792729,-0.14484133661133483,-4.984765256031294e-05,-0.09445068,-0.15657741,-9.826912440000001,0.003139,-0.002126,0.003101,0.15771674725685103
1758011622.4910028,-0.00021473815857637755,-0.00036276840999011295,-2.2918524776205373e-05,0.0020455538319622928,0.003454955542000146,-0.08536715035241903,-0.14455757813400413,-9.2296652465872e-05,-0.09086022,-0.16165899,-9.80385894,0.002743,-0.002338,0.003538,0.15690333645728724
1758011622.5113735,-0.00021987604278546805,-0.0003722739319202954,-2.233517983007971e-05,0.0019547470307081554,0.0033337905640392473,-0.08520849962434796,-0.1442870689112725,-4.852852817596959e-05,-0.08861373,-0.14639463000000003,-9.8361927,0.003216,-0.001204,0.004856,0.1559146487695238
1758011622.531851,-0.0002286192578538797,-0.0003846830474799267,-2.0437622528124422e-05,0.0020325498680393997,0.0033714315784196445,-0.08503900537617518,-0.1440060383654675,1.7314317174442598e-05,-0.09385227000000002,-0.15433092,-9.800121330000001,0.003925,0.000633,0.00525,0.15508524520643735
1758011622.5523942,-0.00023513114963002608,-0.0003972131676917288,-2.0361791843281907e-05,0.001942389003576554,0.003294719130022552,-0.08488365004098468,-0.14374260250524903,6.579565220199054e-05,-0.08786817,-0.15133887000000001,-9.819427410000001,0.002978,-0.000143,0.005046,0.15413285702357704
1758011622.5740387,-0.0002445823011310486,-0.0004099372491072526,-2.105899676507761e-05,0.0020390806457104265,0.00333069834862577,-0.0847194981714814,-0.1434744646021856,6.256870282748122e-05,-0.09609875999999999,-0.15897105,-9.82676529,0.003869,0.000157,0.00427,0.15335202750826324
1758011622.5950022,-0.0002479399318949148,-0.000424199022246093,-1.987165834504978e-05,0.0018766061779110995,0.0034078072358098357,-0.08456762251748855,-0.1431986645109958,7.632560937651413e-05,-0.07603731000000001,-0.15342840000000002,-9.799974180000001,0.003893,-0.000106,0.004539,0.15261358638855682
1758011622.617118,-0.00022403139816964756,-0.00037783086626783536,-1.3258740915844669e-05,0.003352775905497813,0.005701251970279755,-0.08439570680312386,-0.14291249810563442,8.120666009459824e-05,-0.08756406,-0.14849397,-9.79353882,0.003368,0.000441,0.004736,0.15555848792767807
1758011622.6393075,-0.00022373675318209104,-0.0003774080584930631,-4.2218081091061066e-05,0.0035534611795456574,0.006334184999397099,-0.0842547194970595,-0.14267279922389597,0.00010593416389101398,-0.08308089000000002,-0.14983794,-9.80550702,0.003282,0.000365,0.003397,0.1556992936653902
1758011622.6619883,-0.00027807843296716415,-0.0004728569699873375,-2.34727940844337e-05,0.0018268462423960859,0.003159511855977307,-0.08395666666859576,-0.14214886568076585,6.260351472882117e-05,-0.09131148000000001,-0.14759145,-9.81628821,0.002625,-0.001181,0.004573,0.1498926897859422
1758011622.6819983,-0.00028508268387826313,-0.00048663449246263204,-2.299660192894848e-05,0.0018761040072912043,0.0033005856314508655,-0.08380757026088444,-0.14188654181917415,6.337939282089806e-05,-0.08592579,-0.15762708,-9.79727643,0.00402,2e-05,0.004331,0.14938801124334294
1758011622.7021763,-0.0002947850942819465,-0.0004942817826803443,-2.4978405444020524e-05,0.0019940179016074595,0.003143237576099527,-0.08364718399130983,-0.1416336883070616,3.955032339171812e-05,-0.10403505,-0.14369688,-9.82631403,0.003257,-0.001451,0.003933,0.14887830679780847
1758011622.7232177,-0.0002431483377704742,-0.0004128850242841837,1.227598806297081e-05,0.004359237124452501,0.006640939590925835,-0.08364718399130983,-0.1416336883070616,3.955032339171812e-05,-0.09999333,-0.15074046,-9.77991273,0.003055,-0.001869,0.005734,0.15424134014912716
1758011622.7443,-0.00031707400901507285,-0.0005281596935541985,-1.0895946235933707e-05,0.0019052730565864077,0.00308309970480263,-0.08330622341994011,-0.14110090049005922,3.433179477195183e-06,-0.08622009,-0.155979,-9.838890450000001,0.002504,-0.000105,0.002337,0.14765914592152557
1758011622.7649431,-0.000266403051708187,-0.0004461643003086627,3.0213244210486323e-05,0.004327072466792288,0.006751945598249393,-0.08330622341994011,-0.14110090049005922,3.433179477195183e-06,-0.09834525,-0.15373251000000002,-9.804015900000001,0.003608,-0.0001,0.005805,0.1531661096674511
1758011622.7854145,-0.00033863348665280293,-0.0005599536671551598,2.1147435109725166e-06,0.0017914776561853887,0.0028986887879880923,-0.08298592775307852,-0.14059420060223055,6.117297609290838e-05,-0.08772102000000001,-0.14160735,-9.826912440000001,0.004515,-0.000733,0.003715,0.1465563921355988
1758011622.8064353,-0.0003462144738659011,-0.0005656969401350186,1.3478389084831122e-06,0.0019743144784110643,0.0029458055477181873,-0.08283567405741488,-0.14037019077568103,0.00012793480621909069,-0.10508471999999999,-0.14295132,-9.824371650000002,0.002605,-0.001332,0.005407,0.14639279148517842
1758011622.8267171,-0.0003488702046360955,-0.0005781779456438312,1.3805246843467955e-06,0.0018589769022207873,0.0031355822126354262,-0.08268896951561705,-0.14012274868992605,0.00013095300659856146,-0.08067744,-0.14969079000000002,-9.815238540000001,0.002978,-0.000743,0.004433,0.14608188800769453
1758011622.8472447,-0.00035487934645768774,-0.0005922575726686345,-2.8578828055181305e-06,0.0018655745775538652,0.0032795964927748293,-0.08253626535412972,-0.13985403927269102,2.040962847684793e-05,-0.08442486000000002,-0.15297714,-9.80954874,0.003606,0.000338,0.002591,0.14579115102653678
1758011622.867408,-0.0003608055870005688,-0.0006048759354071079,-2.2735167344301033e-06,0.0017769560477234113,0.0031846200284400355,-0.08240013985093476,-0.13961020835541801,9.034951217959226e-05,-0.08442486000000002,-0.15133887000000001,-9.807459210000001,0.003392,0.000457,0.005419,0.14524542287870973
1758011622.8875473,-0.0003655115909751462,-0.0006164609548471285,-8.890384655124706e-07,0.0017508847867950662,0.0032258605490640153,-0.08226332808531414,-0.1393580736554655,7.94455140555655e-05,-0.08217837000000001,-0.14938668000000002,-9.817033770000002,0.002932,-0.00033,0.004168,0.14494175358921815
1758011622.9083335,-0.00037520954883001116,-0.0006287970790525764,-6.868147961469617e-07,0.0019008387143053336,0.0032554137147437112,-0.08211386309894715,-0.13910209017878356,7.912299947671619e-05,-0.09504909,-0.15866694,-9.81254079,0.004414,-0.001013,0.00433,0.14461470048459518
1758011622.9311273,-0.0003881873383143862,-0.0006571299651254781,1.4043607411196035e-05,0.0020970886992733016,0.0037582064989725504,-0.08191520910017921,-0.13874622259811573,0.00016416196968354943,-0.08337519,-0.16555356,-9.822870720000001,0.003499,0.000852,0.00569,0.1447706489759747
1758011622.953407,-0.0004010380203842037,-0.0006760384461443729,1.3462276631681647e-05,0.0020130467819803734,0.003461578607889963,-0.08173884803654144,-0.13844291627919947,0.00014770766709041797,-0.09236115,-0.14909238,-9.82107549,0.003826,-0.001176,0.004159,0.14426180775867056
1758011622.9737737,-0.0004085737810166978,-0.0006926198125063466,2.185094704687529e-05,0.0016276478913887288,0.002941421595228562,-0.08163106842609857,-0.13824795875769996,8.066882216691209e-05,-0.07858791000000001,-0.14385384,-9.82406754,0.005565,7.9e-05,0.003312,0.1432403992363037
1758011622.9942815,-0.00041199519351474754,-0.000701033426513982,2.3546033362187302e-05,0.0016331283760874947,0.003012804425487829,-0.08151880089366419,-0.13804078937333908,7.090474404803693e-05,-0.09700128,-0.15582204,-9.81014715,0.003053,0.001569,0.004711,0.1430382293132848
1758011623.0169196,-0.0003828235457317292,-0.0006466520594129307,3.320586666344383e-05,0.0034353467761395057,0.005942250854329746,-0.08137877444920541,-0.1378047232378393,9.429995414067627e-05,-0.0865242,-0.15612615,-9.82272357,0.003339,0.001521,0.004824,0.1470512437082096
1758011623.0379887,-0.0003850628097322522,-0.0006507878393451874,4.295192506109657e-06,0.003752224391321433,0.005990125223411996,-0.08123654202191528,-0.1375587689903425,0.00012314364658233602,-0.10044459,-0.15178032,-9.807302250000001,0.00301,-1.5e-05,0.003408,0.1471276509110614
1758011623.061708,-0.00044219068079064946,-0.0007381732657378268,1.9031591204754505e-05,0.002012714756105335,0.0031142802296013922,-0.08092470706072596,-0.13706865239016122,0.00014243502499810835,-0.09954207,-0.15717582000000002,-9.82032993,0.00356,0.000112,0.00561,0.1422469141602249
1758011623.082703,-0.0004460012510361212,-0.000751264649663394,1.857453305076362e-05,0.0018868747026457777,0.003220492399939855,-0.08077905643913277,-0.13682001468284194,0.00011863954808756924,-0.08143281,-0.15567489,-9.82631403,0.003013,-0.000529,0.004008,0.14204023206765082
1758011623.1032963,-0.0004460012510361212,-0.000751264649663394,1.857453305076362e-05,0.0018868747026457777,0.003220492399939855,-0.08077905643913277,-0.13682001468284194,0.00011863954808756924,-0.08143281,-0.15567489,-9.82631403,0.003013,-0.000529,0.004008,0.14204023206765082
1758011623.1276808,-0.00047718613774987964,-0.0008081668709955563,5.200434202956572e-05,0.001768152797258203,0.003025458911156612,-0.08043764302413255,-0.13622567100093802,0.00020543383983957916,-0.09370512,-0.15672456,-9.80760636,0.002711,-0.000498,0.003967,0.14131073911692688
1758011623.148121,-0.0004825376493165547,-0.0008178537062006044,6.353453623342276e-05,0.0016611439844591664,0.002859009234498944,-0.08033193218064054,-0.13604339732611873,5.528437853189483e-05,-0.08831943,-0.15014205,-9.8014653,0.00309,-0.000406,0.001986,0.14089613839288606
1758011623.1687052,-0.00048600487003232955,-0.0008248091504026208,6.208297864107593e-05,0.001767541297986067,0.0030731381071376768,-0.08020117015670461,-0.13581593141037016,-1.0026835676333053e-06,-0.08756406,-0.14909238,-9.81718092,0.004031,0.000637,0.003386,0.1410692904095513
1758011623.1894586,-0.000490543152542989,-0.0008320847888412203,5.982607015608821e-05,0.0017765254598203725,0.0030526031486631656,-0.08006690268485302,-0.13558497192292351,-0.00012257405356944225,-0.08996751000000001,-0.14639463000000003,-9.80610543,0.002613,-0.000111,0.002257,0.14093004043833401
1758011623.2095842,-0.0004957202052789683,-0.0008419685421165977,6.234830380913436e-05,0.0017799612747064488,0.003090116465129637,-0.07993095548967899,-0.1353491709624384,-3.4605112534706825e-05,-0.08756406,-0.15088761,-9.82542132,0.004503,2e-05,0.005578,0.1407656551034845
1758011623.230557,-0.0005021744108013957,-0.0008524446159807902,6.32607123169926e-05,0.0018091969369385538,0.0031035345754641453,-0.07979330958296137,-0.13511315511329863,1.3030817939979367e-06,-0.09011466,-0.15328125,-9.820025820000001,0.002438,7.5e-05,0.004811,0.14057499605766027
1758011623.2507775,-0.0005060961308483142,-0.0008614901445904873,6.231035452808342e-05,0.001740833883046751,0.0030657401743912852,-0.0796589588895208,-0.13487642854234064,-5.6421286569222054e-05,-0.08547453,-0.14295132,-9.78829047,0.003961,-0.001372,0.003311,0.14044170964732638
1758011623.2726214,-0.0005151466122558532,-0.0008742014813214625,6.198630228837487e-05,0.001858799487665464,0.0031475113765244444,-0.07951016933450153,-0.13462451690160818,-5.9576493325030064e-05,-0.0928026,-0.15313410000000002,-9.84936753,0.003548,4e-05,0.004148,0.1403699286462411
1758011623.2927992,-0.0005198750626375084,-0.0008875493963827883,6.274995886146328e-05,0.0017008342356120074,0.003083588954376231,-0.07938462462476086,-0.13439708009100065,2.6501160162042126e-05,-0.07948062,-0.15268284000000001,-9.81793629,0.00317,0.00074,0.005607,0.1399968669839275
1758011623.3145008,-0.000528328436240156,-0.0008967588327785681,5.41942207332724e-05,0.0018400116542413676,0.0031123314689798834,-0.07923132540677691,-0.1341376304289301,-6.41707718201364e-05,-0.09430353000000001,-0.14041053,-9.81269775,0.003243,-4.5e-05,0.002816,0.14016382181881631
1758011623.3422022,-0.0005037443739803059,-0.0008551424974838119,6.547270181478382e-05,0.003395693507066224,0.005480680491571058,-0.07910250701249709,-0.13391965570773728,-0.00011062128975268312,-0.09714843000000001,-0.15043635,-9.802966230000001,0.004064,-0.000839,0.004663,0.1435585629412645
1758011623.3575723,-0.0005071169110812106,-0.0008600086664464665,1.2991334767509244e-05,0.003615384261995522,0.005813370587088706,-0.07896727330456753,-0.13370153364122764,-7.904091276509338e-05,-0.09415638000000001,-0.16016787000000002,-9.84622833,0.001915,-0.000339,0.002146,0.14374071673505168
1758011623.3821318,-0.0005571538923838232,-0.0009392017623205005,4.777680304135501e-05,0.0018323703329127803,0.0029425403596357517,-0.07868433662983608,-0.13324681221209334,-0.00018083628753343071,-0.09340101,-0.13995927,-9.808499070000002,0.00243,0.000632,0.004418,0.13928946134887177
1758011623.402773,-0.0005643232557025695,-0.0009473054865906431,4.357852881753388e-05,0.0018746877376886514,0.0029044468059263168,-0.07854418106480285,-0.13302962351575442,-0.00026103484957366266,-0.09879651,-0.14699304000000002,-9.823174830000001,0.002095,-0.000103,0.00276,0.13917356663330588
1758011623.422834,-0.0005748487408900292,-0.0009586556441723855,3.621557642219386e-05,0.002029996690099876,0.0030014208238995544,-0.07838757396769679,-0.1327980976946195,-0.0003371790573831155,-0.10343664,-0.15747012000000002,-9.828109260000002,0.002577,-0.000519,0.002751,0.1391285484154245
1758011623.443622,-0.0005801601107260921,-0.0009675064465115749,3.344013869766016e-05,0.0018878857483526166,0.0028806773068573398,-0.07824815179244693,-0.1325855449715705,-0.0003044465672234116,-0.09400923,-0.14385384,-9.799071660000001,0.004052,0.000585,0.004455,0.13889393512666148
1758011623.463633,-0.000587195304627694,-0.0009806908513695517,3.376733166549073e-05,0.0019083704145620736,0.0030408156715141885,-0.07810509657672406,-0.13235785567386776,-0.00022018587753163153,-0.09116433,-0.16016787000000002,-9.843677730000001,0.002945,-0.000606,0.005331,0.13881305390306128
1758011623.4846835,-0.0005931156473716665,-0.0009913222831834487,3.447247336119119e-05,0.0018665187276284178,0.0030393473583948376,-0.07796542993783413,-0.13213066219463074,-0.0001365441148180349,-0.09100737,-0.15253569,-9.787544910000001,0.003727,0.001789,0.005405,0.13869446685478012
1758011623.5056443,-0.000597281686468557,-0.0010036304415900251,3.5728592640449364e-05,0.0017715275878849273,0.003099046053278146,-0.07783298598193335,-0.1318989732711417,-0.0001258081837732621,-0.08232552,-0.15402681000000001,-9.83738952,0.003239,0.000339,0.004295,0.13858397949057893
1758011623.5260398,-0.0006058113699537226,-0.0010142377919938191,3.736156347233788e-05,0.0018607671365226518,0.0030804755314488273,-0.07769318394596389,-0.13166775377496423,-3.9887056459273935e-05,-0.09595161,-0.15582204,-9.80790066,0.002627,0.002214,0.005535,0.13848840937020387
1758011623.5461278,-0.0006118175879250392,-0.0010253521230918518,3.75734092230573e-05,0.0018265790698860195,0.003071419433581173,-0.07755617693576287,-0.1314374312242555,-2.53798432337735e-05,-0.08935929000000001,-0.15282999000000003,-9.81045126,0.002255,0.000254,0.004453,0.1383833674098836
1758011623.5664701,-0.0006181109471708961,-0.0010382420509544785,3.877935523100007e-05,0.0018332203119895037,0.003156725548907171,-0.07740811636335423,-0.131182490102406,-1.792559529477997e-05,-0.08741691000000001,-0.14878827,-9.82466595,0.002363,0.00079,0.004351,0.13848261620191826
1758011623.5869327,-0.0006246257475922838,-0.001053480585028815,3.9325683056201655e-05,0.0016727104045100622,0.0030253720002481658,-0.07729209790261905,-0.13097266431159274,1.4328766395136609e-05,-0.08083440000000001,-0.16181595000000001,-9.796373910000002,0.003414,-0.000952,0.004766,0.1379917921207641
1758011623.6078901,-0.0006316378005625723,-0.0010643890957687623,4.1180228283810294e-05,0.0017819707978136577,0.0031231580664904707,-0.07716234021942839,-0.13074528987425033,4.6704346584915625e-05,-0.09011466,-0.16002072,-9.84202965,0.004225,-0.000265,0.0048,0.13802022164122824
1758011623.6286912,-0.0006359612212837949,-0.0010721384311597366,3.9809663778811455e-05,0.001731570225243895,0.003022201624800549,-0.07703554150814813,-0.1305237121743569,-7.212976007472347e-05,-0.08846658,-0.14610033,-9.813590460000002,0.002928,-0.000307,0.002357,0.1379485564470932
1758011623.648977,-0.000642032725600061,-0.0010825611113970278,3.955242454978247e-05,0.001764992120717834,0.003058997411608817,-0.07690135142180204,-0.13029108281509233,-9.517388570152837e-05,-0.08906499000000001,-0.15074046,-9.81239364,0.003725,0.000822,0.003808,0.13796086831777177
1758011623.6690192,-0.0006472703493300829,-0.0010930064067876488,4.094475984395274e-05,0.001691990861271042,0.0029711471935443892,-0.07677846256757044,-0.13007538512744013,-3.743785892797851e-05,-0.08667135000000001,-0.14923953,-9.817033770000002,0.003951,0.000102,0.005105,0.13776053206852962
1758011623.6893399,-0.000655578030537731,-0.0011041806476511252,3.988264678511655e-05,0.001806163291716424,0.003029328236233193,-0.07664485506389568,-0.12985127794735785,-6.360022850180644e-05,-0.09415638000000001,-0.15747012000000002,-9.80162226,0.002899,-0.00027,0.003791,0.13772947126640067
1758011623.709765,-0.000660507663363574,-0.0011151526505699383,3.962928820611111e-05,0.0017521330687981355,0.0030375164388697184,-0.07651425968150019,-0.12962479759487058,-9.65987670894312e-05,-0.08607294000000001,-0.15088761,-9.83245509,0.004337,-0.000708,0.003654,0.1376747092430432
1758011623.732173,-0.000670585477243279,-0.0011348095573797963,4.124292177065669e-05,0.0018702220389546353,0.0032925049062036346,-0.07634463188759895,-0.1293261232886121,-9.673917800345355e-05,-0.0868185,-0.14669874000000002,-9.79772769,0.003483,-0.001129,0.004157,0.13812804059239248
1758011623.7535682,-0.0006817286877286231,-0.0011539761355392121,3.875840094602623e-05,0.0016556730564979264,0.0028791332996105355,-0.07623382332295113,-0.12913349896023096,-5.885291104116244e-05,-0.08981055,-0.16136469,-9.81299205,0.00342,-0.000648,0.004773,0.13727018497591081
1758011623.7741716,-0.0006863909429580537,-0.0011613154128485659,3.828045153042581e-05,0.0016049973537849312,0.0027450787282798706,-0.07612968527529539,-0.12895543230372644,-4.073706530139381e-05,-0.08696565,-0.14639463000000003,-9.822272309999999,0.003119,-0.000634,0.003606,0.1371167618006157
1758011623.7963932,-0.0006578870937417335,-0.0011130393081007727,3.9132537787978094e-05,0.00303510014966031,0.005250501033930908,-0.07601399006146971,-0.1287537601033263,-7.7903830086634e-05,-0.08921214,-0.14669874000000002,-9.82796211,0.002682,-0.001338,0.004224,0.14125218132180903
1758011623.816402,-0.000660824116171518,-0.0011183814085681007,5.990096102426179e-05,0.0031139118332923522,0.005413662491870913,-0.07589693998604288,-0.12855126983761359,-7.509646897050948e-05,-0.08801532000000001,-0.15118191,-9.815238540000001,0.003453,-0.000798,0.005233,0.14135270624804613
1758011623.8364534,-0.0006650470818731555,-0.0011260267385106405,3.4641954383740625e-05,0.0029875457585647677,0.005647212247563472,-0.0757757621273401,-0.1283407193062722,-1.0946682831411084e-05,-0.07708698000000001,-0.15447807000000002,-9.818829,0.003635,-0.000416,0.00392,0.14135163725942965
1758011623.8572726,-0.0006682227177937906,-0.001133377471321322,3.345548223077088e-05,0.003427572826213131,0.005784639974767395,-0.07565939003225056,-0.12812055249181503,-3.07669811700741e-05,-0.09834525,-0.16241436,-9.81464013,0.004561,3.1e-05,0.00371,0.14146668249229294
1758011623.8803613,-0.0006701768014510173,-0.0011366236308943893,2.3584826736477993e-05,0.003329423700509154,0.006217952556786023,-0.07552463614742518,-0.1278930969467846,-6.227928419325006e-05,-0.07708698000000001,-0.15462522000000004,-9.81868185,0.004475,-0.00092,0.003361,0.14193158263082445
1758011623.9012885,-0.0007219336364573253,-0.0012318707558709714,4.600601982884811e-05,0.0015960925297895602,0.0028349571232443387,-0.07528273530817114,-0.12745074195062314,-0.0001593076955263999,-0.09190989000000001,-0.14309847,-9.81583695,0.003323,-0.000553,0.003394,0.1368084548301764
1758011623.92223,-0.0007265022989362097,-0.0012423887890649907,4.779636480689575e-05,0.0016329614553295345,0.0029724408742142754,-0.07516744268097125,-0.12724075070667146,-0.00017879931713750782,-0.0836793,-0.15567489,-9.80416305,0.002774,0.000296,0.003777,0.13687904168114157
1758011623.9422536,-0.0007286156909119556,-0.001250890411420118,5.1181691460122636e-05,0.0015446940249369237,0.002955332213593803,-0.07505664344145951,-0.1270285594889558,-0.00019638119943065382,-0.07918631999999999,-0.14505066000000003,-9.81763218,0.003675,-0.001426,0.003789,0.13687475182178047
1758011623.9661455,-0.0007390493676522401,-0.001261657748971234,4.4347470188554894e-05,0.0017640880742259822,0.003038181673452949,-0.07491554439193447,-0.12678541294940973,-0.0002714563266947969,-0.09490194,-0.14849397,-9.807459210000001,0.004423,0.00025,0.002847,0.13712094236616743
1758011623.9863513,-0.0007448941604262094,-0.0012724478232853328,4.194977375915343e-05,0.0015547578245905637,0.0027025530505427413,-0.07481326534419423,-0.126607719111681,-0.00022088355446476507,-0.08741691000000001,-0.14369688,-9.82946304,0.003088,-0.000519,0.004814,0.13657108932417572
1758011624.0064454,-0.0007527089666747609,-0.0012824546788808644,4.21076400289877e-05,0.0017371846162739532,0.002876318289891107,-0.07469134390332764,-0.12640600212318384,-0.00017487711894127652,-0.09490194,-0.15897105,-9.815689800000001,0.002411,-0.000547,0.004789,0.13669316726676053
1758011624.0270844,-0.0007588077032588837,-0.0012912478329076239,4.0371512526338194e-05,0.0017761709092842931,0.0029057575241603025,-0.07456273359337821,-0.1261956741904967,-0.00018258061571524613,-0.09310671,-0.15178032,-9.814787280000001,0.002754,-0.000246,0.003955,0.13673601855226702
1758011624.0474937,-0.0007635562511318884,-0.0013042068120468183,4.5303799456331006e-05,0.0017453535481944467,0.003040126878025552,-0.07442673661783719,-0.12595886699150108,-0.00013115663959512432,-0.08427771,-0.14983794,-9.80895033,0.002948,0.000112,0.004905,0.13689608873568862
1758011624.0681674,-0.0007701661187007551,-0.0013158291780354205,4.267557783377285e-05,0.001619733035891203,0.0028168944002136646,-0.07431792460103909,-0.12576978933966712,-4.325804444298038e-05,-0.08846658,-0.15253569,-9.8043102,0.003402,0.000729,0.005563,0.13647516172415183
1758011624.0881953,-0.0007769197517862845,-0.0013270140618055408,4.3771209028875546e-05,0.001731449949893193,0.0029835917688568326,-0.07419171221350965,-0.1255523294911227,-2.9471342373352504e-05,-0.08951625,-0.15642045000000002,-9.823920390000001,0.003984,-0.000731,0.004437,0.13665311843971334
1758011624.1083066,-0.0007823416648039478,-0.0013326153223831006,4.268014906738671e-05,0.0016742132724858528,0.002741555674473562,-0.07407492118309854,-0.12536137401360886,8.384017900992213e-05,-0.09595161,-0.13890960000000002,-9.81538569,0.00507,0.001013,0.006078,0.13650661848953766
1758011624.1288426,-0.0007905149618485183,-0.0013429711340136156,3.8858749122017144e-05,0.0017928845888755373,0.002842671424906168,-0.07394639669221284,-0.12515767303528913,4.70757180253508e-05,-0.09669717,-0.15642045000000002,-9.803113380000001,0.003368,2.6e-05,0.00374,0.13654976480140596
1758011624.1496673,-0.0007988011865207431,-0.0013573711034563663,3.805166544523786e-05,0.0018730819424670716,0.0030344109058386957,-0.073797277995787,-0.12491625387172743,6.107770538138529e-05,-0.09160578000000001,-0.15328125,-9.818829,0.002881,0.00057,0.004528,0.13680128938632388
1758011624.1700718,-0.0008055188151081001,-0.0013710767787344213,3.777915986136193e-05,0.001694989098020979,0.0028683669732718414,-0.07367923938234687,-0.1247165378873398,6.515627607316205e-05,-0.08622009,-0.15358536,-9.80820477,0.004219,-0.000543,0.004383,0.13642982345992982
1758011624.1915648,-0.0008109013763988348,-0.0013781940474052216,3.513798731891171e-05,0.0016217878294002837,0.002666927842101337,-0.07357451852039147,-0.12454447780485994,0.00010811536027419456,-0.09430353000000001,-0.14505066000000003,-9.81449298,0.003659,-0.000758,0.005025,0.13620409887569573
1758011624.2129326,-0.0008162212764255915,-0.0013875123137313257,3.358879114268021e-05,0.0017068546550316637,0.002843886829503605,-0.07345832441634072,-0.12435083983838074,5.739112178590166e-05,-0.09026181000000001,-0.15942231,-9.8159841,0.003261,0.000586,0.003532,0.13631306829137352
1758011624.2360425,-0.0007868187411985637,-0.0013394435381849838,3.488440772425605e-05,0.003237535571782202,0.005285007982301142,-0.0733450718287245,-0.1241501248001394,1.0323280009442285e-05,-0.09849240000000001,-0.15522363,-9.820182780000001,0.002099,5.9e-05,0.004302,0.14037614976013424
1758011624.260851,-0.0008310327519265209,-0.0014089182405457984,2.9387419751447652e-05,0.0017260441836794548,0.0027518413701767097,-0.07310296130730018,-0.12375966564760899,-2.548212619751401e-05,-0.0953532,-0.14385384,-9.807007950000001,0.003993,0.000244,0.003645,0.13631737901572824
1758011624.2812028,-0.0008368587532658526,-0.001420126606081902,2.812130980434091e-05,0.0017381871188565596,0.002867660610921549,-0.07298047411075102,-0.12355765369860087,-2.9225099568716498e-05,-0.08935929000000001,-0.15837263999999998,-9.81299205,0.003328,0.000617,0.004169,0.1363165206241722
1758011624.3021472,-0.0008419679677101346,-0.0014279759105888762,2.5459786057169254e-05,0.0017062524964314989,0.0028055378645491613,-0.07286069945616798,-0.1233606819785224,-8.945488381253809e-05,-0.09205704,-0.14789556,-9.81777933,0.00413,-0.001931,0.00324,0.136291724751977
1758011624.3231916,-0.0008474475628190551,-0.00144162825654946,2.607334681403728e-05,0.0016932971886033951,0.00296791475187508,-0.07274250837551863,-0.12315342012796106,-0.00011762155777778597,-0.08322804,-0.16466085000000003,-9.80775351,0.003649,-0.001324,0.003705,0.13626000146450717
1758011624.3441684,-0.0008527517008182669,-0.0014501550514837514,2.770514355798781e-05,0.0016810757465708908,0.0029053062330626827,-0.07262502161406319,-0.1229504318849556,-7.50022235911905e-05,-0.08981055,-0.15178032,-9.811049670000001,0.004327,-0.000233,0.004836,0.13624648879926482
1758011624.3658009,-0.0008578612050923996,-0.0014635976649403407,3.533890983931087e-05,0.0016919593249853238,0.003064062517643277,-0.07249376688249351,-0.12271268375380892,-2.5245613567161982e-05,-0.08322804,-0.15133887000000001,-9.82556847,0.003943,5.8e-05,0.004984,0.13651314295184672
1758011624.386597,-0.0008578612050923996,-0.0014635976649403407,3.533890983931087e-05,0.0016919593249853238,0.003064062517643277,-0.07249376688249351,-0.12271268375380892,-2.5245613567161982e-05,-0.08322804,-0.15133887000000001,-9.82556847,0.003943,5.8e-05,0.004984,0.13651314295184672
1758011624.4090734,-0.0008536305198660746,-0.0014526562935652707,3.463435163331141e-05,0.002793232390545148,0.00501812973259343,-0.07230792957522134,-0.12238814647270715,1.7328631967088226e-05,-0.08262963000000001,-0.15762708,-9.82497006,0.003341,-0.001453,0.003272,0.13972830271413306
1758011624.4301555,-0.000890924042471079,-0.001520325509011734,5.574496339910695e-05,0.0015507940548746713,0.0027861533136648423,-0.07220825099824887,-0.12220885528930196,-4.562699347164493e-05,-0.08262963000000001,-0.15762708,-9.82497006,0.003341,-0.001453,0.003272,0.13604191569212196
1758011624.452186,-0.0008823340563208486,-0.0015009953843171315,2.781420218678221e-05,0.00291601613564842,0.004681432078766633,-0.07205353179831821,-0.12194655695229827,-0.00011897683584241836,-0.10014048,-0.15522363,-9.80954874,0.00395,-0.000541,0.002911,0.139435205117627
1758011624.4724286,-0.0009220629825596395,-0.0015644621215898764,5.8297388591643795e-05,0.0014977707573360414,0.0024492870687359294,-0.07186723558290227,-0.12164479237689388,-0.0003082824818844159,-0.09011466,-0.14459940000000002,-9.824371650000002,0.003577,-0.001167,0.002234,0.13568095174109698
1758011624.493183,-0.0009239328930392058,-0.0015695568408824142,6.198099579979299e-05,0.001480143074177247,0.002542988497923404,-0.07178517733355554,-0.1215037298846621,-0.00035343523344942817,-0.08471916,-0.16270866,-9.799522920000001,0.004333,0.000878,0.0032,0.13561403176259634
1758011624.5140533,-0.0009229411828658394,-0.0015714476053186163,6.527174990944573e-05,0.0014719468086241193,0.002688994319513333,-0.07169627272905688,-0.12134110231247774,-0.0004102505459368066,-0.08098155,-0.15253569,-9.82241946,0.004158,-0.000196,0.002956,0.13581432440489863
1758011624.5358694,0.0008120409218095999,0.004424960732616068,7.046536101729117e-06,0.002968224580853284,0.005218791616030893,-0.07153475069361408,-0.12098901585494456,-0.00040538521403748643,-0.08622009,-0.16121754000000002,-9.81299205,0.003518,-0.000834,0.0042,0.1398234216111998
1758011624.5559874,0.002495413610596715,0.010284160150439594,-6.11615073240479e-05,0.00290863893006227,0.0054784740161927265,-0.07138061447476744,-0.12064318251107055,-0.0003843472605303184,-0.07993188000000001,-0.15178032,-9.82272357,0.003894,-0.001129,0.00402,0.14014930597469627
1758011624.5803545,0.005749162201044396,0.02167242103489253,-0.00018923390517144867,0.0016983591848739085,0.0031590209826342906,-0.07106606427142143,-0.119919552968287,-0.0003694924045655743,-0.08816247,-0.16495515000000002,-9.807302250000001,0.003972,-0.000244,0.003978,0.13609605408074513
1758011624.601621,0.0073572845542122615,0.027273951797118685,-0.0002543483964076998,0.0016708241236972796,0.00313002672367143,-0.07090514508992433,-0.11955268456580198,-0.0004246129374458126,-0.08547453,-0.15178032,-9.82272357,0.002747,-0.000867,0.002977,0.13614837835357893
1758011624.6226146,0.008940340298565578,0.03279496375602131,-0.00031752437709720027,0.00168380290781514,0.003045140004250642,-0.07074549566276474,-0.11919606768066626,-0.0003273812448967167,-0.09086022,-0.15268284000000001,-9.81449298,0.003026,0.000355,0.005435,0.13609793776337165
1758011624.6436818,0.010503095649208545,0.038239360671385454,-0.00038257247379736015,0.0016272398819313202,0.002948394334325223,-0.07058975813646881,-0.1188460556182285,-0.000345796184670633,-0.08801532000000001,-0.14400099,-9.80805762,0.00229,-0.001269,0.003625,0.13610516198398998
1758011624.66441,0.012039323357376086,0.0436050065293583,-0.0004525571802798112,0.001749546923880661,0.0029534918711774084,-0.07042547253504144,-0.11849564180637287,-0.0004024968773444928,-0.09759969,-0.15582204,-9.823920390000001,0.002708,0.000718,0.002977,0.13611481518608906
1758011624.6848462,0.013557087120722693,0.048892868406408066,-0.0005140193818795602,0.0017395227299983535,0.0030862382765103323,-0.07025848042464734,-0.11813052719568966,-0.0003107184785317901,-0.08562168,-0.15822549000000002,-9.799522920000001,0.00248,-0.000402,0.005356,0.1361973706201619
1758011624.7056558,0.015053259069462466,0.05410933251887953,-0.0005788533622115288,0.0016864267557277917,0.0029954310516659053,-0.07010043929998842,-0.11778083284101304,-0.0002468631300097378,-0.08906499000000001,-0.15342840000000002,-9.81538569,0.00366,-0.001266,0.004993,0.13608427447095367
1758011624.726809,0.016530037413914473,0.05925749798424709,-0.0006442166419957651,0.0016507310311635695,0.0028841138203366777,-0.06994435095052413,-0.1174379358336835,-0.0002227812537326573,-0.09131148000000001,-0.14369688,-9.81045126,0.002527,0.00103,0.004404,0.13610480087209326
1758011624.747827,0.017986748827531027,0.0643314754727422,-0.0007076688877760695,0.0016196824558793372,0.0029436973398836125,-0.06979013303426851,-0.11709055504044279,-0.00021930531924287662,-0.08471916,-0.15297714,-9.82107549,0.003006,0.00017,0.00409,0.13612301064465232
1758011624.7681909,0.019415459414407147,0.06933828706597127,-0.0007831895367953479,0.0018998011047663508,0.0030439995502770903,-0.06960078863696123,-0.11671176320011065,-0.00025251452692263694,-0.10253412,-0.15328125,-9.80969589,0.002744,0.000532,0.003501,0.136455319797184
1758011624.789683,0.02083159624806505,0.07427406843363363,-0.0008521485093346826,0.0015977874370136733,0.002726008960373948,-0.06945746552412846,-0.11639496101348101,-0.00022185566824656553,-0.08517042000000001,-0.14550192,-9.80985285,0.003771,-0.000186,0.004506,0.13590480964132753
1758011624.8105457,0.02222893008879448,0.07914957882340286,-0.0009200356990275438,0.0016742202364253538,0.002753449227446319,-0.06930384699941955,-0.11606778285631643,-0.00016754938227836588,-0.09609875999999999,-0.14818986,-9.82930608,0.004401,0.00031,0.004925,0.13605212164503744
1758011624.830424,0.02360611084559896,0.08395830203881716,-0.0009867529394074204,0.0017776074461225643,0.0028379887357992523,-0.06913915381000148,-0.11572875004115155,-4.4905456206932235e-05,-0.09759969,-0.15552774,-9.80041563,0.00477,0.002055,0.006096,0.1361619722572725
1758011624.8513527,0.024967820976635427,0.08870444304188037,-0.001054181258915321,0.001724964857745517,0.002825556732638305,-0.06897625982766414,-0.11538770282153436,-2.319502356720671e-06,-0.09176274,-0.14684589,-9.823626090000001,0.001899,3.4e-05,0.004906,0.13622219257037163
1758011624.8723881,0.026313142900516718,0.09338397884281102,-0.001116449441477485,0.0015729453519311954,0.0028801732122777928,-0.06882870536172327,-0.11505148005702931,0.0001178487774840024,-0.0782838,-0.15492933000000003,-9.80670384,0.003848,-0.00145,0.006222,0.13611610091914134
1758011624.8935215,0.027637846368719143,0.09800576846170761,-0.001180868764385501,0.0016346711763976197,0.0028952864564558006,-0.06867526098389704,-0.11471108669478125,0.00010668861311863151,-0.09100737,-0.15387966,-9.816739470000002,0.003226,-0.000932,0.004191,0.13617858422872817
1758011624.9162982,0.028976042075862143,0.10262109197469171,-0.0012701854736896223,0.002990561496314748,0.0049942133802157365,-0.06851554900683186,-0.11436474904386226,6.661272222636546e-05,-0.09265545000000001,-0.15313410000000002,-9.80820477,0.003895,0.000527,0.003104,0.1400550451027737
1758011624.940891,0.031508653067395746,0.11151655310971349,-0.001380762392491075,0.001734930837269391,0.0028232421499884484,-0.06820642804105698,-0.11370476123430387,5.7086512918814845e-05,-0.09714843000000001,-0.15672456,-9.81793629,0.002038,0.000599,0.005311,0.1361732413985005
1758011624.9642477,0.03276833825134655,0.11590677327657692,-0.001449397007586395,0.0017277828080606156,0.0028936334024141836,-0.0680394503583251,-0.11335321521136933,3.1773784800553695e-05,-0.08996751000000001,-0.14818986,-9.799817220000001,0.003756,-0.000251,0.003902,0.1364169613305373
1758011624.9845119,0.03401258696592275,0.12023591338517567,-0.0015095033578331751,0.001519855205896264,0.0028457524876446126,-0.06790007180524717,-0.11302809792001949,2.02720841143927e-05,-0.07559586,-0.15897105,-9.82197801,0.002309,-0.001041,0.004099,0.13610259109317002
1758011625.0046737,0.03524214621238543,0.12451615309001396,-0.0015686830390331252,0.0014973856175827356,0.002882299810990695,-0.06775832437957491,-0.11269348653225347,-8.059232901880045e-06,-0.08172711,-0.15074046,-9.82197801,0.003288,2.3e-05,0.003812,0.1362284603317608
1758011625.0247455,0.03645654827299365,0.12874187800162643,-0.0016252450710512178,0.0014537156387815274,0.0029163932391171603,-0.06761834447018306,-0.11235441188856181,-3.5791475038458456e-05,-0.07844076,-0.15208443,-9.78649524,0.002307,-0.000585,0.003794,0.13628381442992765
1758011625.0449047,0.03765302406235112,0.13291826447528934,-0.0016852695598141842,0.0015138194219584936,0.002809098562800299,-0.0674742442390304,-0.11202264906831906,-5.3529987973065814e-05,-0.09086022,-0.14714019,-9.819584370000001,0.0032,-0.000307,0.00393,0.1363086443216706
1758011625.065505,0.038833252594247705,0.13703838076712174,-0.0017461239575555787,0.0016037421168884174,0.0028924532185786813,-0.06732539144495989,-0.1116877369827459,-4.608943220345507e-05,-0.08891784,-0.16346403,-9.799817220000001,0.003224,0.000468,0.004324,0.1362984630278497
1758011625.085515,0.04000153392914829,0.14111198020764623,-0.0018113616982931013,0.0016138397439907125,0.002895631385960763,-0.06717035054419204,-0.11134289386632039,-0.00012102596786515728,-0.08772102000000001,-0.14969079000000002,-9.82930608,0.001833,0.000116,0.002992,0.13646339068849983
1758011625.1060154,0.04115176016836075,0.14513492738257885,-0.0018767999489792686,0.0016516930582921269,0.0027140154533746713,-0.06702301923356675,-0.11102768135433844,-0.00012894733168764585,-0.10028763,-0.15612615,-9.80251497,0.00239,-0.000451,0.004005,0.1362270409125319
1758011625.1262167,0.04229388181282596,0.1491080805363442,-0.0019378791787412197,0.0015824214248735952,0.002850263188285997,-0.06687666958602366,-0.11069768824078872,-0.00015307232788223953,-0.08067744,-0.15717582000000002,-9.80925444,0.002939,-0.000782,0.003732,0.13634283594787353
1758011625.1463256,0.0434183656097149,0.15303960519589904,-0.0020064985090666454,0.0016538794633875128,0.002690838532548319,-0.06672478687057047,-0.11037706856378723,-0.0002695240824765627,-0.10014048,-0.14564907000000002,-9.83634966,0.002597,0.000403,0.002198,0.13638871199150293
1758011625.1681328,0.044524993975380824,0.1569166151050884,-0.002069806850546474,0.001872828996472533,0.0029412650077958093,-0.06653935683562728,-0.11001115462999685,-0.00021951710552105556,-0.09714843000000001,-0.15806852999999998,-9.80251497,0.003281,-0.000515,0.004788,0.13680941834641136
1758011625.1883423,0.045620101806020844,0.1607463113873674,-0.0021374909776956663,0.0016415368921713798,0.002575888303800498,-0.06640097785122752,-0.10971772386236582,-0.00021800925350258589,-0.09655002,-0.15837263999999998,-9.835299990000001,0.00262,0.000591,0.004061,0.13610933763166455
1758011625.210262,0.04670939215336528,0.16453903767803132,-0.0022025731238963786,0.0016018797265287324,0.002633176858427571,-0.06625686792434109,-0.10940805867276406,-0.0002140304253259406,-0.08891784,-0.14669874000000002,-9.80416305,0.003829,-0.000211,0.004103,0.13635300408177592
1758011625.230456,0.04778571527121532,0.1682841990195781,-0.0022583080441722636,0.0015559496599003467,0.0027599847351576705,-0.06611113427496625,-0.1090826232112749,-7.690489715546454e-05,-0.08277678,-0.15328125,-9.81583695,0.000956,-1e-05,0.006282,0.13650440587717502
1758011625.251423,0.0488453127955541,0.17198714212732452,-0.002319180578202129,0.001649966963499874,0.002796916967261031,-0.06595261071960605,-0.10874396305952,-4.0948449845259914e-05,-0.09295956000000001,-0.15133887000000001,-9.845178660000002,0.002995,0.000582,0.004761,0.13669821367448176
1758011625.2730153,0.04989218061427399,0.17564215069922742,-0.002383670639389379,0.0015970806857239144,0.002745188207362293,-0.06581092951570734,-0.1084310565035003,2.852687205144116e-05,-0.08861373,-0.16675038,-9.80820477,0.002947,-0.000769,0.005351,0.1363899479440952
1758011625.2933502,0.05093032759126679,0.17925730634762424,-0.002442622133872696,0.0015847942963607149,0.002884840080781333,-0.06566703197483548,-0.10810394445876097,3.504824609208412e-05,-0.08188407,-0.16435674000000003,-9.835594290000001,0.003952,0.000752,0.004391,0.13649845940232327
1758011625.3140273,0.05195612313231892,0.18283754917260978,-0.002505354402190907,0.001584686433398185,0.002738480172289001,-0.06552121164003641,-0.10778317987601804,-7.360428088202762e-06,-0.09265545000000001,-0.14699304000000002,-9.801171,0.005234,0.002382,0.003598,0.13657809090874648
1758011625.3353865,0.052994449266234415,0.1864144679725142,-0.0025651640369730444,0.0027037889222756824,0.004618735438521598,-0.06536705335577765,-0.10743797166233661,-3.626566575989084e-05,-0.09355797,-0.16241436,-9.81868185,0.002575,-0.000398,0.004267,0.1399227245649543
1758011625.3556435,0.054000818228709696,0.18991740470363896,-0.0026323295968442295,0.0027364479471350413,0.00483983285137175,-0.06523371333247341,-0.10713802204978777,-3.3375131333864165e-05,-0.08442486000000002,-0.1505835,-9.8043102,0.003376,0.00025,0.00396,0.14053296341013005
1758011625.3777041,0.054996978793742594,0.19338269018493134,-0.002675054577315983,0.0031122628179134594,0.004868147731247115,-0.06509609293664581,-0.10682504848426655,-4.9374304678922e-05,-0.10073889000000001,-0.14849397,-9.83379906,0.0018,-0.000185,0.004714,0.14115276788800923
1758011625.4022114,0.05691177343810334,0.200124033001656,-0.002810383113552195,0.0015308480478761048,0.002677623261160293,-0.06480060715433042,-0.1061912677546971,-5.01281876415692e-05,-0.08157996,-0.15447807000000002,-9.80865603,0.003651,-0.000638,0.003717,0.13671565613172892
1758011625.42309,0.05787045617419559,0.20346578592415634,-0.0028688062681592186,0.0014964327485099045,0.002685608863268628,-0.06466547402693366,-0.10588315210826418,-2.7538221831000342e-05,-0.08471916,-0.15897105,-9.83679111,0.004032,-0.001081,0.004576,0.13663801379882584
1758011625.443505,0.05881619570158705,0.20677666926677404,-0.002934095608662979,0.0016265491633635674,0.0026023424698022003,-0.06451779040184423,-0.10557367228998607,-5.0861508351416923e-05,-0.10044459,-0.14938668000000002,-9.8213796,0.004174,0.000371,0.003847,0.13678509156673507
1758011625.4645576,0.05975475704151906,0.21004749260727612,-0.0029958599194608304,0.0015615051137717164,0.0026099342451241948,-0.0643756592208012,-0.10526588493359616,-5.0552273254829517e-05,-0.08756406,-0.15253569,-9.81464013,0.002526,-0.000666,0.00421,0.13678826266777128
1758011625.4855309,0.06067825407352613,0.21328589227347894,-0.003064169585187848,0.0017031173980996146,0.0025224571711687347,-0.06422401639810787,-0.10496363965479512,-3.723104831156717e-05,-0.10597743000000001,-0.15237873000000002,-9.836496810000002,0.002887,-0.000201,0.004423,0.13683041271337099
1758011625.5055716,0.06159751081943296,0.2164873041935026,-0.0031290432907016275,0.0015907387578023779,0.0025291222233828356,-0.06408002402106638,-0.10466145068135295,-6.431203908331584e-05,-0.08831943,-0.14864112000000002,-9.7983261,0.00404,-0.000173,0.003776,0.13686177450489614
1758011625.5264807,0.06250251103807328,0.21965591919283237,-0.003197323669160479,0.0016685187270396413,0.002476690718815412,-0.06393143608439257,-0.1043635802974282,-7.3641573378268e-05,-0.10208286000000001,-0.15133887000000001,-9.82466595,0.003032,0.000587,0.004039,0.13688712379231438
1758011625.5475023,0.06339802611368466,0.2227874317991995,-0.003264372350364919,0.0017210516198738787,0.0025674460031775317,-0.06377973524275696,-0.1040604574534176,-1.9018848815872007e-05,-0.09729558,-0.16165899,-9.80790066,0.004139,-0.000886,0.005075,0.13691771985302503
1758011625.567606,0.06429145399803657,0.2258861463685946,-0.003323889463389129,0.0015291322382061051,0.0026715332279888923,-0.06363569064839382,-0.1037422010632375,-3.243258490746605e-05,-0.0779895,-0.14893542,-9.79323471,0.004009,-0.000425,0.004019,0.13709343579371283
1758011625.5880058,0.06516925515455274,0.22895205556384224,-0.003383663564893169,0.0015070065072180564,0.002585689878803185,-0.06350054101951015,-0.10344239154971333,-8.816442510549777e-06,-0.09026181000000001,-0.15657741,-9.8361927,0.003146,0.000205,0.004609,0.1369254501214829
1758011625.6083102,0.06603887428389535,0.23198842600264735,-0.00344422556367574,0.0015229211472255358,0.0025453204964746173,-0.0633648863259367,-0.10314607701137687,2.080599267890424e-05,-0.09205704,-0.15313410000000002,-9.787250610000001,0.003901,0.000287,0.004732,0.13694706281704422
1758011625.6284525,0.06690081559370561,0.23499198191170959,-0.0035056468983327704,0.0015113193058696784,0.0026128651547352786,-0.06322756113484472,-0.10284133108756967,-7.409672307425331e-05,-0.08607294000000001,-0.15522363,-9.82930608,0.003013,-0.000947,0.002725,0.13705856284731002
1758011625.6494756,0.06775017017006561,0.2379618541350024,-0.0035697581592883942,0.0016322417583581241,0.002773799642577532,-0.06307553293121389,-0.10251478853758857,-0.00013518633600234205,-0.09011466,-0.16286562,-9.81733788,0.003883,0.000166,0.003192,0.1372786245879868
1758011625.6705203,0.06775017017006561,0.2379618541350024,-0.0035697581592883942,0.0016322417583581241,0.002773799642577532,-0.06307553293121389,-0.10251478853758857,-0.00013518633600234205,-0.09011466,-0.16286562,-9.81733788,0.003883,0.000166,0.003192,0.1372786245879868
1758011625.691623,0.06940660022718495,0.24379727553700076,-0.0037051397402709796,0.001496527112894827,0.0024524673205460748,-0.06273724380105589,-0.10183736862212935,-0.00016748442452529542,-0.08352234000000001,-0.14684589,-9.82377324,0.002758,-0.000751,0.003862,0.1369471088896668
1758011625.711941,0.07023133518281573,0.2466804060041257,-0.003767887776996215,0.0014346998580383253,0.0022717830078992957,-0.06262136202910241,-0.10157985557622741,-0.00017600361931492838,-0.09700128,-0.15387966,-9.803417490000001,0.00501,0.00121,0.003949,0.13668465489458023
1758011625.7331755,0.07104934050854839,0.24953753760558692,-0.003833486842341305,0.001582369299868196,0.0024300369013941837,-0.06248873624214698,-0.10130065500521394,-0.0001474253697261307,-0.09700128,-0.16046217000000002,-9.82721655,0.002911,-0.002076,0.004549,0.13699245759646417
1758011625.7531617,0.07186424587707511,0.25236763749472274,-0.003894845202174313,0.001451443713529622,0.0024250757776064285,-0.06235996161544607,-0.10101556649992717,-0.00021433375961828498,-0.08397360000000001,-0.14474655,-9.79443153,0.004856,0.001318,0.003008,0.13715172688994748
1758011625.7741573,0.07266682779205817,0.25516932061033787,-0.003960290307474246,0.0014944414599727025,0.002390556435298592,-0.062225776535217665,-0.10072842317735244,-0.00033279787482352625,-0.09355797,-0.15747012000000002,-9.815238540000001,0.001954,0.000189,0.004881,0.13727830384468592
1758011625.8003733,0.07348881844506559,0.25798522915281663,-0.004014760831130726,0.002719599811176157,0.00450324069332845,-0.062085868120788534,-0.10043423569846731,-0.00027438912940049395,-0.08532738,-0.15956946,-9.78829047,0.003092,-0.00012,0.004371,0.14122385654932798
1758011625.8195295,0.07502484608419005,0.26339668536323607,-0.004141773825352857,0.00149581386171968,0.002458284977651851,-0.06182065971564112,-0.09985446973421862,-0.00018441313902114347,-0.09205704,-0.15088761,-9.81464013,0.002868,0.000846,0.005097,0.1373634357198735
1758011625.8406355,0.07579743099797873,0.2660866016385847,-0.004198165167033974,0.0014484998020902536,0.0024700007843392923,-0.06168760406700644,-0.0995601280541967,-0.00013029951360913602,-0.08622009,-0.14773860000000003,-9.791135370000001,0.003599,-0.000246,0.004959,0.13751115182889964
1758011625.8612316,0.07655752275210373,0.2687484831869706,-0.004260632385050034,0.0015325513809532252,0.0024246829464730766,-0.06155365663830715,-0.09927599257775081,-7.402757589812907e-05,-0.09805095000000001,-0.15866694,-9.835143030000001,0.004206,0.000391,0.005052,0.13742668418594972
1758011625.8818219,0.0773147166150113,0.27138513202359216,-0.004321095332316727,0.001493883594927373,0.002488525575390055,-0.06141751710517417,-0.09898037904445435,-9.379480290892483e-05,-0.0865242,-0.15103476000000002,-9.808499070000002,0.002309,0.000248,0.003858,0.13761038641384593
1758011625.90264,0.07806080414393692,0.27399698413418877,-0.004383723514044924,0.0015362840074921382,0.0023989283344411517,-0.06128162908009442,-0.09869545149607617,-7.465012712764452e-05,-0.09759969,-0.15237873000000002,-9.80670384,0.001753,-0.001963,0.004476,0.1375718571169329
1758011625.9235263,0.07880394992546653,0.2765845321047147,-0.004444688505732763,0.0014513647529819454,0.0023737291178652473,-0.06114885538522407,-0.09840854891033517,-9.803164915743362e-05,-0.08756406,-0.14385384,-9.82511721,0.003283,0.000478,0.003799,0.1376892265156761
1758011625.9443433,0.07953601739765379,0.27914239665510365,-0.004505430505640007,0.0015144639668909971,0.0025151528313172287,-0.061009767358186515,-0.09810885939143763,-0.00012484243585512926,-0.08891784,-0.1591182,-9.79353882,0.003437,0.000849,0.003722,0.13780782419106427
1758011625.9644303,0.08026311077389797,0.28168045769157823,-0.004565479151490859,0.0014136947547458854,0.0023202290408564415,-0.06088440121956327,-0.09783369561401103,-7.385942852382147e-05,-0.09116433,-0.14429529,-9.84068568,0.001758,0.000993,0.004965,0.1376349169288884
1758011625.9845934,0.0809857311736005,0.2841909357661943,-0.0046191550228518174,0.0013301525228543796,0.00244763709953795,-0.06076424652119503,-0.09755076510712178,-9.977476513310058e-05,-0.07708698000000001,-0.15657741,-9.79697232,0.003143,-0.000572,0.003757,0.13768283280294352
1758011626.0052,0.08170023493870072,0.2866789865209349,-0.004671046950659452,0.0013441584292237772,0.0025403514023845945,-0.0606405521945236,-0.09725715737022611,-0.0001095582991644115,-0.0811287,-0.15657741,-9.81823059,0.003263,0.000691,0.003996,0.13782292835103976
1758011626.0257862,0.08240526648264862,0.28915030754734644,-0.004730746519950646,0.0014197757415027286,0.002289829507195851,-0.06051345608498405,-0.09698198371529848,-0.000119525203662926,-0.10088604,-0.14070483,-9.81868185,0.005136,-0.000837,0.003983,0.1378239161011213
1758011626.046937,0.08310458849404277,0.29159671902372347,-0.004794570083916483,0.0014767213122186382,0.002258701303772959,-0.06037777524866874,-0.09670136960870777,-0.00014277834365494563,-0.09624591,-0.14220576000000001,-9.79457868,0.005176,-0.00102,0.003758,0.13802592114497167
1758011626.0679204,0.083796272023715,0.29401634546305405,-0.004853209218263821,0.0015072015935719961,0.002306136828624172,-0.060239627569002564,-0.09641714557640578,-5.927270853547797e-05,-0.09370512,-0.14998509000000002,-9.88589016,0.001326,-0.000157,0.005465,0.13809728162644475
1758011626.0883334,0.08448015471904972,0.2964125463532247,-0.004915345989486841,0.0014982858832001933,0.0022267213403586047,-0.06011375072014955,-0.09615511187344183,-8.890517987585652e-05,-0.09849240000000001,-0.15986376000000002,-9.813139200000002,0.003231,3.1e-05,0.003711,0.13780099086511702
1758011626.1085134,0.08516384370039369,0.2987859648470277,-0.004970291336656718,0.0014242491244503927,0.00245264005980266,-0.05998766184005737,-0.0958722195561414,-5.547344761494344e-05,-0.07858791000000001,-0.16002072,-9.803260530000001,0.002474,5.9e-05,0.004714,0.13799810661393705
1758011626.1339297,0.08583978519072497,0.3011384215870297,-0.0050256361433471675,0.001449673719260315,0.0026462256254323776,-0.059834523044284944,-0.09553102002861749,-7.48761067573693e-05,-0.08232552,-0.14265702,-9.80805762,0.004799,1.1e-05,0.003894,0.1387710897384971
1758011626.1561246,0.08652350383481204,0.30349840939263995,-0.00509290961971276,0.002019866505495873,0.0036073734245586717,-0.059727023547085256,-0.09527292493180928,-7.264822740131311e-05,-0.08547453,-0.14594337000000002,-9.861198390000002,0.004548,-0.001137,0.003251,0.1410054105587519
1758011626.179994,0.08782375730496628,0.3080713688743755,-0.00518625546623408,0.0014022451577442889,0.002279807603973444,-0.05950512927616671,-0.09476088897629964,-0.00011713555355014363,-0.09640287000000002,-0.16121754000000002,-9.800121330000001,0.006515,-0.000669,0.004328,0.1380422528952494
1758011626.201133,0.08847571554028055,0.31034508671430755,-0.005242706844589495,0.001442868202328306,0.0023407946315671816,-0.05937672207382712,-0.09448314747946289,-8.571450153726632e-05,-0.09026181000000001,-0.15148602000000003,-9.82332198,0.005929,4.3e-05,0.004654,0.1382923437032351
1758011626.2217014,0.08847571554028055,0.31034508671430755,-0.005242706844589495,0.001442868202328306,0.0023407946315671816,-0.05937672207382712,-0.09448314747946289,-8.571450153726632e-05,-0.09026181000000001,-0.15148602000000003,-9.82332198,0.005929,4.3e-05,0.004654,0.1382923437032351
1758011626.2457075,0.08974750377250566,0.31480704576273555,-0.00536439378688458,0.0013757822200462862,0.0023067375470020328,-0.059090993690092714,-0.09387193122165474,-0.00012205218149736472,-0.08801532000000001,-0.15657741,-9.818534699999999,0.003668,-0.001657,0.004137,0.13809425082091714
1758011626.266436,0.09038243630927185,0.3170167663745182,-0.00541946879055244,0.0012794714310974398,0.00231016817329639,-0.05898483707205206,-0.09361746430658606,-8.212836941585305e-05,-0.07888221,-0.16165899,-9.84307932,0.002384,-0.000757,0.004792,0.1380052605073111
1758011626.2874746,0.09101056195533637,0.31921248020030857,-0.005475672737893511,0.0014188442506619654,0.0023608648458552264,-0.05886329548453431,-0.0933471806748934,-8.423308373747361e-05,-0.09340101,-0.1562733,-9.77302611,0.003608,0.000348,0.004139,0.13832801143103837
1758011626.3079026,0.09163546426798921,0.3213865594705302,-0.005529055155742757,0.0013801447153025267,0.0024007000567671933,-0.058741751031529316,-0.09307075940723669,-7.752798262415752e-05,-0.0836793,-0.15582204,-9.837840779999999,0.002435,-0.000142,0.004282,0.13845708448417182
1758011626.3280728,0.09225167141462705,0.3235407816174085,-0.005583290775664995,0.0014494455445128137,0.002423350413307766,-0.058615073664402904,-0.09279166256754022,-2.5210180237496122e-05,-0.09086022,-0.16091343000000002,-9.79368597,0.004049,-0.000549,0.005039,0.13853966405785925
1758011626.3486907,0.09287037010900047,0.3256777010994664,-0.005628928334616035,0.0011858084983010367,0.0023540775613643122,-0.05850467295555584,-0.09251704781967639,1.1544613198867842e-05,-0.07035732,-0.14130324,-9.80251497,0.004685,-0.002996,0.004835,0.1385911970406139
1758011626.3693116,0.09346790826995785,0.32780347736043464,-0.005697910015627361,0.001575036729145468,0.0020570686981315326,-0.058367759971067516,-0.0922577682266328,-3.6771110999620995e-06,-0.12379239,-0.14265702,-9.84202965,0.008005,-0.001904,0.004018,0.13871593820021363
1758011626.39006,0.0940885158683846,0.3299062287784462,-0.005736070376103353,0.0007862479040769663,0.0019413010596828375,-0.05828155089768308,-0.09200838470573648,6.738757786479407e-05,-0.04221243000000001,-0.10313253,-9.70087356,0.008828,0.004851,0.005417,0.13871158562357336
1758011626.4100952,0.09467616444390303,0.3319754065747495,-0.005785891389574083,0.001245896525548468,0.002463305053129091,-0.058166584632181474,-0.09172522533769858,-5.6693628154127123e-05,-0.08636724,-0.18741024,-9.94517199,-6.3e-05,-0.006794,0.002295,0.1388148776126709
1758011626.4310427,0.09524999047393665,0.33402639849757954,-0.005846528406323159,0.0018822671313021844,0.0028467963812615926,-0.05801139726567952,-0.09141778450936264,-6.511590058381563e-06,-0.11197134000000002,-0.21390705000000002,-9.691897410000001,0.003561,-0.004779,0.005017,0.13887925007261795
1758011626.4524,0.09584321811561157,0.3360763985058876,-0.005899365717266569,0.0014727166378995403,0.002523950030309223,-0.057882140588967436,-0.09113105340130671,3.1201191875868967e-06,-0.10568313,-0.14385384,-9.803113380000001,0.005832,0.000131,0.004001,0.1389209520816111
1758011626.4731014,0.09642196350537174,0.33810930265140576,-0.005959605039531635,0.001470715112703039,0.0021675112400893542,-0.05775956002668881,-0.0908764704016172,-1.260505935565997e-05,-0.10568313,-0.14385384,-9.803113380000001,0.005832,0.000131,0.004001,0.138759431510514
1758011626.4938228,0.09642196350537174,0.33810930265140576,-0.005959605039531635,0.001470715112703039,0.0021675112400893542,-0.05775956002668881,-0.0908764704016172,-1.260505935565997e-05,-0.10568313,-0.14385384,-9.803113380000001,0.005832,0.000131,0.004001,0.138759431510514
1758011626.5140884,0.09698036778368137,0.340087999356992,-0.006049251131028832,0.0017686499958373568,0.0028542756027770664,-0.05755003181271471,-0.09047009734841512,-8.37976863725387e-05,-0.08756406,-0.13307265000000001,-9.807302250000001,0.005739,0.001176,0.004063,0.14029644557411206
1758011626.537066,0.0981077043343435,0.3440519680532374,-0.006163160612461471,0.0012393113070504921,0.0018610757650169695,-0.0573293180183909,-0.08997830886241011,-9.406597565306736e-05,-0.10164141000000002,-0.13936086,-9.80251497,0.004886,0.000137,0.004113,0.13867824887887667
1758011626.5578742,0.09868772669975229,0.3460408395907428,-0.006215110023036541,0.0022276597577386894,0.0037473809679757085,-0.05723321246331708,-0.08974231161529343,-0.0001421113903692164,-0.09131148000000001,-0.19414971,-9.83738952,0.001938,-0.001048,0.003817,0.14139578138110162
1758011626.5816696,0.09978555905755401,0.3499013972147025,-0.006322118243579311,0.0013897850350388138,0.0020896327254274873,-0.05701708651386595,-0.089255814614317,-0.00014383287119680108,-0.10044459,-0.14041053,-9.80909748,0.003344,0.000122,0.004365,0.1389191130698396
1758011626.602092,0.10033878721662508,0.35183004339770446,-0.006387319657779944,0.001377187290594042,0.0018784143701189675,-0.05689462532009391,-0.08901002085019234,-0.0001777312209993972,-0.10044459,-0.12544047,-9.83769363,0.0027,0.000629,0.003552,0.13931656884578558
1758011626.6221914,0.10088639837245307,0.3537300960849704,-0.006444707407249783,0.0012011492837834187,0.0019262788155466933,-0.05679026734266183,-0.08877303949199736,-0.0001113034559860441,-0.07888221,-0.14998509000000002,-9.79189074,0.005351,0.000387,0.005187,0.1390894597059696
1758011626.6430469,0.10142171844978085,0.3556142498229131,-0.006511935716813966,0.001506649979250144,0.002193351096251554,-0.056656192263730726,-0.0885029565524587,-0.00017726235690359058,-0.09924777,-0.16046217000000002,-9.82646118,0.004797,0.000416,0.003059,0.1395559028124726
1758011626.6633255,0.10195367985647595,0.35748324639050905,-0.0065712457017363946,0.0015100757567433148,0.0020596812780606516,-0.056533958405008994,-0.08825781187570435,-0.0002844406854068169,-0.10432935000000002,-0.16106057999999998,-9.80626239,0.0025,8e-06,0.002296,0.13924578118415668
1758011626.6839716,0.10248943059525362,0.35933864118786163,-0.006628253441752996,0.0013803182812763928,0.002166106713935205,-0.0564121946207606,-0.08799628483502193,-0.00029687617730764123,-0.08277678,-0.14818986,-9.820477080000002,0.002644,0.000233,0.003766,0.13953924778235738
1758011626.70466,0.10301203988038249,0.36117623513759683,-0.0066886055472861194,0.0015131212899006734,0.0022037603159420728,-0.0562863508356658,-0.08773854629204826,-0.0002510372095036809,-0.10044459,-0.16839846000000003,-9.813139200000002,0.003262,-0.000118,0.004718,0.1394755507561791
1758011626.7252147,0.10353486691641581,0.3629996425574595,-0.006746004517117488,0.0014808928849199797,0.002273196368757222,-0.05616187889984922,-0.08747600198365786,-0.0002392422730547498,-0.08891784,-0.16286562,-9.82586277,0.002557,-0.000594,0.0042,0.13955201002520595
1758011626.7461681,0.10405049417003236,0.3648121980611793,-0.006809527781843183,0.0015702314910395847,0.002186588624629507,-0.05603106919710824,-0.087217401093028,-0.00025319586866363007,-0.10328949000000001,-0.15717582000000002,-9.804015900000001,0.003433,-0.000437,0.003786,0.1396390227378509
1758011626.7665503,0.10456516637661982,0.36661053830905016,-0.0068767606445860885,0.001568489814485859,0.0022214307846193117,-0.05588423929704194,-0.08693438947985488,-0.0002773402290244331,-0.09415638000000001,-0.14474655,-9.81777933,0.004399,0.000806,0.003613,0.14015259677649416
1758011626.787473,0.10507252039457833,0.3683868821616106,-0.006936357110900904,0.0013163866272975654,0.0019926515991122006,-0.05577797648302963,-0.08670151028663209,-0.0002517001003596059,-0.08667135000000001,-0.16046217000000002,-9.80416305,0.004788,-0.00044,0.004402,0.13941864000499288
1758011626.8085248,0.10557910579606442,0.3701536601457546,-0.006992924118312871,0.001392017610514675,0.0022042873721775163,-0.05565931375231244,-0.08644420439629168,-0.0002780308042944145,-0.08786817,-0.16076628,-9.84637548,0.002347,-0.001258,0.003571,0.13978036834541896
1758011626.8287609,0.10607872528318366,0.37190897158241304,-0.007053013061012248,0.001489431761955117,0.0021588690069913657,-0.05553533769780113,-0.0861904528560816,-0.0002672075116350885,-0.10044459,-0.15971661,-9.80760636,0.002308,-0.001062,0.004156,0.13982409229094087
1758011626.8497152,0.10657675202390961,0.3736538781874334,-0.007115923317711381,0.0015360504133083742,0.002158176036041732,-0.055391507825942966,-0.08591327404846677,-0.00026158580646613134,-0.09624591,-0.14250006,-9.81045126,0.002949,0.000175,0.004079,0.14038023268634733
1758011626.8705726,0.10706909266122289,0.3753740384438384,-0.007177313830510013,0.001245004274344302,0.0019888618803310817,-0.05529106926544474,-0.0856842217334469,-0.00020006771539402707,-0.07693983,-0.16750575,-9.80476146,0.004456,0.000555,0.00501,0.13958016425002767
1758011626.8924432,0.10758562969188654,0.3771296429070477,-0.007216813811295353,0.0025023046865577316,0.0037097169561764844,-0.05517779351889471,-0.08543720668108165,-0.00015154880460196458,-0.09550035000000001,-0.16525926000000002,-9.85266369,0.002176,-0.001059,0.004817,0.14382039914756767
1758011626.9138155,0.10807637889518706,0.3788369156412741,-0.007307016375548425,0.0029431117960049278,0.0043425794231172375,-0.05506212528660853,-0.08519140643330902,-0.00010826644256455617,-0.09430353000000001,-0.17872839,-9.808803180000002,0.001865,0.000526,0.00323,0.14444107301871653
1758011626.9344141,0.10852563128325544,0.3804749403723703,-0.007348919857895986,0.0015778233457293001,0.0023610059631549198,-0.05493028577281105,-0.08492209385513798,-0.0001642865965747844,-0.09430353000000001,-0.17872839,-9.808803180000002,0.001865,0.000526,0.00323,0.14022464031056256
1758011626.9567385,0.10901178957695426,0.38216407284300463,-0.007404269745800995,0.0020789142405323894,0.0032296147974634915,-0.05475657722304249,-0.08459273087596478,-8.272516918248374e-05,-0.08023599000000001,-0.14280417,-9.836496810000002,0.00378,0.000392,0.00264,0.14270171715027105
1758011626.9777935,0.10994095437647942,0.38544763975687135,-0.007487066294316946,0.0012481384270278267,0.0019325538247871752,-0.05456007628285764,-0.08414590046287813,-0.00014964347589639337,-0.09205704,-0.15193728,-9.76972995,0.004716,0.001842,0.004526,0.13990645257409945
1758011626.9981737,0.11041521534729684,0.38708377534204197,-0.007531678937148456,0.001190042870585728,0.0022469179788970756,-0.05445455176566767,-0.08388861121529642,-0.00012481287714474935,-0.07184844,-0.16002072,-9.839940120000001,0.002552,2.3e-05,0.004514,0.14035713166170616
1758011627.0186665,0.11087472435342102,0.3887090199480639,-0.00758884211405686,0.0014750756412910725,0.0022425030873673485,-0.0543347900912943,-0.08363552331882994,-4.337053811111792e-05,-0.10583028000000001,-0.17603064000000002,-9.77960862,0.004033,-0.00121,0.005474,0.14033826244277137
1758011627.039515,0.11133470783223318,0.3903232546616008,-0.0076538311524529945,0.0015788575532938668,0.0022957137431600856,-0.05420289362519884,-0.08337045963345902,-0.0001285707408696886,-0.09700128,-0.16585766999999998,-9.85340925,0.002854,-0.002855,0.002817,0.14059025483918097
1758011627.0596879,0.11179241535876018,0.39192434048480557,-0.007712705745672288,0.001496909178148897,0.002194803613485121,-0.05408196383825272,-0.08312050053428599,-0.00012372789914683155,-0.09340101,-0.16361118,-9.77632227,0.002664,0.000162,0.004207,0.14045936117030453
1758011627.0802624,0.11224806946218834,0.39351684994103747,-0.007769465405912168,0.0014848115692387427,0.002150372666415316,-0.053956715278935426,-0.08286615284772947,-6.3239444828953e-05,-0.09445068,-0.15402681000000001,-9.839783160000001,0.003327,0.000648,0.005123,0.14067975567732455
1758011627.1008818,0.11270115315111577,0.3950958772818841,-0.007826343159404114,0.0013623485723552467,0.0020554059659178966,-0.05384240451157544,-0.08262285936059312,-0.0001496206796615171,-0.08906499000000001,-0.15193728,-9.81808344,0.004314,0.000728,0.002773,0.14062101154985823
1758011627.1212976,0.11314753984384775,0.39666116975939997,-0.007880976474847312,0.0014562428823413972,0.002159443611313371,-0.053719119628753594,-0.08236859596560205,-7.430936321826857e-05,-0.09400923,-0.16361118,-9.822272309999999,0.004019,-0.000562,0.005338,0.14080386244685508
1758011627.1417465,0.11359320253275391,0.398217835128726,-0.007938109584317843,0.0013703800482380226,0.002035306876815635,-0.053604220002391144,-0.08212666109705362,-7.287658117740276e-05,-0.09220419,-0.15103476000000002,-9.81808344,0.002472,-0.000384,0.004205,0.14075604409097814
1758011627.1626122,0.11403791326292835,0.3997596292658232,-0.007986637160980692,0.001292056581789334,0.0021741419909930017,-0.05348951477880953,-0.08186937330749465,-4.087373367046496e-05,-0.08023599000000001,-0.1562733,-9.81059841,0.00384,-0.001437,0.004704,0.14098904312086885
1758011627.1829336,0.11447614749634724,0.40129360732872765,-0.00804174409112246,0.001244977669832031,0.0019715945527913102,-0.05338458166876242,-0.08163569884780039,4.395095585450099e-05,-0.09325386000000001,-0.14938668000000002,-9.82661814,0.003157,-0.000848,0.005608,0.14078147288877885
1758011627.2032835,0.11491016543419963,0.40281658188247493,-0.00809800027085883,0.0013637560729606662,0.002024677586830807,-0.0532679321148694,-0.08139162249738809,5.55315341072558e-05,-0.09550035000000001,-0.15538058999999999,-9.81119682,0.003614,0.000434,0.004489,0.14103212662146222
1758011627.2238123,0.11533998816420342,0.4043296928710539,-0.008159733214795128,0.001421694367712119,0.0019008267074373413,-0.053151515556221614,-0.0811600072648378,3.2409771028760865e-05,-0.1038879,-0.15297714,-9.78964425,0.004224,-0.001001,0.003932,0.14097116286528869
1758011627.243989,0.11576777682031174,0.40583092874075466,-0.008213958445046021,0.001496785959794979,0.0019739373609298774,-0.05302325449524094,-0.08091471140332396,0.00016726105776204356,-0.09849240000000001,-0.15328125,-9.84637548,0.001919,-0.000634,0.006479,0.14127822129920775
1758011627.2640705,0.11619550764751323,0.40731676777273607,-0.008266591233685006,0.0012897446931029433,0.001998740295828787,-0.05291658636888549,-0.08068103148305927,0.00011938900325958748,-0.07948062,-0.16061913,-9.787996170000001,0.002205,-0.000311,0.003638,0.14103034415698334
1758011627.2849557,0.11661543744730613,0.4087956690877851,-0.008326350240774438,0.0014613517330383675,0.002087446124445827,-0.05279424264146747,-0.08043387668045691,0.00010741542080049575,-0.09864936,-0.16241436,-9.850417199999999,0.002298,0.000687,0.00418,0.14130299447781708
1758011627.305776,0.11703763224389628,0.41026228847929375,-0.00837886329326265,0.0012952840249325322,0.0020707998829201713,-0.05268679699547245,-0.08019568951692234,0.0001289216735391564,-0.08143281,-0.15897105,-9.80222067,0.00322,-0.001397,0.004716,0.14118380943684466
1758011627.326247,0.1174545673240393,0.41172339848861894,-0.008435399412721534,0.0013523015615993018,0.0020222408658845926,-0.052571560886746804,-0.0799535641987885,0.000113621051895941,-0.09490194,-0.15148602000000003,-9.81014715,0.003967,0.000364,0.004135,0.14141435893004559
1758011627.3471541,0.1178693289979316,0.41317014314163175,-0.008488700188686416,0.0012939074690474018,0.002019901567986342,-0.05246334136203496,-0.07971708826965995,1.843902992394958e-05,-0.08726976,-0.15866694,-9.82122264,0.003708,0.000472,0.00281,0.14135306252797117
1758011627.3676672,0.1182806626105967,0.41461129043331013,-0.00854743249672918,0.001335700259030997,0.001965900500222516,-0.05234770536461752,-0.07947658315138735,-2.2268740379057674e-05,-0.09475478999999999,-0.14789556,-9.79069392,0.003432,-0.000738,0.003612,0.14160094391700023
1758011627.3882864,0.11868956299060515,0.416038834666749,-0.008601617934993921,0.0012503325307988945,0.0018933944374147102,-0.0522432610481648,-0.07924967776877362,-1.5344339407603105e-05,-0.08921214,-0.15282999000000003,-9.853860509999999,0.002925,0.000675,0.004347,0.14143573959646302
1758011627.4085505,0.11909701433556791,0.41745536313977083,-0.008652801235985219,0.0012260117422243197,0.002016849974606782,-0.05213815491966036,-0.07901251301006434,-5.924913687991909e-05,-0.08292393,-0.15792138000000003,-9.812246490000001,0.003107,0.000382,0.003522,0.14159201991315049
1758011627.429458,0.11950113262805086,0.41886140381418374,-0.008700448577285691,0.0012065756698850562,0.0021028254864685096,-0.05203417665009097,-0.07877040373756711,-9.351672971948986e-05,-0.08143281,-0.16121754000000002,-9.83185668,0.002176,7.7e-05,0.003636,0.1416661926568168
1758011627.4512773,0.11990467943683858,0.4202750730039182,-0.008746208055653959,0.002227677109128502,0.0030864589727457718,-0.05188917485996316,-0.0784833318902502,-9.48545607812566e-05,-0.10523187,-0.15582204,-9.796530870000002,0.004145,0.000262,0.00539,0.14421730704264935
1758011627.4761844,0.1203096994427215,0.4216757902115305,-0.008800759419348214,0.0024912328814455887,0.0033998425695465936,-0.051791759652185715,-0.07827401063481089,-2.01551914588264e-05,-0.09475478999999999,-0.14759145,-9.8361927,0.004145,0.000262,0.00539,0.14574266638528943
1758011627.4951653,0.12106856468066342,0.42438825242825967,-0.00893827487496246,0.0014045016409782558,0.0019998605871658012,-0.05156730399490121,-0.07781444613176847,8.100375330439587e-05,-0.09310671,-0.16825131000000002,-9.79802199,0.004977,0.000104,0.004808,0.1418427346135225
1758011627.5160897,0.12145845135445131,0.4257493370304465,-0.008993745366986605,0.0013838783385270114,0.002028541920387938,-0.05145460116045647,-0.07757940307841099,0.00010406148792116055,-0.09086022,-0.16121754000000002,-9.831552570000001,0.002988,-0.000849,0.004715,0.1419454759748214
1758011627.537129,0.12184178040024202,0.42709928716494905,-0.009053378973655324,0.0015070109795790921,0.0021100127493820747,-0.05133449018082535,-0.07733925001144544,7.844718825173654e-05,-0.09849240000000001,-0.17303859,-9.82646118,0.001696,-0.00036,0.00394,0.14203039549825236
1758011627.5571651,0.12187991356590781,0.4271526785913019,-0.009082409358713406,0.003155689543679386,0.004280198159669435,-0.05133449018082535,-0.07733925001144544,7.844718825173654e-05,-0.09684432000000001,-0.16690734000000002,-9.796678020000002,0.002767,-0.000314,0.003187,0.1472567063004885
1758011627.5781858,0.12260247701536058,0.42977254764527206,-0.009182449468884357,0.0013828541773610488,0.0019211053389438669,-0.05109093638264907,-0.07685792101313738,3.51313838394242e-05,-0.09415638000000001,-0.15492933000000003,-9.835299990000001,0.00214,-0.001454,0.004719,0.14192672145568105
1758011627.598568,0.12298363818029415,0.4311028193975006,-0.009249011461213374,0.0013701071509439596,0.0018732034109800151,-0.05097433607813094,-0.07662589608102145,-5.40898950728513e-05,-0.09475478999999999,-0.14369688,-9.787996170000001,0.005042,-0.000556,0.002843,0.14238318931154506
1758011627.6192498,0.12336159429914947,0.43241887105918064,-0.00929974457493321,0.0011968514649752056,0.001768775531757104,-0.050876158390989135,-0.07641194423326599,-0.00014512072123570776,-0.08622009,-0.14954364,-9.832150980000002,0.001774,-0.000961,0.002708,0.14212157282033358
1758011627.640908,0.12373547582812451,0.43372454803177185,-0.009344831439664247,0.001296347828234189,0.001997643991157696,-0.05076015358341324,-0.07616663388927479,-7.599536147770796e-05,-0.08786817,-0.15507648,-9.81269775,0.00505,0.000623,0.005225,0.14267117574995733
1758011627.6609175,0.12410484900237366,0.4350213025260855,-0.009400630993352976,0.0012137036704203401,0.0018063625372523608,-0.05066347139657748,-0.0759544492060114,-4.271369191182566e-05,-0.09445068,-0.15942231,-9.8128449,0.003486,0.001013,0.004726,0.14216753181475808
1758011627.6812644,0.12447781647126724,0.4363091764872107,-0.009447716062791045,0.0011614509894797291,0.0020450647856556027,-0.05056315349607861,-0.0757184910267422,-7.771263864466351e-05,-0.07603731000000001,-0.16002072,-9.826912440000001,0.003688,-0.001375,0.003642,0.14253008112819882
1758011627.7016397,0.12484569478953957,0.43759113056802124,-0.009492431550266467,0.0011241084532891336,0.0019710387438551004,-0.050468190725168664,-0.07549257589984565,-0.00017101393066526555,-0.08412075,-0.15657741,-9.80790066,0.002795,0.000356,0.002647,0.14245398826958694
1758011627.7226427,0.1252067217056668,0.4388646425618297,-0.009550810659634923,0.0013246302058984641,0.002047410457727137,-0.05035716608574814,-0.07525468777193364,-0.0002896855088914494,-0.0953532,-0.16435674000000003,-9.83470158,0.00234,-0.000965,0.00215,0.14272182170353465
1758011627.7433293,0.12557019909994377,0.44013337441306977,-0.009603778514879036,0.0012033331175892506,0.0018048112841737808,-0.050257793358961134,-0.07503827505272964,-0.00025471020018707076,-0.09190989000000001,-0.14309847,-9.808499070000002,0.003068,-0.000277,0.00454,0.14259133488637102
1758011627.763786,0.12592971783615584,0.4413895461850091,-0.009658124302897697,0.0012542791200597905,0.0019156897925918465,-0.05015345745425396,-0.07481241378501738,-0.00033843089592978037,-0.08906499000000001,-0.16076628,-9.83095416,0.003616,-0.000545,0.00263,0.14275847556841986
1758011627.7845669,0.12628289610897592,0.44264210020308226,-0.0097187191886845,0.0014139161794146482,0.0017837587785288131,-0.05004045814167694,-0.07459492521028543,-0.0002678407163002241,-0.10912644,-0.15492933000000003,-9.83320065,0.003626,-7.8e-05,0.005074,0.14280918284827987
1758011627.8053927,0.12664057845725482,0.4438773263219692,-0.009762956467118666,0.0013444204147257234,0.0020739660379679725,-0.04992179593593293,-0.07434613902487959,-0.00020039580369904627,-0.08098155,-0.16076628,-9.80790066,0.003626,-7.8e-05,0.005074,0.1432394257211569
1758011627.8262951,0.12699079901728708,0.44510739338011207,-0.009816531592437006,0.0012344680065360372,0.001857675736417954,-0.04982482894302973,-0.07413334359087928,-0.0001758899068369091,-0.09295956000000001,-0.1619631,-9.83709522,0.003642,0.001414,0.004457,0.1427216298075068
1758011627.8464444,0.12734199905722846,0.4463305123017283,-0.00987331076811282,0.001288706484068617,0.0020640200381231858,-0.04971554992556965,-0.07389442466262426,-0.00027537477509524287,-0.08487612,-0.16241436,-9.807459210000001,0.004013,-0.0001,0.002467,0.1431787671227179
1758011627.8666475,0.12769155016472733,0.44755022903143415,-0.009922974562732279,0.0011347802734778334,0.0017755875185571839,-0.04962281185795382,-0.07368466039754826,-0.00027332947106743023,-0.08981055,-0.14309847,-9.81688662,0.002581,-0.000738,0.004014,0.1429017805491798
1758011627.8867283,0.12803343736155148,0.4487576706505406,-0.009977182769499215,0.0013762442182117924,0.001999056404631617,-0.04950883930836748,-0.073450759287783,-0.00026892865888691826,-0.09564750000000001,-0.16870257000000002,-9.81404172,0.001262,-0.001173,0.004054,0.14329978971086524
1758011627.907197,0.12837567004467765,0.44996297847497546,-0.010035917617553292,0.001336296802495611,0.0017404839841545243,-0.049404087666517826,-0.07324127726119485,-0.0002601961663093628,-0.10343664,-0.14923953,-9.81389457,0.004469,-0.00063,0.00413,0.14310413069858732
1758011627.9277892,0.1287147072905757,0.4511589228875086,-0.010096438798003149,0.0014670988505659619,0.00181418562441993,-0.04928475390792517,-0.07301881326003372,-0.00021635292870932082,-0.10178856,-0.15806852999999998,-9.83379906,0.003334,-0.000208,0.004708,0.14343641461093906
1758011627.9481857,0.12905404788335728,0.4523432242079175,-0.010153450364207561,0.0013386353386228384,0.0018444513673422128,-0.049180370320517044,-0.07280464184986668,-0.00017421657686177673,-0.08801532000000001,-0.16600482,-9.78574968,0.003925,0.000297,0.00473,0.14323765428394258
1758011627.9689481,0.12938843197168926,0.4535213255630902,-0.010210735275121063,0.0014793280150137502,0.0019924565486725775,-0.04906194541672043,-0.07257390742397136,-0.00014512428693726066,-0.09744273000000002,-0.16930098,-9.83425032,0.002711,-0.000798,0.004555,0.1435370925747327
1758011627.9898198,0.12972400654097735,0.4546928921990042,-0.01026593140152654,0.0013445582862224202,0.0019053467305252564,-0.048957310915564385,-0.07235676735571221,-0.00011600682637926908,-0.08981055,-0.16165899,-9.81688662,0.004014,0.000597,0.004588,0.1433824298417662
1758011628.0148687,0.1300841677889201,0.45589609053608554,-0.01029715850156565,0.0021335618980749963,0.0034093041610854078,-0.04885476787089836,-0.07213677693028363,-8.063901422098711e-05,-0.08277678,-0.15538058999999999,-9.81418887,0.003542,-1.6e-05,0.005172,0.14755596380651248
1758011628.032339,0.13039334925822424,0.45701731706661225,-0.010363134801634644,0.0011651203889486744,0.001885727648924285,-0.04875816498913212,-0.07191837691766638,-1.9841854675636506e-05,-0.08277678,-0.15538058999999999,-9.81418887,0.003542,-1.6e-05,0.005172,0.14359475113321243
1758011628.0531669,0.1307434347388569,0.45819988126342526,-0.010406674188642828,0.002263954676270357,0.003371267311303644,-0.04865272370538036,-0.0716787374504695,-1.8540788877646674e-05,-0.09834525,-0.16705449,-9.84382488,0.003161,-0.000261,0.004267,0.1474379326285487
1758011628.0732715,0.13107165234012597,0.45934523693947454,-0.010444653633963963,0.002144210945537808,0.0033890314815610265,-0.04855360361505184,-0.07146367248192209,-1.6720460290419846e-05,-0.08397360000000001,-0.15313410000000002,-9.81299205,0.002042,-0.001345,0.004897,0.14780846515653873
1758011628.0954764,0.13170032432668838,0.46157460402875816,-0.010547473113121875,0.0010633424375508203,0.0018630212101490298,-0.048367409485745944,-0.07103222390518475,2.8195270154551186e-05,-0.07873506000000001,-0.15492933000000003,-9.81464013,0.004973,-0.002679,0.004355,0.14383046454999554
1758011628.1158662,0.13170032432668838,0.46157460402875816,-0.010547473113121875,0.0010633424375508203,0.0018630212101490298,-0.048367409485745944,-0.07103222390518475,2.8195270154551186e-05,-0.07873506000000001,-0.15492933000000003,-9.81464013,0.004973,-0.002679,0.004355,0.14383046454999554
1758011628.1360495,0.13233400318883967,0.4638039266210918,-0.010672601814404103,0.0010564200129175652,0.0016876279031780492,-0.04817197388363353,-0.0705864037294521,-8.681667113283602e-05,-0.09520605,-0.16121754000000002,-9.80550702,0.003834,0.000986,0.004866,0.14354541240392008
1758011628.1588397,0.13265239525671835,0.46491498276333154,-0.010719675025012254,0.001171537167193681,0.0018577003133333305,-0.04807296528693998,-0.07036667273067244,-8.275368555942262e-05,-0.08741691000000001,-0.15433092,-9.82676529,0.002767,-5.8e-05,0.004235,0.1442198104186454
1758011628.179141,0.13296847002432366,0.4660196468680289,-0.010767337982907854,0.0010918695131428796,0.0016655389725279256,-0.04798482305320899,-0.07016781873788883,-0.00010380488924968689,-0.09116433,-0.14849397,-9.80222067,0.003768,-0.000712,0.003827,0.14397925151163382
1758011628.1992757,0.13328046209905758,0.4671145586684478,-0.01080804262650581,0.0012487443482179432,0.0018659338997962902,-0.04788200252895362,-0.06994889722098287,6.17771279684066e-05,-0.09100737,-0.16495515000000002,-9.824371650000002,0.001047,-0.001197,0.006854,0.1443412745300927
1758011628.2196455,0.13328046209905758,0.4671145586684478,-0.01080804262650581,0.0012487443482179432,0.0018659338997962902,-0.04788200252895362,-0.06994889722098287,6.17771279684066e-05,-0.09100737,-0.16495515000000002,-9.824371650000002,0.001047,-0.001197,0.006854,0.1443412745300927
1758011628.2407038,0.13389125125335538,0.4692691435178915,-0.010901148252056903,0.0010385083256678185,0.0016847240069672916,-0.047668617264414535,-0.06948941197988666,-4.927500044213421e-05,-0.07888221,-0.15986376000000002,-9.807302250000001,0.004235,-0.000153,0.003105,0.14388535313303474
1758011628.261256,0.13419929580037188,0.470347473347469,-0.01095340222340413,0.0011016261729463973,0.0016753886847303378,-0.047585405561995225,-0.06929837163080775,2.383675990463159e-05,-0.09295956000000001,-0.15986376000000002,-9.82661814,0.001943,7.8e-05,0.005414,0.14400500730098323
1758011628.281675,0.13450808440669768,0.4714201021909636,-0.011004742421207414,0.001164243947331524,0.0018422817721688348,-0.04748913110139328,-0.06908332763367522,-4.737058497040515e-05,-0.08547453,-0.15701886,-9.80505576,0.002944,-0.000448,0.003114,0.14456959265497019
1758011628.3021863,0.1348123005419078,0.47248968528908925,-0.011057709642636304,0.0011696194033303246,0.0015907707691971658,-0.04739635901317575,-0.06888778922374088,-4.733681426130642e-05,-0.10148445,-0.14474655,-9.8245188,0.003706,0.001048,0.004209,0.14445607390145657
1758011628.322722,0.1351139537375917,0.4735448070985969,-0.011108322263640336,0.0012908163655893886,0.001863557521152638,-0.04728928137610381,-0.06866650437284615,-3.3191613534869313e-05,-0.08921214,-0.16615197,-9.80760636,0.00371,-0.000299,0.004439,0.14486839657521838
1758011628.3430676,0.1354155383362565,0.47459516704606847,-0.011157059116052359,0.001147702182910447,0.0017765562930052042,-0.04719879444398603,-0.06846320504708485,4.3804008029640825e-06,-0.08382645000000001,-0.16121754000000002,-9.80954874,0.003653,-0.00054,0.004842,0.14457066364494386
1758011628.3633618,0.13571428260617244,0.47564191127595784,-0.011209466894443132,0.0012443013806139249,0.001867261728760717,-0.04709526070538453,-0.06824308565335234,-3.606678040945444e-05,-0.09056592000000001,-0.1588239,-9.83065986,0.003165,0.000207,0.003601,0.1449912704568619
1758011628.3840137,0.13601294756140234,0.4766817393794585,-0.011258626868625665,0.001097262925416892,0.001714937670121225,-0.04700724124937701,-0.06804307475123178,4.1232056517645335e-05,-0.08502327,-0.15313410000000002,-9.795334050000001,0.004441,-0.000623,0.005493,0.14472605681605624
1758011628.4049613,0.13630969241042573,0.4777184474976566,-0.011307200180929122,0.0011375862438423047,0.0017148518752609467,-0.0469117652842753,-0.06783501347601667,3.3952425140515365e-05,-0.09011466,-0.15014205,-9.834397469999999,0.003734,0.000516,0.004178,0.1450531143488351
1758011628.425976,0.13660422173082407,0.47874863996361794,-0.011356700910582163,0.0011045724864257088,0.001600623057270506,-0.046820794901519504,-0.06763743173575446,1.3240476166561244e-05,-0.09205704,-0.14759145,-9.81987867,0.002401,0.001271,0.00395,0.14500257680443743
1758011628.446026,0.13689414041386713,0.47977147540728315,-0.011410993974122263,0.001237432692103928,0.0016656941909508434,-0.04671752491755752,-0.06742959999640823,9.975064392470741e-06,-0.09640287000000002,-0.15462522000000004,-9.82062423,0.004217,0.000116,0.004216,0.145300020508151
1758011628.4661412,0.13718386889943457,0.48078715619211104,-0.01146142425400809,0.0011596351878819001,0.0015695933360507697,-0.04662711211092179,-0.06723865401506916,-2.8627703440914583e-05,-0.09325386000000001,-0.15582204,-9.835299990000001,0.003015,-0.000393,0.003631,0.14500091795672101
1758011628.4870877,0.1374707958155052,0.48179858792485136,-0.011514462526329705,0.0013007270001282338,0.0016680208543875033,-0.04652170673595061,-0.0670329408923403,2.201690838673308e-05,-0.09789399,-0.15687171,-9.80281908,0.003753,0.00096,0.005052,0.14539676681051775
1758011628.50746,0.13775834264590026,0.482804840602431,-0.011569032897663867,0.0011914974936442987,0.0015318138441919077,-0.04642850789199504,-0.06684274895197713,3.231822278918718e-05,-0.09460764,-0.14878827,-9.80820477,0.004339,-0.000886,0.004447,0.14520818902702873
1758011628.5280707,0.13804409456096034,0.48380556626183974,-0.01162589894747823,0.0012323068572290174,0.0015799743419547011,-0.046328419415433135,-0.06664411056128024,6.024733317033336e-06,-0.09504909,-0.15148602000000003,-9.80655669,0.003009,-0.00033,0.003859,0.14549226616618516
1758011628.548038,0.1383259099472915,0.48479912571346906,-0.011684215756170513,0.0012613457226571506,0.0015459645552156228,-0.046231602104974984,-0.06645353385150095,0.00010736155391940644,-0.10059174,-0.15897105,-9.82122264,0.003868,-0.000933,0.005927,0.14536543363397839
1758011628.5682318,0.1386081035303135,0.4857855973602763,-0.011737254385974616,0.0013039760115635731,0.001703108746506474,-0.04612650759408015,-0.06624693898188455,0.0001430864375549749,-0.09236115,-0.16016787000000002,-9.80954874,0.003118,0.000206,0.004945,0.14569530972047906
1758011628.5887516,0.13888903132991115,0.4867659606728613,-0.011787590093850664,0.0012049033805655285,0.0016909722498465777,-0.04603260490220147,-0.06604882354613624,0.00012424497385831937,-0.08801532000000001,-0.16151184,-9.807007950000001,0.003114,-6e-05,0.00409,0.14553781253039724
1758011628.609119,0.13916422304963957,0.4877417507812686,-0.011848494763097683,0.0013818940973179198,0.0017917918535047415,-0.04592335817326272,-0.06583766855975175,5.64999450059667e-05,-0.09550035000000001,-0.16091343000000002,-9.791135370000001,0.003795,0.000519,0.003398,0.14585024248170084
1758011628.6293564,0.13944068240434035,0.4887123852189616,-0.01190098540319795,0.0012853716618584478,0.0016686375039045218,-0.045827197115494045,-0.0656434823954078,8.14356175498867e-07,-0.09550035000000001,-0.16091343000000002,-9.791135370000001,0.003795,0.000519,0.003398,0.14561202235939882
1758011628.6514053,0.13972902599613282,0.48969202968773956,-0.01197577426912666,0.0018811345828103072,0.0026269364076273987,-0.045707841025431864,-0.06540847854573031,-0.00011559724345849014,-0.09325386000000001,-0.16914402,-9.80969589,0.003422,-0.001192,0.004116,0.14834170577311467
1758011628.672023,0.13998629781012448,0.4906280571237899,-0.012024133809817261,0.0011155781801305247,0.0015802536438875511,-0.0456272926814225,-0.06522873806368408,-0.00011707004093877313,-0.09325386000000001,-0.16914402,-9.80969589,0.003422,-0.001192,0.004116,0.14540727654203953
1758011628.6945143,0.14052979035459987,0.4925377661802235,-0.012126118411871722,0.001221521477505804,0.0015004917910147195,-0.04543747531134624,-0.06484109239197108,-0.00022085242041673363,-0.10478061,-0.15103476000000002,-9.82631403,0.00361,-0.000229,0.002378,0.1458644228397807
1758011628.7156305,0.14079801512668522,0.4934846003486633,-0.012186852564683548,0.0013455039069965602,0.0015492811758444631,-0.04533430309029896,-0.06464898851372998,-0.0002305588642202983,-0.10298538000000002,-0.15822549000000002,-9.808351920000002,0.003871,-0.00084,0.003876,0.1461492956231031
1758011628.7366185,0.1410673640950659,0.4944236602692297,-0.012242150637582494,0.001266801287250085,0.0015943742720107763,-0.045237332370857045,-0.06445699182801302,-0.0002366023531562017,-0.09160578000000001,-0.16016787000000002,-9.832307940000002,0.003655,-0.001589,0.003926,0.14614916716033327
1758011628.7574575,0.14110058214649365,0.49446546793637985,-0.012197238198118132,0.0024895075914705676,0.0034780681214181515,-0.045237332370857045,-0.06445699182801302,-0.0002366023531562017,-0.0865242,-0.15971661,-9.81373761,0.004595,-0.000341,0.005732,0.15156297195513516
1758011628.7778435,0.14160077918912983,0.4962827332701558,-0.012330426483983636,0.0010765108266649578,0.001564209613186376,-0.04504776661960311,-0.06405640856115746,-9.556803482350739e-05,-0.08816247,-0.15358536,-9.81404172,0.003247,4.6e-05,0.004697,0.14609139300517915
1758011628.7988834,0.1418632715905936,0.4972092967068565,-0.01237850327416501,0.001227382170337337,0.0016042515185163311,-0.04495069092114539,-0.06386143439008253,2.3947807206757484e-06,-0.09834525,-0.1562733,-9.82856052,0.002416,-0.001376,0.005759,0.14648598554578746
1758011628.8198884,0.14212638541155606,0.49812822790078326,-0.012429495263327706,0.0011624214359284375,0.001583280963304059,-0.04486106372838242,-0.06367298450729098,3.6038688300282116e-05,-0.09040896000000001,-0.15897105,-9.80101404,0.003102,-0.00019,0.004811,0.1463839073370352
1758011628.8402746,0.14238680350449404,0.49903975996985556,-0.012472610564195019,0.001254395097522316,0.00178648441216125,-0.04475950359688489,-0.06346382438471203,0.00011610686764241832,-0.08935929000000001,-0.16585766999999998,-9.82032993,0.003596,0.000162,0.005592,0.1467813360946295
1758011628.8609915,0.14264645599621137,0.49994832902987696,-0.01251962100445203,0.0011423159215937938,0.0016380033249778414,-0.04467236720795558,-0.06327480827151681,9.310405980282417e-05,-0.09011466,-0.15897105,-9.811795230000001,0.003557,-0.000281,0.003994,0.14648095144021292
1758011628.8818285,0.14290822409810972,0.5008567167575341,-0.012573423464950828,0.001096468330666148,0.0016016978278423559,-0.04458074106320809,-0.06307780998249968,4.420314464828636e-06,-0.08786817,-0.14564907000000002,-9.80775351,0.002369,0.001149,0.002907,0.14688958794079082
1758011628.9027793,0.1431658993773736,0.501754427227409,-0.012615739040141793,0.0010218562933783685,0.0015840098932674864,-0.04449942155682462,-0.06289142197235956,-4.709872974961341e-05,-0.08412075,-0.16031502,-9.81194238,0.00225,-0.000101,0.003414,0.14664987069912433
1758011628.9237258,0.1434176974276949,0.5026527708704417,-0.012665080241520688,0.0012462395470492949,0.0015646321025413667,-0.044399638524534664,-0.06269730334382086,3.230229246745601e-05,-0.10328949000000001,-0.15478218000000002,-9.79847325,0.003477,0.000353,0.0055,0.1470365109807814
1758011628.9446554,0.14367246048696142,0.5035440779739455,-0.01271628120860413,0.0011293003754714178,0.0014319256041718045,-0.04431294246212507,-0.0625189321408908,-5.160030945646095e-07,-0.09370512,-0.14969079000000002,-9.82152675,0.003007,-6.3e-05,0.003749,0.14680197910383883
1758011628.9656234,0.14392773208452417,0.5044293744174336,-0.0127652693206457,0.0011067082599421861,0.0015525938439376308,-0.04422274307246419,-0.06232806785532619,-9.480939418606231e-06,-0.0865242,-0.15387966,-9.807302250000001,0.003617,-0.000272,0.004109,0.14711763615870252
1758011628.9858675,0.1441770396270685,0.505311254178642,-0.012818331753571943,0.0012026776259697015,0.001542606051778711,-0.04412551873370611,-0.06213566730490733,-3.3956193893413035e-06,-0.09789399,-0.15478218000000002,-9.81643536,0.003901,1.3e-05,0.004345,0.14728171962530792
1758011629.0058897,0.1444289660730327,0.5061855713268623,-0.012864585406595186,0.0010625417495225308,0.0015451031591288567,-0.04404109479406677,-0.06195030236200019,-8.567483682907304e-06,-0.08292393,-0.15642045000000002,-9.824371650000002,0.004371,-0.001257,0.004168,0.14712181700271068
1758011629.0268607,0.14467723221432008,0.5070580259149392,-0.01291418187270077,0.0011078349959729305,0.001505336316666006,-0.043955869900053846,-0.06176923966804232,4.025208660489558e-05,-0.09550035000000001,-0.15732297,-9.80101404,0.003986,-8.7e-05,0.005049,0.14711800217986645
1758011629.0477352,0.14492728073327907,0.5079271596366254,-0.012961639946710068,0.001098694308995549,0.0015441587301603637,-0.04386460327022675,-0.06157718602640213,4.8251708760300676e-05,-0.08861373,-0.14893542,-9.818829,0.004218,-0.00033,0.004426,0.14752103242428924
1758011629.0682228,0.14517449108224179,0.5087881375253817,-0.013003040770676932,0.0010077279237374742,0.001509772706611657,-0.04378470187981227,-0.06139647674444227,-4.481636856075692e-05,-0.08487612,-0.15732297,-9.80206371,0.002994,-0.000397,0.002777,0.1472710821411221
1758011629.0887861,0.14541633987967714,0.5096433481325298,-0.013057104358862315,0.0012062083409506582,0.0017116786428485458,-0.043687715710819565,-0.061195428800955284,-0.000118682882583421,-0.0928026,-0.16705449,-9.80954874,0.002842,0.000293,0.003013,0.14768802062556924
1758011629.1097524,0.14565770667757486,0.5104963069167038,-0.01310755493542759,0.0012223927331026115,0.0016157306122601067,-0.04359506544007605,-0.061006910083403275,-0.00020805777012533123,-0.09759969,-0.16286562,-9.80775351,0.004185,0.000698,0.00268,0.14754197533662042
1758011629.130762,0.14592136432676173,0.5113730090427538,-0.013144251934665618,0.0018111608388280149,0.0026403791500712015,-0.043504815252068604,-0.06081733226038667,-0.00017340130072959927,-0.08502327,-0.15088761,-9.81045126,0.003027,3.7e-05,0.004698,0.15116131495114257
1758011629.151143,0.14614553216363768,0.5121914775503427,-0.013200206586144958,0.0010140787895081258,0.0014987815498848907,-0.04342559123242523,-0.06063915507374124,-0.00013594108749850927,-0.08502327,-0.15088761,-9.81045126,0.003027,3.7e-05,0.004698,0.14754292816059766
1758011629.1741817,0.14662920204800942,0.5138691863025747,-0.013280519324026852,0.0009397975113150108,0.0015120699800502879,-0.043267724919055076,-0.06027194343827043,-0.0001178427083316818,-0.08471916,-0.15792138000000003,-9.819427410000001,0.004933,0.000803,0.004045,0.14776150890958697
1758011629.1956937,0.14665248062844743,0.5139066399478917,-0.013291590971003853,0.002181122723536327,0.003210591608872731,-0.043267724919055076,-0.06027194343827043,-0.0001178427083316818,-0.09071307,-0.16330707,-9.81045126,0.004315,-0.001268,0.003691,0.15287393864371038
1758011629.216339,0.1471000707135492,0.5155242481447303,-0.013371342315964707,0.0010199688186832885,0.0015499891106818301,-0.043096313957533924,-0.0598938172380265,-0.00012978419674961538,-0.0865242,-0.16031502,-9.81239364,0.003824,-0.00057,0.004368,0.14780522754417172
1758011629.2397497,0.14733568933106958,0.5163507190866834,-0.013424591032182409,0.0011034950284152774,0.001569825894893701,-0.04300421320206219,-0.05970045842219838,-0.00019273942989352257,-0.09131148000000001,-0.14983794,-9.81808344,0.003256,-0.000543,0.003109,0.14838364625336672
1758011629.2607117,0.147567966303678,0.5171685606381585,-0.013469815228999149,0.0010542605818314164,0.001432415576034888,-0.04292491507439459,-0.05952873945682117,-0.0002197800442236365,-0.09490194,-0.15971661,-9.80086689,0.003089,-0.000307,0.003619,0.14794316694855167
1758011629.2817633,0.1477976360411001,0.5179881444478656,-0.013528585758515455,0.0012542920087084215,0.0014001770650947868,-0.04282760007438919,-0.05934940157610579,-0.00023029851398478728,-0.10568313,-0.15163317,-9.81,0.00263,0.000373,0.003865,0.1483943272925553
1758011629.3023696,0.148027642809029,0.5187987918495279,-0.013582166568167686,0.001214610034491159,0.0013646103455050088,-0.04273929073779418,-0.05917966129651254,-0.0002870495735569627,-0.09954207,-0.16046217000000002,-9.81434583,0.003609,0.000389,0.003093,0.14816836565201807
1758011629.3227632,0.148027642809029,0.5187987918495279,-0.013582166568167686,0.001214610034491159,0.0013646103455050088,-0.04273929073779418,-0.05917966129651254,-0.0002870495735569627,-0.09954207,-0.16046217000000002,-9.81434583,0.003609,0.000389,0.003093,0.14816836565201807
1758011629.3436332,0.1484799120086328,0.5203976594747487,-0.013701339877090657,0.0009776344275780392,0.001278399817442167,-0.04254636885422967,-0.058806065564535215,-0.0002863944012775961,-0.08517042000000001,-0.16016787000000002,-9.817033770000002,0.003547,-0.001304,0.004393,0.1480178722226657
1758011629.364434,0.14870931830116121,0.5211962437856449,-0.013743859083362508,0.000983345634713575,0.0013874728686636508,-0.042472892640985145,-0.05864004207908536,-0.00035351921333358317,-0.0865242,-0.15926535,-9.813590460000002,0.00301,0.00045,0.002867,0.14821275205889867
1758011629.3846958,0.148935375262203,0.5219911030985995,-0.013791262656354775,0.0011284751829868525,0.0015132194193943401,-0.04239055262566267,-0.058465275513250856,-0.0003825507321481657,-0.0953532,-0.16974243,-9.80969589,0.001944,-0.001278,0.003423,0.14841864052033868
1758011629.4047737,0.14915865114885296,0.5227889824697401,-0.013849934848752188,0.0013102004622800496,0.00148262905459326,-0.04228022447749246,-0.05827058693687914,-0.00037219457764583715,-0.10164141000000002,-0.14729715000000002,-9.81299205,0.003427,-0.000313,0.004039,0.14926991614277643
1758011629.425402,0.14938002409726586,0.523572972254806,-0.013891982038134465,0.0010848869251853532,0.0012643134221794455,-0.042203820159719595,-0.05811232120983972,-0.00044105010942942344,-0.09595161,-0.16061913,-9.808499070000002,0.003835,-0.000977,0.002748,0.14835832061494597
1758011629.445583,0.14960474477352495,0.5243597885000506,-0.013944283649267586,0.0011708921319888116,0.0013385119625523919,-0.0421127121402803,-0.05793863338231978,-0.0004013614842749519,-0.09700128,-0.14909238,-9.80206371,0.002895,0.000805,0.004462,0.14897953549988832
1758011629.46594,0.14982759534936813,0.5251389809748195,-0.013991597217840823,0.0010852922553559593,0.0013209844021370171,-0.04203240127015911,-0.05777343487780769,-0.00047656706603890205,-0.09220419,-0.15806852999999998,-9.81418887,0.003581,-0.000202,0.002613,0.14873826526086523
1758011629.4868739,0.1500476929005722,0.5259094482482508,-0.014048628498191551,0.001230626502729568,0.0016578627150504689,-0.04193470409389083,-0.057577970606719424,-0.0005484459727760533,-0.08921214,-0.16959528000000001,-9.82661814,0.003581,-0.000202,0.002613,0.14931447010053467
1758011629.5073729,0.1500476929005722,0.5259094482482508,-0.014048628498191551,0.001230626502729568,0.0016578627150504689,-0.04193470409389083,-0.057577970606719424,-0.0005484459727760533,-0.08921214,-0.16959528000000001,-9.82661814,0.003581,-0.000202,0.002613,0.14931447010053467
1758011629.530883,0.15026273606510188,0.5266483828872591,-0.01402600451092928,0.0012181291782614595,0.0021160803641924082,-0.04180185440243202,-0.05729184288747139,-0.00043032937537991456,-0.07739109000000001,-0.1588239,-9.80626239,0.004036,-0.000616,0.005471,0.15067950320751416
1758011629.5515728,0.1506895726091194,0.5281637712898699,-0.01410635210833755,0.0007965924692847232,0.0012486823441167812,-0.04167184040091307,-0.056969054875439976,-0.00042092891699468417,-0.08921214,-0.15447807000000002,-9.81269775,0.004208,0.000744,0.003141,0.14841665957314223
1758011629.5737119,0.15113055830285924,0.5296894223615053,-0.014181032002519522,0.0008039119588290242,0.0013297160753049499,-0.04155060831349443,-0.056661939823149474,-0.0003905222118482336,-0.08023599000000001,-0.15148602000000003,-9.819731520000001,0.001643,-0.000786,0.005002,0.1489397680028628
1758011629.5941775,0.1511496572072423,0.5297210130349614,-0.014133476758515506,0.001886020262674266,0.002689489242230332,-0.04155060831349443,-0.056661939823149474,-0.0003905222118482336,-0.09220419,-0.15522363,-9.817033770000002,0.004426,0.000169,0.005867,0.15383981527546833
1758011629.6147468,0.15156256888597816,0.5311991624346492,-0.014254569728172406,0.0009561668825361119,0.001416272511255994,-0.04139454422705418,-0.05631215049345629,-0.00028156493987512504,-0.0865242,-0.15926535,-9.81404172,0.003226,0.00094,0.003785,0.14940194795647557
1758011629.6361969,0.15158718851265432,0.5312356289773998,-0.014256842262824865,0.0021002889827720595,0.0029900563506339876,-0.04139454422705418,-0.05631215049345629,-0.00028156493987512504,-0.08921214,-0.15837263999999998,-9.81045126,0.003452,-0.0001,0.003886,0.15471545131623327
1758011629.6561794,0.15198507321849702,0.532688327299109,-0.014348833041946563,0.0011027766150269772,0.0014392613590998506,-0.04122524446451253,-0.05595253265263468,-0.00022938258747156402,-0.10014048,-0.16944813,-9.80865603,0.003381,-0.001126,0.004926,0.14951362686738992
1758011629.6781888,0.15219615410847348,0.533428999479864,-0.014397620711239956,0.00119654696088695,0.001541046309989929,-0.04113225843699301,-0.05576739543804651,-0.00022489613471670354,-0.09340101,-0.16061913,-9.81718092,0.003368,-0.000692,0.0041,0.15001306115247887
1758011629.6986327,0.1524064898475168,0.5341672118434369,-0.014448361622013017,0.00110500081042931,0.001365759831244294,-0.0410497612420965,-0.055598868158113664,-0.00013378493503318517,-0.09580446000000001,-0.15193728,-9.81718092,0.002278,0.000996,0.005536,0.14980775074640304
1758011629.7193012,0.15261591044874184,0.5349005189729961,-0.014499676887730573,0.0011404781263112144,0.0014300404307213655,-0.04096210761325825,-0.05542295138729446,-0.00017495368694482754,-0.09310671,-0.15866694,-9.80940159,0.002427,0.000575,0.003446,0.15006712519772736
1758011629.7397184,0.15282162507586536,0.5356315804202434,-0.014554666148285378,0.0011948634248161673,0.0013191231356397875,-0.04087601219157296,-0.05525788830571083,-0.00011030503742684364,-0.10568313,-0.1591182,-9.813139200000002,0.004922,0.000142,0.00515,0.14993399240767463
1758011629.760553,0.15302983798831196,0.5363605531830522,-0.014614456432539225,0.0012039603553148667,0.001321816631022217,-0.0407833383981273,-0.05508617096284151,-0.0001671565397420185,-0.09744273000000002,-0.15103476000000002,-9.820182780000001,0.003507,-0.000628,0.003215,0.15030212198478787
1758011629.7812057,0.15323417751516588,0.5370833840202538,-0.01467069603239457,0.0011827473907105432,0.0012586062044798014,-0.040698618362229336,-0.05492517541929929,-0.00011753217922528613,-0.10223982000000001,-0.15971661,-9.823626090000001,0.004057,0.000353,0.004909,0.15006051685403493
1758011629.8022292,0.15343899953679457,0.5378030209419247,-0.014738030052350748,0.0012540940049687325,0.0013708548571391063,-0.04060228247527007,-0.05475001991767488,-0.00023430134295680615,-0.09759969,-0.15747012000000002,-9.81449298,0.003528,-0.000687,0.002234,0.1505176779728737
1758011629.8225167,0.15364728315961754,0.5385153133311321,-0.01478187045101853,0.0009536986415429484,0.0014166166355153629,-0.04052898927968693,-0.05458232107057785,-0.00014970013985892433,-0.07035732,-0.15942231,-9.803417490000001,0.004656,2.2e-05,0.005417,0.15021539673281895
1758011629.8432739,0.15385192631827366,0.539228474562156,-0.014821902502995865,0.000995470171885283,0.0014760280589125332,-0.04044871144919589,-0.054404312767376645,-0.00013857064046491978,-0.08712261,-0.15582204,-9.81464013,0.002788,-0.000901,0.004288,0.15059469268871675
1758011629.86395,0.15385192631827366,0.539228474562156,-0.014821902502995865,0.000995470171885283,0.0014760280589125332,-0.04044871144919589,-0.054404312767376645,-0.00013857064046491978,-0.08741691000000001,-0.16002072,-9.79383312,0.005574,0.000863,0.003692,0.15059469268871675
1758011629.8846617,0.15424723407538102,0.540632232796865,-0.01492582113531693,0.0009409984318782149,0.001282118655537324,-0.04028001808161406,-0.05404126579583586,-7.915708375517268e-05,-0.09954207,-0.15507648,-9.81688662,0.004394,-0.001282,0.005501,0.15017752079157504
1758011629.9055743,0.15445051020998032,0.5413380635373743,-0.014971038437675332,0.0008746464346919839,0.0011861969957339292,-0.04021393921675665,-0.053889567152262514,-2.2729285217115515e-05,-0.08921214,-0.14340258,-9.82676529,0.003056,0.000113,0.00511,0.15029387473071137
1758011629.9265523,0.15465125598133916,0.5420324538644247,-0.015015201066975514,0.0009939154543317707,0.0015708622627430067,-0.040133168186261406,-0.05370551607892606,-8.756116124803464e-05,-0.08083440000000001,-0.16734879000000003,-9.81254079,0.003176,-2.8e-05,0.003178,0.15098645965799445
1758011629.9469645,0.15484971882808563,0.5427242043316021,-0.015044868309654014,0.0009547961775178597,0.0015862080220916158,-0.04006182496903312,-0.0535330561690259,-0.00019278521508013275,-0.08067744,-0.17782587000000002,-9.820182780000001,0.003248,-0.002373,0.002431,0.1506315503361616
1758011629.9675906,0.1550439488593035,0.543421114484116,-0.015082509983531889,0.0011914636483240978,0.0015337253737868878,-0.03997177154271189,-0.05335324058693543,-5.875988743687252e-05,-0.10193571,-0.16181595000000001,-9.831709530000001,0.002067,-0.001225,0.006252,0.15108638130808139
1758011629.9884286,0.15524461538724682,0.5441120960808461,-0.015125633980241027,0.0009590838310748889,0.0013804434137194646,-0.039898279812413,-0.05318800834636098,3.808762181702927e-05,-0.08143281,-0.14864112000000002,-9.80985285,0.004304,0.000101,0.005792,0.15089905191967531
1758011630.0105057,0.1554578630889822,0.5448269796144088,-0.015166330319916987,0.00192339171913067,0.0020243331424464237,-0.039813919366732925,-0.05302933904407215,2.7875339999232585e-05,-0.09774684000000002,-0.15612615,-9.81733788,0.001834,0.001259,0.005098,0.15474888480214785
1758011630.03104,0.1556336649173301,0.545491195288903,-0.015233198576599882,0.0010680789641145192,0.0011457438953707925,-0.039735215762110074,-0.05287573409635949,7.729420908293679e-05,-0.09774684000000002,-0.15612615,-9.81733788,0.001834,0.001259,0.005098,0.15105169209178632
1758011630.0540862,0.1560237957346734,0.5468447660995147,-0.015328606531455957,0.0008957786333824207,0.0012892236201767287,-0.0395785543846082,-0.05254675460978664,0.00018940244296539735,-0.0779895,-0.16002072,-9.819133110000001,0.00053,-0.000905,0.005961,0.15109478209243976
1758011630.0763135,0.15604678614698647,0.5468778543888387,-0.015349426905852948,0.002288806976362286,0.0032980912061511894,-0.0395785543846082,-0.05254675460978664,0.00018940244296539735,-0.08846658,-0.18231885,-9.839037600000001,0.00072,0.000953,0.003634,0.15639088899142067
1758011630.0969183,0.15640134537710557,0.5481755910163727,-0.015406277369612642,0.0010617200624850722,0.0016483143717356678,-0.0394127017156274,-0.05218261980336959,4.453345021318656e-05,-0.08203122,-0.18126918000000003,-9.84637548,-0.000475,-0.000219,0.002834,0.15123766427913482
1758011630.117777,0.15659161393869814,0.5488445947694505,-0.015449855101083987,0.0011642518924351332,0.0016902631663406728,-0.0393249992800665,-0.05199633895380305,1.3916108511057785e-05,-0.09056592000000001,-0.16734879000000003,-9.80445735,-0.001447,0.00185,0.003802,0.15174897455187325
1758011630.1380353,0.1567826839995958,0.549514924509455,-0.015495522011820473,0.001014759636359753,0.0012780626337785244,-0.03925043679580778,-0.05183896619591772,2.3774401432517212e-05,-0.09864936,-0.13801689,-9.78934014,0.001937,0.001209,0.004432,0.15149031117932016
1758011630.1585078,0.15697560129969299,0.5501882930978418,-0.015543328624538333,0.0009451183647197417,0.0009706157172772432,-0.03917384879404135,-0.051690939735694386,8.977008997586732e-05,-0.09954207,-0.12453795000000001,-9.77946147,0.003113,-0.001173,0.005357,0.15185941741400202
1758011630.1791952,0.15716525511026805,0.5508516729410234,-0.015593364625453798,0.0008804233439397457,0.0008626670656730577,-0.03910409934428297,-0.05155192841974289,4.9549604797859664e-05,-0.09759969,-0.13412232000000002,-9.819133110000001,0.003339,-0.000566,0.003684,0.15171094856577644
1758011630.2005858,0.15735487069813117,0.5515018744852045,-0.01563378072197308,0.0009006319748567669,0.00122707523858972,-0.039026287596889836,-0.05138569062390288,6.484740404749022e-05,-0.08157996,-0.15387966,-9.79682517,0.004734,0.00062,0.004552,0.15228390335001288
1758011630.2213194,0.1575398338836143,0.5521517187117302,-0.01567846078475421,0.0008670985189182431,0.0012089077239838455,-0.03896069010846095,-0.051234962942525025,0.00011705303414051314,-0.08861373,-0.16734879000000003,-9.81045126,0.003567,0.000356,0.00518,0.15169300051081658
1758011630.2422922,0.15772739260625507,0.5527961380710252,-0.015713224050804886,0.0009237523765888375,0.0015547918037415607,-0.03888353921098169,-0.05105284142226567,9.89665283878323e-05,-0.07753824,-0.16420959000000002,-9.81059841,0.003829,0.000767,0.004081,0.152392986994905
1758011630.2624407,0.15791221438181527,0.553439189805733,-0.01575020141461536,0.0008330418339190322,0.0014654398844854667,-0.03881998976555716,-0.05089146036722764,0.00016259497319466527,-0.07844076,-0.17064495000000002,-9.812246490000001,0.003377,-0.000391,0.005402,0.15186157938360956
1758011630.2828805,0.1580942825206874,0.5540874865737284,-0.015798712818212213,0.0010242342298355917,0.0014464889107540851,-0.0387393879143499,-0.050718671715476824,7.955202318789858e-05,-0.09475478999999999,-0.15642045000000002,-9.82542132,0.001626,-0.000572,0.003071,0.15244455689550404
1758011630.303867,0.15828130841288485,0.554733916546712,-0.01583492054212643,0.0007960516820596153,0.0011130812343834154,-0.03867558379910669,-0.050570682847600294,9.536667802399044e-06,-0.0868185,-0.12917808,-9.79562835,0.003435,9.2e-05,0.003185,0.15213977371671994
1758011630.3240216,0.15846123482960386,0.5553784244334053,-0.015888228897452894,0.0009945326139778634,0.0010470155913176822,-0.038596834611217566,-0.0504199585893059,-2.0239297187175782e-05,-0.10373094000000001,-0.14400099,-9.8387433,0.004919,-0.000723,0.003781,0.15255972208892815
1758011630.344475,0.15864302555732884,0.5560121655545983,-0.015934571531505348,0.000938215107803625,0.0011541037743194773,-0.038526815372909584,-0.05027075988002529,3.648030257754636e-05,-0.0868185,-0.16330707,-9.820477080000002,0.003663,-0.00036,0.005169,0.15230148815455186
1758011630.3651724,0.15882235749397372,0.5566420683282283,-0.015975020786397565,0.0010777104998408531,0.0014009867353705057,-0.03844483463737072,-0.05010288801782029,8.789243435661955e-05,-0.09026181000000001,-0.16839846000000003,-9.81404172,0.004008,0.000322,0.00513,0.15271463545053032
1758011630.3853762,0.15900435402448782,0.557271293548546,-0.016014830006545022,0.00093352333345961,0.0013611693298544894,-0.038374900248330256,-0.049943958769565734,0.00014957191937366144,-0.08143281,-0.15986376000000002,-9.837840779999999,0.003003,-0.00064,0.005358,0.15251063621132716
1758011630.4056094,0.15918413350031213,0.5578990768311132,-0.01605483388303819,0.000998280484363941,0.0014522192557025278,-0.03829453671132972,-0.049769838242163696,0.00013730158079765524,-0.08696565,-0.15806852999999998,-9.79802199,0.003604,-0.000415,0.004207,0.15303616181462845
1758011630.4263706,0.15936203787430248,0.55852555170264,-0.016093027542642524,0.0009091007535399486,0.0011749165141522384,-0.038227300547509065,-0.049621925232135086,8.58018682672002e-05,-0.09684432000000001,-0.14684589,-9.8216739,0.003665,-0.001083,0.003546,0.15256602895517438
1758011630.446515,0.15953291541657147,0.5591513440496294,-0.01615792893000778,0.001224573901013739,0.001210717488495917,-0.03813251876309122,-0.04945952258973861,3.888872600302194e-05,-0.1070271,-0.15507648,-9.79758054,0.003704,-0.00187,0.003587,0.15327980354231258
1758011630.4666352,0.1597119348126122,0.5597706307356265,-0.01620148993388959,0.0008733733879621067,0.0010484291056147186,-0.038067990903584634,-0.04931887334556978,4.0608453339513744e-05,-0.07813665,-0.14130324,-9.83095416,0.00326,0.000222,0.004323,0.15264805315217142
1758011630.4867551,0.15988687220567546,0.5603846823935269,-0.016252005119726576,0.0010317632840152334,0.001316423696927942,-0.03798974955329977,-0.049157733973947584,-5.204106207020204e-05,-0.09040896000000001,-0.16600482,-9.831552570000001,0.003527,0.000366,0.002787,0.15316570775161858
1758011630.5077877,0.16006438304789858,0.5609982471572424,-0.01629246298228404,0.0009067117226827541,0.0012937287175523544,-0.03792149556500906,-0.04900321057794287,3.305299708666908e-05,-0.08232552,-0.15806852999999998,-9.799817220000001,0.002597,-0.000724,0.005602,0.1530083377954142
1758011630.530086,0.1602530922418756,0.5616320363019801,-0.016361104331099163,0.0015559830330368414,0.002138839362873685,-0.037839868596816026,-0.048840100908745084,-5.280345017853211e-05,-0.08188407,-0.15612615,-9.801171,0.00538,0.001549,0.003189,0.15657243862480108
1758011630.551415,0.16041269731829036,0.5622202268399054,-0.016381113913793044,0.0008792511766989709,0.0012256950842783384,-0.037774290073268844,-0.0486909133832467,-0.00011442107039168315,-0.08188407,-0.15612615,-9.801171,0.00538,0.001549,0.003189,0.15308367090791702
1758011630.5736341,0.1607588525494721,0.5634339145017258,-0.01647558930855375,0.0008784334851991972,0.0011617387945238008,-0.03763105627206202,-0.048388597974075374,-0.00012117077193782264,-0.08576883000000002,-0.15926535,-9.80954874,0.002976,-0.000342,0.004938,0.15325964194461067
1758011630.594303,0.16078004987086414,0.5634619482128901,-0.016428863687685258,0.0017385963583789563,0.0027406750949643443,-0.03763105627206202,-0.048388597974075374,-0.00012117077193782264,-0.07858791000000001,-0.16630893,-9.807459210000001,0.004048,-0.001042,0.006071,0.15823778864545363
1758011630.6146958,0.16110212088142234,0.5646313347692927,-0.0165392957820214,0.0009315315222878619,0.001231911287662942,-0.03748901766358862,-0.04806900554792447,-5.949833723558549e-07,-0.0981981,-0.15253569,-9.823626090000001,0.002856,0.000573,0.004276,0.15352869277232903
1758011630.6356733,0.16110212088142234,0.5646313347692927,-0.0165392957820214,0.0009315315222878619,0.001231911287662942,-0.03748901766358862,-0.04806900554792447,-5.949833723558549e-07,-0.0981981,-0.15253569,-9.823626090000001,0.002856,0.000573,0.004276,0.15352869277232903
1758011630.656414,0.1614403325129532,0.565817842308736,-0.01661285175705629,0.0008842833097405541,0.001151678789021406,-0.03734489216128864,-0.04775684146237462,3.442445691586554e-05,-0.09490194,-0.15358536,-9.83934171,0.003426,-0.00163,0.004167,0.15341950528293594
1758011630.678429,0.16160702805412905,0.5664095234362595,-0.016656757002477818,0.001079869739469578,0.001296451105095041,-0.037263206566295046,-0.04759667155145974,5.722765426614402e-05,-0.09550035000000001,-0.16061913,-9.81045126,0.003262,0.000453,0.00466,0.15410507590107902
1758011630.6987655,0.16177457160065953,0.5669990496678077,-0.016700914158973124,0.0009886202383419943,0.0011391212619270177,-0.037193534666841464,-0.04745320603501236,4.404072707051679e-05,-0.09624591,-0.15462522000000004,-9.80191656,0.003896,-0.001095,0.004096,0.1537416357252208
1758011630.7191677,0.16194684986806196,0.5675883892258249,-0.016738114708800378,0.0009119634965507213,0.0011728340366871986,-0.037119316583278834,-0.047298173572057095,8.627043959529174e-05,-0.08562168,-0.14490351,-9.826912440000001,0.003994,-8.5e-05,0.004983,0.1543437401545332
1758011630.7395322,0.16211466906782127,0.5681727478163336,-0.016779458186900076,0.0008097835353404836,0.0010715189787622943,-0.037056404754440726,-0.04715648706104892,0.00014018477795736233,-0.08741691000000001,-0.14849397,-9.795775500000001,0.003884,-0.001145,0.005225,0.15400283663866987
