timestamp,x,y,theta,vx,vy,bias_accel_x,bias_accel_y,bias_angular_velocity,accel_x,accel_y,accel_z,gyro_x,gyro_y,gyro_z,cov_trace
1757933658.5829365,0.0,0.0,0.0,0.0,0.0,-2.6732531116600793,0.26464235371541506,0.01497721146245059,0.13022775,0.26344755000000003,9.79697232,0.004439,-0.001643,0.004619,3.13
1757933658.602924,-0.0008351804509103595,-3.5782150845638596e-05,0.602726259887505,-0.38607175072888994,-0.01654070998281046,-2.6732531116600793,0.26464235371541506,0.0007131564384958641,0.13486788,0.26674371,9.8068608,0.003819,0.000363,0.005314,0.935695121569778
1757933658.6234858,-0.006686205187847117,0.0006536615372958253,0.9191442787925439,-0.45090910390370487,0.048893835876106656,-2.6732531116600793,0.26464235371541506,0.00036443171876594425,0.12977649,0.27917298,9.79038981,0.002555,0.000861,0.004151,0.5873648651044462
1757933658.644379,-0.005604305912055938,0.0006416787255223541,1.113239162268437,-0.2461094447898856,0.03248032380869499,-2.6732531116600793,0.26464235371541506,0.00024420708315845633,0.13486788,0.28141947,9.77706783,0.00425,-0.003487,0.00297,0.40953512392683383
1757933658.6644578,-0.010063862133032734,0.0032721525909906036,1.2520506368699929,-0.26612351164297343,0.09714222571033596,-2.6732531116600793,0.26464235371541506,0.00018290298286762166,0.13441662000000001,0.27393444,9.79084107,0.002667,0.001025,0.002745,0.33362431086530975
1757933658.6847425,-0.011954780764275032,0.005973361980933794,1.3563054846775877,-0.2860623070039301,0.1586784267483422,-2.6732531116600793,0.26464235371541506,0.00014587867436431206,0.12948219000000002,0.26599815,9.7926363,0.001677,-0.00177,0.004666,0.2826987817809964
1757933658.705405,-0.011954780764275032,0.005973361980933794,1.3563054846775877,-0.2860623070039301,0.1586784267483422,-2.6732531116600793,0.26464235371541506,0.00014587867436431206,0.12948219000000002,0.26599815,9.7926363,0.001677,-0.00177,0.004666,0.2826987817809964
1757933658.7291112,-0.024055513232760707,0.016173627437309445,1.4389203318689745,-0.30919917480341086,0.22607762510174478,-2.6732531116600793,0.26464235371541506,0.00012028380503302422,0.13457358,0.28006569000000003,9.783807300000001,0.00434,1e-05,0.003749,0.25307133974820545
1757933658.7564507,-0.028319762634211182,0.02555173969800208,1.4987033706821205,-0.34992039838076344,0.3437276378373716,-2.6732531116600793,0.26464235371541506,8.845039699118482e-05,0.12977649,0.27003987,9.74982546,0.003922,-0.003187,0.003749,0.2063134053689314
1757933658.77646,-0.02355225885664744,0.030588318663467295,1.6416940029702562,-0.25782555159895426,0.3861056768054874,-2.6732531116600793,0.26464235371541506,7.78024019073176e-05,0.12843252,0.26719497000000003,9.772133400000001,0.004515,-0.000278,0.003686,0.1798627202833114
1757933658.7972953,-0.023007283106721114,0.036981942330787394,1.698770416928145,-0.22833756779623504,0.43357444325328165,-2.6732531116600793,0.26464235371541506,6.923157240682858e-05,0.12933504,0.26525259,9.783503190000001,0.002001,0.000423,0.004159,0.16402577923604214
1757933658.8237963,-0.026785630922516714,0.05156208091851459,1.7140580875334024,-0.212016215477282,0.48307498603573856,-2.6732531116600793,0.26464235371541506,6.923157240682858e-05,0.13950801,0.27482715,9.764795520000002,0.004293,-0.001107,0.005251,0.15580213183513297
1757933658.8455017,-0.029273028734275782,0.05842973363300908,1.7816560795647787,-0.22173784586354298,0.5203001570574249,-2.6732531116600793,0.26464235371541506,5.591867542392816e-05,0.13082616000000002,0.27393444,9.76733631,0.003263,0.002109,0.003354,0.14473677872667476
1757933658.8660116,-0.031950784585936434,0.06717711911758306,1.8403991137548292,-0.24089468650779838,0.5856287759594886,-2.6732531116600793,0.26464235371541506,4.645923153229666e-05,0.13441662000000001,0.27258066000000003,9.755662410000001,0.005883,-0.001111,0.004474,0.1282994437042823
1757933658.889664,-0.036069588147562386,0.07675870657767547,1.8843363156632664,-0.2658315962003301,0.6348659585733417,-2.6732531116600793,0.26464235371541506,3.943346403717196e-05,0.13441662000000001,0.27093258000000003,9.77781339,0.003602,-0.004153,0.003586,0.11698043641153692
1757933658.9099398,-0.04041791888167629,0.08636354269352525,1.9024567628212656,-0.278964398496852,0.656254480424129,-2.6732531116600793,0.26464235371541506,3.647760566012328e-05,0.13232709,0.26569404,9.790988220000001,0.001496,-0.000129,0.004043,0.11363029760899092
1757933658.930269,-0.04041791888167629,0.08636354269352525,1.9024567628212656,-0.278964398496852,0.656254480424129,-2.6732531116600793,0.26464235371541506,3.647760566012328e-05,0.13232709,0.26569404,9.790988220000001,0.001496,-0.000129,0.004043,0.11363029760899092
1757933658.953997,-0.050617473163986196,0.10770885886632506,1.9331470195715985,-0.30604900258815765,0.6949209863834648,-2.6732531116600793,0.26464235371541506,3.12889067880086e-05,0.13771278,0.26884305000000003,9.78245352,0.005494,-0.002747,0.004211,0.10783230858198464
1757933658.9781485,-0.05667825116937462,0.1199136906182081,1.9461699163118418,-0.3191693944305023,0.7112962798645929,-2.6732531116600793,0.26464235371541506,2.9056726260381872e-05,0.13381821000000002,0.26135802,9.78156081,0.00294,0.002037,0.003595,0.10587186054879974
1757933658.9984722,-0.05667825116937462,0.1199136906182081,1.9461699163118418,-0.3191693944305023,0.7112962798645929,-2.6732531116600793,0.26464235371541506,2.9056726260381872e-05,0.13381821000000002,0.26135802,9.78156081,0.00294,0.002037,0.003595,0.10587186054879974
1757933659.021364,-0.06883414620678142,0.14502772374044873,1.9580977237179447,-0.3326059913516386,0.727468410887175,-2.6732531116600793,0.26464235371541506,2.6907606745384483e-05,0.13756563000000002,0.26494848000000004,9.783650340000001,0.002411,-0.000129,0.004545,0.10684750551863204
1757933659.0412278,-0.07181232264028505,0.14780211809373855,1.978539485905582,-0.35612765845515937,0.7523004407079241,-2.6732531116600793,0.26464235371541506,2.3324992589513057e-05,0.13142457,0.27781920000000004,9.771829290000001,0.00068,0.002082,0.00569,0.0980019377608792
1757933659.0618577,-0.07662957110879094,0.1561787145707929,1.9873983354816591,-0.3667021177812055,0.7624715444810263,-2.6732531116600793,0.26464235371541506,2.1776515983075995e-05,0.13711437,0.27692649,9.77601816,0.003107,-0.003468,0.003526,0.09612000175414473
1757933659.082387,-0.07922653062145031,0.15985358436361224,1.9954770657770506,-0.37645064967202974,0.7713032465249461,-2.6732531116600793,0.26464235371541506,2.0374354297364425e-05,0.12393954,0.27168795,9.772133400000001,0.002932,0.001379,0.002059,0.09334369645859358
1757933659.1094477,-0.09014630467223803,0.17860914338630338,2.0097865835282533,-0.394403793788622,0.7866580559063769,-2.6732531116600793,0.26464235371541506,1.7845206568160512e-05,0.1272357,0.26989272000000003,9.7897914,0.004367,-0.002051,0.003064,0.09079606719313969
1757933659.129835,-0.09014630467223803,0.17860914338630338,2.0097865835282533,-0.394403793788622,0.7866580559063769,-2.6732531116600793,0.26464235371541506,1.7845206568160512e-05,0.1272357,0.26989272000000003,9.7897914,0.004367,-0.002051,0.003064,0.09079606719313969
1757933659.1502638,-0.1013044031229597,0.19730442615341634,2.022056719215474,-0.410240382724761,0.7991493304670794,-2.6732531116600793,0.26464235371541506,1.5635895271721095e-05,0.13816404,0.26973576,9.77362452,0.002941,-0.002145,0.003728,0.08820578659045442
1757933659.1741407,-0.10900269758356151,0.21057564526716205,2.0275427099437913,-0.4173407059885109,0.8043761070196307,-2.6732531116600793,0.26464235371541506,1.4643519172122179e-05,0.12094749,0.28905165000000005,9.76628664,0.004123,-0.001474,0.004403,0.08805270126729689
1757933659.1943102,-0.112995237493039,0.21660647507925387,2.0326358674633074,-0.4238622910721816,0.8089242119530141,-2.6732531116600793,0.26464235371541506,1.3728656895244034e-05,0.1332198,0.27422874,9.768385980000001,0.002939,0.0012,0.005141,0.08627141913432934
1757933659.2176409,-0.12188772616173653,0.23188257958272326,2.0374220185804557,-0.4300309570758501,0.8130705327729012,-2.6732531116600793,0.26464235371541506,1.2854601945035638e-05,0.13113027000000002,0.26958861,9.787544910000001,0.002271,-0.002396,0.00407,0.08657695343441052
1757933659.2376692,-0.1248542942684309,0.23587746179232136,2.0418731412371383,-0.4356430286260985,0.8166050571218504,-2.6732531116600793,0.26464235371541506,1.2054432784568684e-05,0.12708855,0.26794053,9.783954450000001,0.005124,0.001499,0.003826,0.08439193471720355
1757933659.258806,-0.13106074964811765,0.24592103707354226,2.046049675029569,-0.44085972980456495,0.8197182823615442,-2.6732531116600793,0.26464235371541506,1.1303130135525191e-05,0.12857967,0.28546119000000003,9.775272600000001,0.003019,-6e-05,0.003464,0.08375682825881892
1757933659.2797477,-0.13539396433288428,0.2524407995065016,2.049960285806282,-0.445658236555117,0.8224014012192333,-2.6732531116600793,0.26464235371541506,1.0606475024205544e-05,0.14160735,0.27198225000000004,9.77467419,0.004433,-0.001264,0.005293,0.08240987632265201
1757933659.3000991,-0.13539396433288428,0.2524407995065016,2.049960285806282,-0.445658236555117,0.8224014012192333,-2.6732531116600793,0.26464235371541506,1.0606475024205544e-05,0.14160735,0.27198225000000004,9.77467419,0.004433,-0.001264,0.005293,0.08240987632265201
1757933659.3204083,-0.13539396433288428,0.2524407995065016,2.049960285806282,-0.445658236555117,0.8224014012192333,-2.6732531116600793,0.26464235371541506,1.0606475024205544e-05,0.14160735,0.27198225000000004,9.77467419,0.004433,-0.001264,0.005293,0.08240987632265201
1757933659.3464332,-0.16589160736839867,0.306865213010511,2.0538296443659716,-0.45046135931247383,0.8249265063670939,-2.6732531116600793,0.26464235371541506,9.848302749321817e-06,0.13711437,0.27333603,9.787544910000001,0.003372,0.002009,0.003418,0.09037397318852597
1757933659.3730037,-0.16711485702744971,0.30426651286099005,2.0638887983436582,-0.4619161253747995,0.8297255430658701,-2.6732531116600793,0.26464235371541506,8.033736035344968e-06,0.14115609,0.2718351,9.78156081,0.001555,0.001472,0.005004,0.07963388934889168
1757933659.393708,-0.16846458839204909,0.30394747088511914,2.069544679406783,-0.4679523697026732,0.8316216055894944,-2.6732531116600793,0.26464235371541506,7.098037883489099e-06,0.14699304000000002,0.27977139,9.75087513,0.004119,0.000379,0.004364,0.07556892910590488
1757933659.4147723,-0.17462242756180174,0.31358773243245724,2.072147068728996,-0.4706714150022966,0.8323475236974588,-2.6732531116600793,0.26464235371541506,6.675392916960639e-06,0.1300806,0.28201788,9.77003406,0.001973,-0.000744,0.005553,0.0759176711452357
1757933659.4356034,-0.17869716858959397,0.3195328360453421,2.07461310089046,-0.47320599868589636,0.8329414445819857,-2.6732531116600793,0.26464235371541506,6.280553970558751e-06,0.13127742,0.26764623000000004,9.779167170000001,0.005836,-0.003961,0.005619,0.07531995833428573
1757933659.4573786,-0.18803476168777422,0.3347045877040721,2.0769815186133256,-0.4755861534873511,0.833389916494912,-2.6732531116600793,0.26464235371541506,5.898656900190592e-06,0.12933504,0.26989272000000003,9.76195062,0.002742,0.0015,0.00535,0.07656342989261693
1757933659.4777641,-0.18982665155220363,0.33663899898523025,2.079218231982802,-0.4777888147957968,0.8337300327846752,-2.6732531116600793,0.26464235371541506,5.548053546801294e-06,0.13397517,0.26989272000000003,9.768385980000001,0.001857,-0.000923,0.004291,0.07482399884787627
1757933659.4986153,-0.19682842570535525,0.3476668410166023,2.081359833950673,-0.4798425740070518,0.833945877044725,-2.6732531116600793,0.26464235371541506,5.214156737645139e-06,0.14474655,0.265851,9.77632227,0.005218,-0.001648,0.003983,0.0751737162695594
1757933659.519166,-0.20117527342132493,0.3540662271199956,2.0833992209086336,-0.48175082259532037,0.8340628739471448,-2.6732531116600793,0.26464235371541506,4.9020372708469225e-06,0.13936086,0.27662238,9.76434426,0.001885,0.002687,0.004724,0.07444862282040157
1757933659.5398066,-0.21051666245952763,0.3690830130489497,2.0853664859722985,-0.4835150052811792,0.8340325053937926,-2.6732531116600793,0.26464235371541506,4.6008231451992624e-06,0.1300806,0.26644941,9.78649524,0.004595,-0.002669,0.00363,0.07549439831794849
1757933659.5604868,-0.21223017984753492,0.37093327386821834,2.087230758085277,-0.4851570230084381,0.8339526453101564,-2.6732531116600793,0.26464235371541506,4.324603851917602e-06,0.12738285000000002,0.26989272000000003,9.78515127,0.003812,0.000516,0.002944,0.07366448335579959
1757933659.5811422,-0.22109828097210749,0.38507437455494636,2.089030547537691,-0.4866673138555457,0.8337400643793329,-2.6732531116600793,0.26464235371541506,4.058914478709831e-06,0.12977649,0.27542556,9.764491410000002,0.001704,0.000168,0.004146,0.07459047466572766
1757933659.601616,-0.22109828097210749,0.38507437455494636,2.089030547537691,-0.4866673138555457,0.8337400643793329,-2.6732531116600793,0.26464235371541506,4.058914478709831e-06,0.12977649,0.27542556,9.764491410000002,0.001704,0.000168,0.004146,0.07459047466572766
1757933659.6264892,-0.23616130393889487,0.4086661719805402,2.0924601872533923,-0.48924853393054263,0.8328137859600495,-2.6732531116600793,0.26464235371541506,3.557217948460541e-06,0.13517199,0.28081125,9.791292330000001,0.001774,0.001852,0.003526,0.07430111016683458
1757933659.6470313,-0.2362060332911181,0.4077184758143876,2.094036349029521,-0.49044364921491806,0.8324077432379802,-2.6732531116600793,0.26464235371541506,3.3418014704970203e-06,0.12513636,0.27078543,9.76943565,0.003468,-0.002291,0.005249,0.0720237886312396
1757933659.6673102,-0.24652627312536096,0.4242068609517999,2.095568096658784,-0.4915178569960046,0.8318622246203186,-2.6732531116600793,0.26464235371541506,3.133024176860197e-06,0.13426947,0.27123669,9.77422293,0.00434,-0.001093,0.005272,0.07362401305605915
1757933659.6883285,-0.24675221746497156,0.4236100106483622,2.0970201835044247,-0.49254883407107297,0.8313685281753077,-2.6732531116600793,0.26464235371541506,2.9434417128936517e-06,0.14923953,0.26135802,9.78904584,0.001882,0.002089,0.003675,0.07143966242136954
1757933659.7090986,-0.25411957770603266,0.43415348152934397,2.099755148645743,-0.4944035641004984,0.8302923123353431,-2.6732531116600793,0.26464235371541506,2.598539551912025e-06,0.12020193000000001,0.28680516,9.784101600000001,0.004333,-0.001101,0.004801,0.07003790148744041
1757933659.7293894,-0.2594513672221822,0.44220261914081854,2.10103797078062,-0.4952537665583615,0.8297557575308993,-2.6732531116600793,0.26464235371541506,2.443448117191612e-06,0.13157172,0.27932013,9.796530870000002,0.001825,0.001345,0.004048,0.07017562950065581
1757933659.7499864,-0.26453155135701206,0.4498280223508147,2.102273567327087,-0.496045204037448,0.8291935155834204,-2.6732531116600793,0.26464235371541506,2.2973134427543077e-06,0.12693159,0.26569404,9.77407578,0.003072,-0.002744,0.003109,0.0701329487974423
1757933659.7703311,-0.26453155135701206,0.4498280223508147,2.102273567327087,-0.496045204037448,0.8291935155834204,-2.6732531116600793,0.26464235371541506,2.2973134427543077e-06,0.12693159,0.26569404,9.77407578,0.003072,-0.002744,0.003109,0.0701329487974423
1757933659.7920873,-0.276414673268248,0.467939957200288,2.104635873515571,-0.4973824015429897,0.8278247007286186,-2.6732531116600793,0.26464235371541506,2.023986412769256e-06,0.13457358,0.26689086,9.759409830000001,0.000797,-0.001116,0.00531,0.07001908022178527
1757933659.8121965,-0.2804945467274595,0.47389502207375417,2.105743775613144,-0.4980081137587983,0.8271823316225745,-2.6732531116600793,0.26464235371541506,1.9022411223366076e-06,0.11420802000000001,0.27243351000000005,9.7695828,0.003151,-0.001771,0.005229,0.06956994595548495
1757933659.8331494,-0.2850613181673707,0.4806635049548905,2.1068115983039277,-0.4985918931182323,0.8265323552419956,-2.6732531116600793,0.26464235371541506,1.7879564505250436e-06,0.13412232000000002,0.27288477000000005,9.77377167,0.002277,0.001602,0.004652,0.06933467874113838
1757933659.8540585,-0.2850613181673707,0.4806635049548905,2.1068115983039277,-0.4985918931182323,0.8265323552419956,-2.6732531116600793,0.26464235371541506,1.7879564505250436e-06,0.13412232000000002,0.27288477000000005,9.77377167,0.002277,0.001602,0.004652,0.06933467874113838
1757933659.8741286,-0.2960887797797361,0.49733392008250593,2.108856470311615,-0.49954965046092864,0.8250242463587117,-2.6732531116600793,0.26464235371541506,1.5749764111997493e-06,0.13412232000000002,0.27003987,9.75865446,0.003521,0.000576,0.003803,0.06902044019710951
1757933659.8945,-0.2960887797797361,0.49733392008250593,2.108856470311615,-0.49954965046092864,0.8250242463587117,-2.6732531116600793,0.26464235371541506,1.5749764111997493e-06,0.13412232000000002,0.27003987,9.75865446,0.003521,0.000576,0.003803,0.06902044019710951
1757933659.9195166,-0.3150887448877438,0.5278933007267298,2.1098547706226913,-0.4998141024978184,0.8239530788368884,-2.6732531116600793,0.26464235371541506,1.4717447819257887e-06,0.13636881,0.29233800000000004,9.7664436,0.0012,-8.7e-05,0.002746,0.07345853794348832
1757933659.941855,-0.3159427175892495,0.5277547908438869,2.111711631591321,-0.5004608267949566,0.8222209865102285,-2.6732531116600793,0.26464235371541506,1.2936868668919346e-06,0.1360647,0.26719497000000003,9.77797035,0.004442,0.003026,0.004213,0.06901050161540775
1757933659.9619448,-0.3156595316476891,0.5265621680139009,2.1125769456921883,-0.5008245607819005,0.8215195908981767,-2.6732531116600793,0.26464235371541506,1.2163180656154093e-06,0.11989782,0.27422874,9.77317326,0.000468,-0.001433,0.0029,0.06719935136651133
1757933659.982472,-0.3209818264201646,0.5345776133002085,2.1134152528061314,-0.5011586672373343,0.8208124441864962,-2.6732531116600793,0.26464235371541506,1.1431865510814695e-06,0.13591755,0.27198225000000004,9.77991273,0.001876,0.002451,0.003692,0.06758947802882509
1757933660.0028875,-0.32433834641866893,0.5393777036535937,2.114223352515735,-0.5014835979220644,0.8201372962106145,-2.6732531116600793,0.26464235371541506,1.0749220380506614e-06,0.13591755,0.27198225000000004,9.77991273,0.001876,0.002451,0.003692,0.06719202209920791
1757933660.023041,-0.33378390843687405,0.5541282787239186,2.1150154943059025,-0.5017292545953735,0.8193579587064991,-2.6732531116600793,0.26464235371541506,1.0087718301660077e-06,0.13666311,0.27677934,9.77452704,0.002432,-0.002801,0.003352,0.0688302462121613
1757933660.04383,-0.3344278669207888,0.5545069701364332,2.115773597881666,-0.5019998209405351,0.8186711024834127,-2.6732531116600793,0.26464235371541506,9.482116451764144e-07,0.13053186,0.28500993,9.771976440000001,0.005355,-0.00137,0.003968,0.067200401959894
1757933660.064097,-0.3409142867843887,0.5644201659992089,2.1165113448882344,-0.5022269066412361,0.8179451709200064,-2.6732531116600793,0.26464235371541506,8.905765995520709e-07,0.13921371000000002,0.28845324,9.78275763,0.002293,0.000851,0.003688,0.06782381867277254
1757933660.084498,-0.3409142867843887,0.5644201659992089,2.1165113448882344,-0.5022269066412361,0.8179451709200064,-2.6732531116600793,0.26464235371541506,8.905765995520709e-07,0.13921371000000002,0.28845324,9.78275763,0.002293,0.000851,0.003688,0.06782381867277254
1757933660.105154,-0.35516049306211794,0.5862929858383983,2.1179451001025313,-0.5024063626916929,0.8161097291233798,-2.6732531116600793,0.26464235371541506,7.812679042353466e-07,0.12319398000000001,0.26554689,9.78485697,0.002001,-0.000233,0.003633,0.06838948504940404
1757933660.1260011,-0.354596751964539,0.58474928499125,2.1186130437054764,-0.5025795209703877,0.8154021076456622,-2.6732531116600793,0.26464235371541506,7.341678416944817e-07,0.1417545,0.28515708,9.775723860000001,0.0031,0.000531,0.004288,0.06643952601286353
1757933660.1488066,-0.3616944131606699,0.5950415192011859,2.119889056538418,-0.5028712101329562,0.8139919489167341,-2.6732531116600793,0.26464235371541506,6.480171814670541e-07,0.13845834,0.26689086,9.78874173,0.001295,0.002214,0.004341,0.06577650737821591
1757933660.1719992,-0.36789207269138796,0.6044798057443416,2.120496853138727,-0.5030053146208664,0.8133148916910906,-2.6732531116600793,0.26464235371541506,6.088889926567977e-07,0.13022775,0.27422874,9.764942670000002,0.002405,-0.002074,0.005853,0.06653192335934778
1757933660.1924412,-0.36789207269138796,0.6044798057443416,2.120496853138727,-0.5030053146208664,0.8133148916910906,-2.6732531116600793,0.26464235371541506,6.088889926567977e-07,0.13022775,0.27422874,9.764942670000002,0.002405,-0.002074,0.005853,0.06653192335934778
1757933660.2183728,-0.3853282146190504,0.6320621446513438,2.1211070151301783,-0.5029292913442097,0.8122952622268723,-2.6732531116600793,0.26464235371541506,5.692646425416066e-07,0.12783411,0.27692649,9.77661657,0.002979,-0.001436,0.002952,0.07066799192549966
1757933660.23888,-0.38345668302958336,0.6278863563563306,2.122244434801388,-0.5030028656412942,0.8107443616172572,-2.6732531116600793,0.26464235371541506,5.011766280838507e-07,0.13187583,0.28276344,9.783954450000001,0.004172,-0.002725,0.004874,0.06593571261915183
1757933660.2594082,-0.38498732550176545,0.6298021182420732,2.122779222316627,-0.5030981375469354,0.8101153728205039,-2.6732531116600793,0.26464235371541506,4.712464384265235e-07,0.13995927,0.26853894,9.775723860000001,0.002766,0.001509,0.004818,0.06511442554068184
1757933660.279631,-0.3885089396798445,0.6349325638300741,2.123297139114303,-0.5031952897996972,0.8095157985766194,-2.6732531116600793,0.26464235371541506,4.4317772109275664e-07,0.12529332,0.28006569000000003,9.780658290000002,0.002766,0.001509,0.004818,0.06508867082301745
1757933660.3029907,-0.3997277164629389,0.6524374994689285,2.1238096082400695,-0.5031918036075467,0.8087637574753249,-2.6732531116600793,0.26464235371541506,4.1561953219403154e-07,0.13187583,0.26989272000000003,9.77392863,0.004213,-0.002321,0.001742,0.06753572146552823
1757933660.3287082,-0.40147589491862123,0.6542058524636293,2.124772964091872,-0.5033147443612821,0.8075601867004205,-2.6732531116600793,0.26464235371541506,3.672674506028675e-07,0.13636881,0.27138384000000004,9.78515127,0.002397,-0.001678,0.004239,0.06503681148791804
1757933660.349142,-0.4058479896980526,0.6607162719255848,2.1252330508867985,-0.5033701021241339,0.8069817257645023,-2.6732531116600793,0.26464235371541506,3.4526414944204704e-07,0.12813822000000002,0.29189655000000003,9.76508982,0.006026,-0.002368,0.002753,0.0652267575660482
1757933660.369588,-0.4058479896980526,0.6607162719255848,2.1252330508867985,-0.5033701021241339,0.8069817257645023,-2.6732531116600793,0.26464235371541506,3.4526414944204704e-07,0.12813822000000002,0.29189655000000003,9.76508982,0.006026,-0.002368,0.002753,0.0652267575660482
1757933660.3935707,-0.41670468161918006,0.6771227425088923,2.1261260092565415,-0.503305581861989,0.8055850747581055,-2.6732531116600793,0.26464235371541506,3.039326916996763e-07,0.12618603,0.25432425000000003,9.799522920000001,0.004679,-0.001474,0.003357,0.06557193488209422
1757933660.4140298,-0.4196054501924971,0.681284366237117,2.126548355319298,-0.5033143541166479,0.8049884709194554,-2.6732531116600793,0.26464235371541506,2.8559860567032063e-07,0.1474443,0.28965006000000004,9.76195062,0.004368,0.001183,0.004822,0.06515318436770118
1757933660.4351234,-0.4227635256424181,0.6858634391821554,2.1269575414888333,-0.5033273728106294,0.8044186421810157,-2.6732531116600793,0.26464235371541506,2.6844806752703335e-07,0.13921371000000002,0.26360451,9.76613949,0.001845,0.000134,0.004185,0.06489297651716544
1757933660.4582024,-0.4316718550347851,0.6996297341615627,2.127360540626986,-0.5032648562443505,0.8037379484362128,-2.6732531116600793,0.26464235371541506,2.5183866920685656e-07,0.14309847,0.27078543,9.790988220000001,0.00536,-0.002886,0.003852,0.06654042831778104
1757933660.4788175,-0.4308316689127007,0.6978316489722161,2.1277464592403206,-0.5032609559262831,0.8031758050328112,-2.6732531116600793,0.26464235371541506,2.3671941909309641e-07,0.12603888000000002,0.26779338,9.747883080000001,0.003102,0.002332,0.003509,0.06464137317990463
1757933660.4991655,-0.4308316689127007,0.6978316489722161,2.1277464592403206,-0.5032609559262831,0.8031758050328112,-2.6732531116600793,0.26464235371541506,2.3671941909309641e-07,0.12603888000000002,0.26779338,9.747883080000001,0.003102,0.002332,0.003509,0.06464137317990463
1757933660.519881,-0.44965122686454,0.7273972348370233,2.128137174724592,-0.503008892535917,0.8022111080860895,-2.6732531116600793,0.26464235371541506,2.2123589772813806e-07,0.13397517,0.27737775000000003,9.7724277,0.004765,-0.001739,0.004238,0.06948526198771372
1757933660.5401378,-0.4480933993474401,0.7240177108822836,2.128869479953619,-0.5027349834016848,0.8007204814626233,-2.6732531116600793,0.26464235371541506,1.9447663015930885e-07,0.12034908,0.27288477000000005,9.783954450000001,0.001527,0.001454,0.003941,0.06500626014758835
1757933660.5613616,-0.4471846609391641,0.7221428263121108,2.1292123663958744,-0.5027041839513802,0.800179331799153,-2.6732531116600793,0.26464235371541506,1.8288930635770798e-07,0.13621185,0.27587682,9.78110955,0.00464,-0.002792,0.003253,0.06347324488344779
1757933660.5822754,-0.4508383769882303,0.7275383449422128,2.1295455653962962,-0.5026790811892563,0.7996626493127932,-2.6732531116600793,0.26464235371541506,1.7198096810910232e-07,0.13457358,0.26569404,9.78485697,0.003235,0.001225,0.004139,0.0637492916880217
1757933660.6027558,-0.4566774365830437,0.7364112632028178,2.12987142322406,-0.5026283472817715,0.7991168384013008,-2.6732531116600793,0.26464235371541506,1.6157756421048446e-07,0.12005478000000001,0.28291059,9.78170796,0.001624,-0.000229,0.00416,0.0646482161067801
1757933660.6234872,-0.4661960126284664,0.7511287474396376,2.1301933113273472,-0.5024896641843503,0.7984374322511506,-2.6732531116600793,0.26464235371541506,1.5146606444831763e-07,0.12678444,0.27468000000000004,9.77617512,0.004684,-0.002738,0.00438,0.06651298594096006
1757933660.6482222,-0.46635471107885523,0.750582276577319,2.1307988378731277,-0.5023829160534167,0.7974052296712522,-2.6732531116600793,0.26464235371541506,1.3378379990256108e-07,0.14115609,0.28081125,9.787544910000001,0.002737,-0.001446,0.00354,0.06375848122089497
1757933660.6684914,-0.47026581035488224,0.7564020543532486,2.131088417811317,-0.5023387022307322,0.7969236771568088,-2.6732531116600793,0.26464235371541506,1.257574909228763e-07,0.12768696000000002,0.27542556,9.78215922,0.004382,-0.001145,0.004509,0.06399682035752687
1757933660.6889172,-0.47026581035488224,0.7564020543532486,2.131088417811317,-0.5023387022307322,0.7969236771568088,-2.6732531116600793,0.26464235371541506,1.257574909228763e-07,0.12768696000000002,0.27542556,9.78215922,0.004382,-0.001145,0.004509,0.06399682035752687
1757933660.709281,-0.47026581035488224,0.7564020543532486,2.131088417811317,-0.5023387022307322,0.7969236771568088,-2.6732531116600793,0.26464235371541506,1.257574909228763e-07,0.12768696000000002,0.27542556,9.78215922,0.004382,-0.001145,0.004509,0.06399682035752687
1757933660.7297509,-0.4878636368861246,0.7835358446783133,2.1316636036642365,-0.5018218448561336,0.7952862687203013,-2.6732531116600793,0.26464235371541506,1.100766450297478e-07,0.13546629000000002,0.28051695,9.77422293,0.003241,-0.003002,0.004217,0.06633383611528873
1757933660.7497532,-0.4850721110597851,0.7783736305594995,2.1321904038642234,-0.5016325066526187,0.794238666267939,-2.6732531116600793,0.26464235371541506,9.719898041942765e-08,0.11735703,0.26674371,9.775566900000001,0.001913,0.000368,0.004803,0.06276734117990654
1757933660.77004,-0.4850721110597851,0.7783736305594995,2.1321904038642234,-0.5016325066526187,0.794238666267939,-2.6732531116600793,0.26464235371541506,9.719898041942765e-08,0.11735703,0.26674371,9.775566900000001,0.001913,0.000368,0.004803,0.06276734117990654
1757933660.7903197,-0.4850721110597851,0.7783736305594995,2.1321904038642234,-0.5016325066526187,0.794238666267939,-2.6732531116600793,0.26464235371541506,9.719898041942765e-08,0.11735703,0.26674371,9.775566900000001,0.001913,0.000368,0.004803,0.06276734117990654
1757933660.8167706,-0.5059149234303877,0.8106322676291929,2.1327084181869296,-0.5009796202103701,0.7924716704037683,-2.6732531116600793,0.26464235371541506,8.49255671609988e-08,0.12484206,0.26644941,9.7692885,0.001851,0.001097,0.003856,0.06643905548283191
1757933660.8391852,-0.5105035141313778,0.8175296529635296,2.132954679425864,-0.500703254697762,0.7916861939813223,-2.6732531116600793,0.26464235371541506,7.948420829206168e-08,0.13397517,0.27108954,9.77692068,0.001871,-0.00074,0.00473,0.06641843661728292
1757933660.862836,-0.5090120742368686,0.8144788721319944,2.1334168393962862,-0.5004006916539007,0.7905560544301462,-2.6732531116600793,0.26464235371541506,7.00436903995531e-08,0.13921371000000002,0.26509562999999997,9.78036399,0.002405,0.003446,0.004192,0.06339411960828217
1757933660.8890195,-0.5094535028330998,0.8145164857918208,2.1338450027135734,-0.500323663242462,0.7898338642108705,-2.6732531116600793,0.26464235371541506,6.20476584497013e-08,0.13097331,0.27961443,9.78574968,0.004285,0.000968,0.003504,0.06204141823846682
1757933660.9092185,-0.5124900944338366,0.8189893327619193,2.1340501295144056,-0.5003113094053337,0.7895280267110845,-2.6732531116600793,0.26464235371541506,5.8398199113868596e-08,0.12393954,0.27078543,9.78275763,0.002643,0.001346,0.003469,0.062380498418013235
1757933660.929586,-0.5124900944338366,0.8189893327619193,2.1340501295144056,-0.5003113094053337,0.7895280267110845,-2.6732531116600793,0.26464235371541506,5.8398199113868596e-08,0.12393954,0.27078543,9.78275763,0.002643,0.001346,0.003469,0.062380498418013235
1757933660.9497757,-0.5266272299152811,0.8409742199136794,2.1342562924866986,-0.5001483995427807,0.7889836210799159,-2.6732531116600793,0.26464235371541506,5.472335596527569e-08,0.1329255,0.27557271000000005,9.76209777,0.005499,-0.001992,0.003789,0.06623770271921717
1757933660.973673,-0.5254165836621704,0.8384400506982458,2.134644055507194,-0.5000019413241308,0.7882114621658433,-2.6732531116600793,0.26464235371541506,4.831334623718517e-08,0.12544047,0.27153099,9.78859458,0.003137,-0.000897,0.003422,0.06316612716574349
1757933660.9943776,-0.5264853453599909,0.8398225806583213,2.134828323017916,-0.49997079308592396,0.7879056892548567,-2.6732531116600793,0.26464235371541506,4.5449046660564196e-08,0.12693159,0.27797616,9.77063247,0.003944,-0.001227,0.005922,0.06260670965241996
1757933661.0149028,-0.5316521113793399,0.8476658212651337,2.1350088153845252,-0.4999146213572063,0.7875662620774059,-2.6732531116600793,0.26464235371541506,4.2715001644238985e-08,0.1417545,0.26719497000000003,9.767189160000001,0.001998,0.000426,0.002247,0.06350740960597173
1757933661.0352829,-0.5332025018146818,0.8498149262861459,2.135183657755391,-0.4998748418747567,0.7872606342582865,-2.6732531116600793,0.26464235371541506,4.01673533300075e-08,0.13682007,0.27317907,9.779314320000001,0.003044,-0.00233,0.005516,0.0630041233842632
1757933661.0556571,-0.5332025018146818,0.8498149262861459,2.135183657755391,-0.4998748418747567,0.7872606342582865,-2.6732531116600793,0.26464235371541506,4.01673533300075e-08,0.13682007,0.27317907,9.779314320000001,0.003044,-0.00233,0.005516,0.0630041233842632
1757933661.0782046,-0.5441891661471342,0.8665353273292532,2.1355268507571763,-0.4995460900197095,0.7862656098450764,-2.6732531116600793,0.26464235371541506,3.531623327274044e-08,0.13696722,0.27917298,9.76224492,0.002249,0.000326,0.003398,0.06401738015080646
1757933661.0985684,-0.5441891661471342,0.8665353273292532,2.1355268507571763,-0.4995460900197095,0.7862656098450764,-2.6732531116600793,0.26464235371541506,3.531623327274044e-08,0.13696722,0.27917298,9.76224492,0.002249,0.000326,0.003398,0.06401738015080646
1757933661.1196532,-0.550660241029052,0.8761551248257322,2.1358515707972234,-0.49918843705071736,0.7852509973192537,-2.6732531116600793,0.26464235371541506,3.1062943360377225e-08,0.12828537,0.26180928000000003,9.77871591,0.002603,0.001411,0.004363,0.06359029532981304
1757933661.1398647,-0.5516633794885092,0.8774593738844435,2.136005124320108,-0.499082054425086,0.7848704444810087,-2.6732531116600793,0.26464235371541506,2.918920316806714e-08,0.11780829000000001,0.2718351,9.76044969,0.003608,-0.000332,0.005309,0.06296471994531236
1757933661.1599808,-0.551885172968629,0.8775402853443178,2.1361533636714043,-0.49901523153194494,0.7845599436655778,-2.6732531116600793,0.26464235371541506,2.7456151785613384e-08,0.13591755,0.26554689,9.768238830000001,0.003732,-0.001837,0.003706,0.06219713524739506
1757933661.180345,-0.5594595079221387,0.8891821559106285,2.136299766993808,-0.4988897782938258,0.7841603936875986,-2.6732531116600793,0.26464235371541506,2.577635273635249e-08,0.14100894,0.26659656,9.7667379,0.002347,0.002748,0.004195,0.064010670967236
1757933661.2005734,-0.5589117478427164,0.8880606449943087,2.1364407443756797,-0.49881040233438684,0.7838407869017195,-2.6732531116600793,0.26464235371541506,2.4232729084230378e-08,0.12544047,0.27857457,9.76764042,0.005381,-0.001497,0.004389,0.0627325776279524
1757933661.2211595,-0.5643381880071389,0.8963297950588635,2.1365790772533018,-0.49869670492108836,0.7834712320289953,-2.6732531116600793,0.26464235371541506,2.2757371571316327e-08,0.14220576000000001,0.27453285,9.77422293,0.004711,0.00056,0.005457,0.06370970760577571
1757933661.2412486,-0.5653486144193822,0.8976640839323414,2.136712960229951,-0.4986064478696006,0.7831447079549332,-2.6732531116600793,0.26464235371541506,2.138750976382019e-08,0.13187583,0.2721294,9.76733631,0.002263,7.7e-05,0.003726,0.06300928136229236
1757933661.2678428,-0.5701654689955316,0.9047341310979167,2.1369707947852383,-0.4983975725084186,0.7824612503060648,-2.6732531116600793,0.26464235371541506,1.8878075165083326e-08,0.13486788,0.26884305000000003,9.79038981,0.002716,0.002141,0.002846,0.0626563363345145
1757933661.291001,-0.5747494171254334,0.9116883055865421,2.1370947136595895,-0.49828910020125855,0.7821203947019791,-2.6732531116600793,0.26464235371541506,1.7733683290934747e-08,0.11840670000000002,0.28141947,9.78589683,0.002486,-0.002613,0.00375,0.06337182747381483
1757933661.3111942,-0.5761719691943754,0.9136830652222278,2.137214863680299,-0.4981967415921704,0.7818101147450862,-2.6732531116600793,0.26464235371541506,1.6667254357083945e-08,0.13381821000000002,0.27797616,9.76180347,0.003354,-0.00077,0.002863,0.06287988554752313
1757933661.3316703,-0.5761719691943754,0.9136830652222278,2.137214863680299,-0.4981967415921704,0.7818101147450862,-2.6732531116600793,0.26464235371541506,1.6667254357083945e-08,0.13711437,0.27258066000000003,9.77871591,0.001417,0.001705,0.005248,0.06287988554752313
1757933661.3519902,-0.5819174296830255,0.9222316104089286,2.137447679954576,-0.49791599570263745,0.7810492489880966,-2.6732531116600793,0.26464235371541506,1.4692239276976085e-08,0.13711437,0.2721294,9.78934014,0.004351,-0.003154,0.003732,0.06267501655536122
1757933661.372294,-0.5819174296830255,0.9222316104089286,2.137447679954576,-0.49791599570263745,0.7810492489880966,-2.6732531116600793,0.26464235371541506,1.4692239276976085e-08,0.13711437,0.2721294,9.78934014,0.004351,-0.003154,0.003732,0.06267501655536122
1757933661.3925676,-0.5819174296830255,0.9222316104089286,2.137447679954576,-0.49791599570263745,0.7810492489880966,-2.6732531116600793,0.26464235371541506,1.4692239276976085e-08,0.13711437,0.2721294,9.78934014,0.004351,-0.003154,0.003732,0.06267501655536122
1757933661.4132488,-0.5819174296830255,0.9222316104089286,2.137447679954576,-0.49791599570263745,0.7810492489880966,-2.6732531116600793,0.26464235371541506,1.4692239276976085e-08,0.13711437,0.2721294,9.78934014,0.004351,-0.003154,0.003732,0.06267501655536122
1757933661.4396405,-0.6047742060926201,0.9573846748193626,2.1377906905654616,-0.496385494180844,0.7781721368746154,-2.6732531116600793,0.26464235371541506,1.19421687505598e-08,0.1386153,0.27108954,9.7784118,0.003541,-0.000997,0.003249,0.0648569680266329
1757933661.459765,-0.5993995749032663,0.9485208878496943,2.137994808623853,-0.49597436570430714,0.77724654939465,-2.6732531116600793,0.26464235371541506,1.0532701875976127e-08,0.12529332,0.25177365,9.79233219,0.003108,-0.001938,0.00385,0.06135096206091341
1757933661.480571,-0.5978754306007019,0.9459208027849196,2.1380908286000784,-0.4958909523660688,0.7769846195432768,-2.6732531116600793,0.26464235371541506,9.916457140830031e-09,0.12977649,0.27991854,9.77766624,0.003549,-0.000725,0.004119,0.06046452548892403
1757933661.5009584,-0.6053649120668826,0.9574451338995007,2.138185890858111,-0.4957773451323444,0.7766777551343563,-2.6732531116600793,0.26464235371541506,9.315939106399558e-09,0.1272357,0.27168795,9.76508982,0.000744,0.001655,0.0038,0.06276635356960986
1757933661.5212586,-0.6030451760658316,0.9536056642490554,2.138277070993321,-0.495733016332662,0.7764846820713356,-2.6732531116600793,0.26464235371541506,8.767776859052278e-09,0.12034908,0.25880742,9.78859458,0.003902,-0.002348,0.002904,0.06124825209322386
1757933661.5477262,-0.6080323054041147,0.9610143917944162,2.138453277654521,-0.4956467457034062,0.7761114310222044,-2.6732531116600793,0.26464235371541506,7.754105826118246e-09,0.12529332,0.27946728,9.76704201,0.002987,0.00193,0.006144,0.06176890756156658
1757933661.5682628,-0.6080323054041147,0.9610143917944162,2.138453277654521,-0.4956467457034062,0.7761114310222044,-2.6732531116600793,0.26464235371541506,7.754105826118246e-09,0.12529332,0.27946728,9.76704201,0.002987,0.00193,0.006144,0.06176890756156658
1757933661.58885,-0.613278852554445,0.9688380288337647,2.1386213649303416,-0.49552092401675607,0.7756871542542785,-2.6732531116600793,0.26464235371541506,6.84637679042436e-09,0.13352391,0.28485297000000004,9.783807300000001,0.003231,-0.00087,0.004122,0.06193887751623591
1757933661.6128561,-0.6183592922206739,0.9765990477131944,2.1387022014178214,-0.49545554739083175,0.7754755527603657,-2.6732531116600793,0.26464235371541506,6.432025063851026e-09,0.11975067000000002,0.27647523,9.76508982,0.002419,-0.001478,0.003185,0.06304411930436879
1757933661.6329572,-0.6183701411249961,0.9764278173683593,2.138780351218842,-0.4954173535791566,0.7753100699274738,-2.6732531116600793,0.26464235371541506,6.04812122202399e-09,0.15538058999999999,0.30282489,9.78141366,0.006977,0.001302,0.00358,0.06221503044290119
1757933661.6542137,-0.6241252732767617,0.9852477093579588,2.1388573277439242,-0.4953288234273166,0.7750674634962039,-2.6732531116600793,0.26464235371541506,5.6790054100187115e-09,0.12843252,0.24204213000000002,9.85955031,-6.4e-05,-0.001417,0.004477,0.06347767260930746
1757933661.6743312,-0.6236380845917119,0.984302420785492,2.1389316217863357,-0.4952730333709819,0.7748796277426006,-2.6732531116600793,0.26464235371541506,5.3384013208737655e-09,0.13277835000000002,0.27557271000000005,9.80940159,0.00336,-0.001803,0.004151,0.06239224443344907
1757933661.694793,-0.6236380845917119,0.984302420785492,2.1389316217863357,-0.4952730333709819,0.7748796277426006,-2.6732531116600793,0.26464235371541506,5.3384013208737655e-09,0.13277835000000002,0.27557271000000005,9.80940159,0.00336,-0.001803,0.004151,0.06239224443344907
1757933661.7156656,-0.6392859892202554,1.008599341517663,2.139007072367068,-0.49497552669502637,0.7743115816652438,-2.6732531116600793,0.26464235371541506,4.991969666232078e-09,0.12633318000000002,0.27677934,9.74848149,0.004636,-0.000794,0.004787,0.06683398866091703
1757933661.7360263,-0.6334410992082457,0.999099922438373,2.1391482772722332,-0.4946446493107558,0.7736018378001462,-2.6732531116600793,0.26464235371541506,4.3962769870614674e-09,0.12633318000000002,0.27632808,9.79338186,0.004539,-0.003134,0.002936,0.0622680633068855
1757933661.7561429,-0.6327583293974883,0.9978595222030673,2.1392149311165323,-0.4945668843607638,0.7733899498775028,-2.6732531116600793,0.26464235371541506,4.134676237167944e-09,0.13921371000000002,0.27857457,9.77677353,0.004312,0.003064,0.005952,0.06146745708740463
1757933661.7764378,-0.6389989943442175,1.0074471648521297,2.139280737394249,-0.4944433477243063,0.7731080575225412,-2.6732531116600793,0.26464235371541506,3.882042508879143e-09,0.12034908,0.2775249,9.80476146,0.002201,-0.001912,0.005527,0.06313841407851675
1757933661.7972186,-0.6380968316033423,1.005868677542327,2.1393441879755724,-0.4943644198060661,0.7728991214254924,-2.6732531116600793,0.26464235371541506,3.6493436245873664e-09,0.12873663,0.28245933,9.76943565,0.003469,-0.000325,0.002454,0.06204366297567031
1757933661.8180413,-0.6444851223298473,1.0156895398943824,2.1394068546848333,-0.4942275703968747,0.7726008276816548,-2.6732531116600793,0.26464235371541506,3.4246815430903117e-09,0.14459940000000002,0.26973576,9.77092677,0.001752,0.001291,0.006115,0.0636167963209695
1757933661.8382168,-0.6421551145664627,1.0118842074005168,2.1394669946997045,-0.49415330231657506,0.7724037128810756,-2.6732531116600793,0.26464235371541506,3.219713422067372e-09,0.11346246,0.26719497000000003,9.77347737,0.001943,-0.001874,0.003501,0.06193742293008049
1757933661.8588314,-0.645177920831329,1.0164482732394384,2.1395257720877714,-0.494071479663064,0.7721968216607166,-2.6732531116600793,0.26464235371541506,3.025678452844106e-09,0.12424365,0.29683098,9.77766624,0.0027,0.000469,0.003932,0.062419981868945686
1757933661.8795183,-0.6470001651058297,1.0191378860563427,2.1395829859404945,-0.4939943614635353,0.7719994474132874,-2.6732531116600793,0.26464235371541506,2.8435161410630788e-09,0.14818986,0.2775249,9.76554108,0.00322,0.0009,0.004249,0.062386123795201164
1757933661.9034815,-0.6567823825944661,1.0342669183494149,2.139640118653924,-0.4937887628674298,0.7716012214298762,-2.6732531116600793,0.26464235371541506,2.66420125023402e-09,0.13531914,0.28785483,9.787250610000001,0.005725,-0.002573,0.005588,0.06498327952580923
1757933661.9247503,-0.6537606207086594,1.0293904660332192,2.139694800387522,-0.49366094927424126,0.7713277489598579,-2.6732531116600793,0.26464235371541506,2.5017445310301234e-09,0.12288987000000001,0.25072398,9.79038981,0.000455,0.007405,0.003329,0.06278709291070261
1757933661.9472263,-0.6555010328074536,1.0318079831936313,2.1397994859888723,-0.49345094378205323,0.7708588641056591,-2.6732531116600793,0.26464235371541506,2.2083407285374835e-09,0.16839846000000003,-1.4706955800000001,9.944416620000002,-0.069592,-0.042321,0.011766,0.062031115353840094
1757933661.9675875,-0.6555010328074536,1.0318079831936313,2.1397994859888723,-0.49345094378205323,0.7708588641056591,-2.6732531116600793,0.26464235371541506,2.2083407285374835e-09,0.16839846000000003,-1.4706955800000001,9.944416620000002,-0.069592,-0.042321,0.011766,0.062031115353840094
1757933661.987875,-0.6555010328074536,1.0318079831936313,2.1397994859888723,-0.49345094378205323,0.7708588641056591,-2.6732531116600793,0.26464235371541506,2.2083407285374835e-09,0.16839846000000003,-1.4706955800000001,9.944416620000002,-0.069592,-0.042321,0.011766,0.062031115353840094
1757933662.0082202,-0.6771744735504246,1.0655130633477092,2.139852872858686,-0.4929663520355481,0.770029229512111,-2.6732531116600793,0.26464235371541506,2.059677522366375e-09,-0.17423541,-1.83952215,9.57214674,-0.015916,-0.031428,-0.003485,0.06857344644248611
1757933662.0297523,-0.6707405686370248,1.0551688244151873,2.1399526026685294,-0.4923493331320915,0.7689300194789693,-2.6732531116600793,0.26464235371541506,1.8058079077454957e-09,0.32512302,-2.34771939,9.35958366,0.011999,-0.04432,0.010618,0.06332563668799912
1757933662.050693,-0.6675639552883617,1.0500655040483933,2.1399992530528564,-0.4921898267369452,0.7686180122297079,-2.6732531116600793,0.26464235371541506,1.6965485275585216e-09,0.32512302,-2.34771939,9.35958366,0.011999,-0.04432,0.010618,0.06159530990095078
1757933662.0714598,-0.6674621411582738,1.049629279882975,2.1400885451354377,-0.491970578454481,0.7681564351443724,-2.6732531116600793,0.26464235371541506,1.4989655848697335e-09,-0.29728224000000003,0.21479976,8.70649272,0.055874,0.045792,-0.02629,0.06077374765977148
1757933662.0915565,-0.6697614915195774,1.0530841522856682,2.1401312025996866,-0.49191816031995933,0.7680180911044784,-2.6732531116600793,0.26464235371541506,1.4098263124177894e-09,0.27288477000000005,1.3271360399999999,9.9602892,0.071009,0.027277,-0.094908,0.06137136413234476
1757933662.112243,-0.6727004664695945,1.0575391102786422,2.1401729314649414,-0.49186540117742017,0.7678805903094458,-2.6732531116600793,0.26464235371541506,1.325227127356098e-09,0.6185106899999999,1.7890791300000002,10.495424700000001,0.039317,0.010041,0.012551,0.06202792096830069
1757933662.132596,-0.6727004664695945,1.0575391102786422,2.1401729314649414,-0.49186540117742017,0.7678805903094458,-2.6732531116600793,0.26464235371541506,1.325227127356098e-09,0.6185106899999999,1.7890791300000002,10.495424700000001,0.039317,0.010041,0.012551,0.06202792096830069
1757933662.1535747,-0.6776963111037604,1.065075644738758,2.140254191731456,-0.4916452283923423,0.7674290552296578,-2.6732531116600793,0.26464235371541506,1.1674024725635144e-09,-0.20283156000000002,3.26666133,9.573941970000002,-0.000717,0.013434,0.003316,0.06223307287866922
1757933662.174479,-0.6800780776455638,1.0686651320159932,2.14029298186428,-0.4915676004118308,0.7672564166551675,-2.6732531116600793,0.26464235371541506,1.0965432696311518e-09,0.59171958,2.51238024,9.55342926,0.000868,-0.006588,0.05078,0.06253443312420426
1757933662.195498,-0.6793441387938319,1.0673936379898747,2.140330449653982,-0.4915262835827768,0.7671422447055408,-2.6732531116600793,0.26464235371541506,1.0309769051969298e-09,-0.09984618,1.23358788,9.57334356,0.000868,-0.006588,0.05078,0.06171641564398102
1757933662.2167833,-0.6856205892228651,1.0770644668265008,2.1403675194652703,-0.49142307519304496,0.7669320544587269,-2.6732531116600793,0.26464235371541506,9.675151204995523e-10,-0.05433759,0.06675705000000001,9.64504485,-0.035784,0.039191,-0.013558,0.06342242352265075
1757933662.2378004,-0.6832764926420039,1.0732837588629598,2.1404031196201885,-0.49137505801828363,0.7668098830945986,-2.6732531116600793,0.26464235371541506,9.094774097712789e-10,0.41658165,-1.17640539,9.63306684,-0.031489,-0.016199,-0.013014,0.06186548099649927
1757933662.2584589,-0.6885848295888419,1.0814462510262528,2.1404382308588854,-0.4912768839983705,0.7666101493537774,-2.6732531116600793,0.26464235371541506,8.536489037864865e-10,-0.08801532000000001,-2.02139955,9.631870020000001,-0.038846,-0.001856,-0.002235,0.06322440330612505
1757933662.2792172,-0.6867593318389019,1.0784787139196,2.14047201405317,-0.49122624744556875,0.7664863273481491,-2.6732531116600793,0.26464235371541506,8.024009265254962e-10,0.15178032,-2.1457903500000004,9.88289811,-0.015568,-0.040934,-0.013917,0.061892326256045946
1757933662.299842,-0.6867593318389019,1.0784787139196,2.14047201405317,-0.49122624744556875,0.7664863273481491,-2.6732531116600793,0.26464235371541506,8.024009265254962e-10,0.15178032,-2.1457903500000004,9.88289811,-0.015568,-0.040934,-0.013917,0.061892326256045946
1757933662.320875,-0.695530939151633,1.091929934377741,2.140538712878177,-0.4908438259690306,0.7658006523822297,-2.6732531116600793,0.26464235371541506,7.046308069775623e-10,0.18336852,-1.6428316500000002,10.261309050000001,-0.00931,-0.002517,0.003596,0.0631614586505965
1757933662.3410413,-0.698366468931695,1.096238688125827,2.140570566168199,-0.49067814416529654,0.7654997344486574,-2.6732531116600793,0.26464235371541506,6.608473334749423e-10,0.11256975000000001,-0.33410898,9.44326296,0.036564,0.005712,-0.00757,0.06347584363336692
1757933662.3617358,-0.6952531562409646,1.0912690015612938,2.14060107385395,-0.4905872654532175,0.7653174027077781,-2.6732531116600793,0.26464235371541506,6.210147943521581e-10,0.46508229,0.57016701,10.218046950000002,0.00359,-0.043935,0.022105,0.061723824526866436
1757933662.3818078,-0.7004485817136408,1.0992622126774136,2.1406311615142197,-0.49045338940742583,0.7650687601501897,-2.6732531116600793,0.26464235371541506,5.827259632726145e-10,-0.21584943000000004,1.58280426,10.02824307,0.023074,-0.082442,-0.020384,0.06315298087958343
1757933662.4021964,-0.697922614761876,1.095212547912195,2.1406600417168438,-0.4903825701338949,0.7649201093516715,-2.6732531116600793,0.26464235371541506,5.477232980594314e-10,0.8297199900000001,1.91901258,10.37297628,0.003614,-0.065047,-0.000215,0.06165907507998704
1757933662.424608,-0.7066881654602437,1.1087764227636039,2.1406888771315913,-0.49020544661722665,0.7646057323148767,-2.6732531116600793,0.26464235371541506,5.13331121788074e-10,0.25193061,2.58976152,9.57334356,0.013888,0.02934,0.020084,0.06427828214197961
1757933662.4454327,-0.7032478198429732,1.1033036691273892,2.140716454875678,-0.4901064263972161,0.7644147980957359,-2.6732531116600793,0.26464235371541506,4.821359265095185e-10,0.33215679000000004,2.47315986,10.00774017,-0.018424,0.001631,-0.024006,0.062236004768283865
1757933662.4687974,-0.7040749239672576,1.10438515418226,2.1407695200870593,-0.48990867435368146,0.7640363398087047,-2.6732531116600793,0.26464235371541506,4.25234662859256e-10,-0.17678601,0.71401104,9.695487870000001,-0.000775,-0.00085,0.002376,0.06143139622867205
1757933662.4899023,-0.7062562867400568,1.1076852369914107,2.1407948543641346,-0.4898505593181075,0.7639124516000692,-2.6732531116600793,0.26464235371541506,3.996272199601959e-10,-0.14639463000000003,-0.7200049500000001,9.8617968,-0.074643,-0.029683,-0.022012,0.06192006266664822
1757933662.5108361,-0.7069639632101427,1.1086885668125224,2.1408194665288747,-0.48980888655272975,0.7638152138387713,-2.6732531116600793,0.26464235371541506,3.7565202859531403e-10,-0.1357704,-1.04138055,10.2813705,0.004188,0.010433,-0.033282,0.06178784238266947
1757933662.5312765,-0.7069639632101427,1.1086885668125224,2.1408194665288747,-0.48980888655272975,0.7638152138387713,-2.6732531116600793,0.26464235371541506,3.7565202859531403e-10,-0.1357704,-1.04138055,10.2813705,0.004188,0.010433,-0.033282,0.06178784238266947
1757933662.5513587,-0.7118863807518152,1.1161672393835558,2.1408675194712465,-0.48958049423563055,0.7633957934200414,-2.6732531116600793,0.26464235371541506,3.3076210191643024e-10,0.29069973,-2.02783491,9.7610481,-0.013765,0.006303,0.021201,0.06219211730921195
1757933662.5718672,-0.7118863807518152,1.1161672393835558,2.1408675194712465,-0.48958049423563055,0.7633957934200414,-2.6732531116600793,0.26464235371541506,3.3076210191643024e-10,0.29069973,-2.02783491,9.7610481,-0.013765,0.006303,0.021201,0.06219211730921195
1757933662.5922313,-0.7118863807518152,1.1161672393835558,2.1408675194712465,-0.48958049423563055,0.7633957934200414,-2.6732531116600793,0.26464235371541506,3.3076210191643024e-10,0.29069973,-2.02783491,9.7610481,-0.013765,0.006303,0.021201,0.06219211730921195
1757933662.6129115,-0.7319402556238167,1.1473377485071397,2.140891881822128,-0.48911082401552225,0.7626305622654992,-2.6732531116600793,0.26464235371541506,3.084398224629178e-10,0.45146601000000003,-1.75375332,9.72856719,0.001353,-0.033676,0.047893,0.06837223116579275
1757933662.6332564,-0.7242542107243493,1.1351618701252693,2.14093727900502,-0.48852980801203166,0.7616637468589561,-2.6732531116600793,0.26464235371541506,2.7035262588711146e-10,0.10313253,-0.11945637,9.326955600000002,0.021748,-0.007079,-0.050882,0.06308608349201458
1757933662.653642,-0.7242542107243493,1.1351618701252693,2.14093727900502,-0.48852980801203166,0.7616637468589561,-2.6732531116600793,0.26464235371541506,2.7035262588711146e-10,0.10313253,-0.11945637,9.326955600000002,0.021748,-0.007079,-0.050882,0.06308608349201458
1757933662.6739902,-0.7242542107243493,1.1351618701252693,2.14093727900502,-0.48852980801203166,0.7616637468589561,-2.6732531116600793,0.26464235371541506,2.7035262588711146e-10,0.10313253,-0.11945637,9.326955600000002,0.021748,-0.007079,-0.050882,0.06308608349201458
1757933662.7004232,-0.7498736413562792,1.175007733907695,2.1409606628781823,-0.4876966209126124,0.7603326087526494,-2.6732531116600793,0.26464235371541506,2.510620896923994e-10,0.45206442,1.1439244800000001,10.43090433,0.04795,-0.026245,-0.010719,0.07101585981204983
1757933662.7204652,-0.7411388573380714,1.161202379726623,2.1410040308705183,-0.48661710317427465,0.7585910151488886,-2.6732531116600793,0.26464235371541506,2.1860046368659218e-10,-0.01377324,2.19608622,10.125989910000001,0.017823,0.019833,-0.000891,0.06468922466116216
1757933662.7461016,-0.7285459900799427,1.1413056829713741,2.141061709870809,-0.4860608916763019,0.7576484153986514,-2.6732531116600793,0.26464235371541506,1.8098645495836135e-10,0.21899844000000002,1.23029172,10.09500993,-0.023262,0.008835,-0.013114,0.059735529780613125
1757933662.7672307,-0.7246932764988047,1.1352153593200733,2.141079247736835,-0.4860846247241008,0.7576630023435915,-2.6732531116600793,0.26464235371541506,1.7060112024151349e-10,0.0666099,0.57031416,9.699529590000001,-0.001879,0.0082,0.034587,0.0587168040762237
1757933662.7903159,-0.7249863510499945,1.1355061644105373,2.1411130722989666,-0.48627069013438884,0.7579107802639397,-2.6732531116600793,0.26464235371541506,1.5136384741162458e-10,0.20357712,-1.60676028,10.31145777,-0.023478,-0.017753,-0.007092,0.05934353962904573
1757933662.8103905,-0.7263850764606751,1.1376052384903461,2.141129204281077,-0.48643081977438113,0.7581403294778041,-2.6732531116600793,0.26464235371541506,1.4263021895931322e-10,0.10403505,-2.03831199,10.00878984,-0.008918,0.049685,0.000998,0.060102961455881086
1757933662.8310814,-0.7260664521985691,1.1370289763511445,2.14114484165888,-0.48662081276124963,0.7584169952499312,-2.6732531116600793,0.26464235371541506,1.3443253373577028e-10,0.53663643,-1.93621932,9.828109260000002,0.008065,0.011838,0.006244,0.06007601681486631
1757933662.8514724,-0.7260664521985691,1.1370289763511445,2.14114484165888,-0.48662081276124963,0.7584169952499312,-2.6732531116600793,0.26464235371541506,1.3443253373577028e-10,0.53663643,-1.93621932,9.828109260000002,0.008065,0.011838,0.006244,0.06007601681486631
1757933662.8727918,-0.7397406161743441,1.1582607970609982,2.1411607957564422,-0.4866552127338383,0.7584504392315083,-2.6732531116600793,0.26464235371541506,1.2603510494926144e-10,0.50085936,-1.6218774900000001,10.0063962,-0.033549,0.046516,-0.007892,0.06473893689702953
1757933662.8934803,-0.7358289367706234,1.1520862616356982,2.141176022563286,-0.4867382348333588,0.7585603355629903,-2.6732531116600793,0.26464235371541506,1.1841556384623714e-10,0.9234251100000002,-0.09729558,10.13272938,0.036302,-0.012854,0.001763,0.062488030161686144
1757933662.91621,-0.7438350682006786,1.1644856314240444,2.141191216245403,-0.48669560611841234,0.7584742235645076,-2.6732531116600793,0.26464235371541506,1.1094813671103281e-10,0.01212516,-0.02544714,9.94950801,0.001135,-0.030152,0.001417,0.06477851584392394
1757933662.936927,-0.7358768692370516,1.151932824891421,2.141219555455253,-0.4867910053909098,0.7585861523179694,-2.6732531116600793,0.26464235371541506,9.802379628313403e-11,0.12169305,2.1318699600000004,9.891884070000001,0.040142,-0.007863,-0.007331,0.06084384253637452
1757933662.957382,-0.733355105742276,1.1479299075861134,2.141232855974728,-0.4869131558571396,0.7587594345509618,-2.6732531116600793,0.26464235371541506,9.234455893828544e-11,-0.24414147,2.19099483,9.61180857,-0.001074,-0.007345,9.1e-05,0.059967962689345386
1757933662.9775658,-0.739395631693664,1.1572703168581864,2.1412460638603914,-0.4869878294295077,0.7588590113260403,-2.6732531116600793,0.26464235371541506,8.679798238722293e-11,0.89229798,2.30131809,9.99351567,-0.0032,0.020434,0.074659,0.06217691285556369
1757933662.9979174,-0.7361393317992555,1.1521249940563918,2.1412587110967625,-0.48710505983631824,0.7590255588118758,-2.6732531116600793,0.26464235371541506,8.17174877898185e-11,-0.74784573,1.6831017000000001,9.95534496,-0.019084,0.023017,-0.04593,0.0607218465659328
1757933663.0180016,-0.7409486915266309,1.1595486651170201,2.141271207516777,-0.4871740658729004,0.7591171657028244,-2.6732531116600793,0.26464235371541506,7.680298242025801e-11,0.34503732000000004,1.14780924,9.61061175,0.003147,-0.002154,-0.033827,0.06231741914081334
1757933663.0386448,-0.7385892416403435,1.1558030202665681,2.141283212903369,-0.4872734797386896,0.7592567204790629,-2.6732531116600793,0.26464235371541506,7.22768066619991e-11,0.6568383600000001,-0.21031659,10.24035489,-0.029808,-0.014969,0.044809,0.06112434173271268
1757933663.0594866,-0.7426479515480225,1.162058771437589,2.141295039628214,-0.4873265333738043,0.7593242465403391,-2.6732531116600793,0.26464235371541506,6.792425678602576e-11,-0.56163231,-0.76475817,9.41392125,-0.015968,0.016197,-0.030641,0.062366497553642354
1757933663.0798059,-0.7412903362778884,1.1598761733148948,2.1413064441715424,-0.48739751496423556,0.7594202021765494,-2.6732531116600793,0.26464235371541506,6.389117651106264e-11,0.5224119300000001,-1.93621932,10.22763132,-0.019576,0.006941,-0.052777,0.06149960623805793
1757933663.1011796,-0.7491956769933872,1.1721266836899895,2.141317840610866,-0.4873500103539662,0.7593314125079608,-2.6732531116600793,0.26464235371541506,5.992699737966555e-11,0.47691315,-1.58894532,10.08841761,0.020037,0.012886,-0.016746,0.06394064658271513
1757933663.1222231,-0.7452717548288229,1.1659473610629174,2.14132871322391,-0.4873606530752832,0.7593338747574672,-2.6732531116600793,0.26464235371541506,5.6326537504756556e-11,0.16690734000000002,-1.54403514,10.08857457,0.00027,0.007265,-0.005342,0.06187719160776915
1757933663.147004,-0.7460880569070885,1.1670908665644517,2.1413496399556093,-0.4873364355758381,0.7592690380803971,-2.6732531116600793,0.26464235371541506,4.9732687360936395e-11,-0.0751446,-0.3501189,9.783503190000001,-0.009311,-0.026575,0.078949,0.061422758515366986
1757933663.1674857,-0.7460880569070885,1.1670908665644517,2.1413496399556093,-0.4873364355758381,0.7592690380803971,-2.6732531116600793,0.26464235371541506,4.9732687360936395e-11,-0.0751446,-0.3501189,9.783503190000001,-0.009311,-0.026575,0.078949,0.061422758515366986
1757933663.1878507,-0.7460880569070885,1.1670908665644517,2.1413496399556093,-0.4873364355758381,0.7592690380803971,-2.6732531116600793,0.26464235371541506,4.9732687360936395e-11,-0.0751446,-0.3501189,9.783503190000001,-0.009311,-0.026575,0.078949,0.061422758515366986
1757933663.208991,-0.7666853827120476,1.1991170363647226,2.141360373848112,-0.4869312110011939,0.7586231682047097,-2.6732531116600793,0.26464235371541506,4.6401261808164396e-11,0.10448631000000001,0.71670879,9.33728553,0.009921,-0.023161,0.104606,0.06805723468643785
1757933663.235395,-0.753874926924344,1.1789737807114424,2.141389544864845,-0.4863606786131236,0.7576956416028643,-2.6732531116600793,0.26464235371541506,3.826721575870953e-11,0.53633232,2.11644864,9.55762794,0.012039,-0.027389,-0.039276,0.06099443654052898
1757933663.256321,-0.75393953329207,1.1790148648211047,2.141398517287932,-0.48630309608481387,0.7575944677148777,-2.6732531116600793,0.26464235371541506,3.5976680932525473e-11,0.47885553000000003,1.7811428400000002,9.95833701,-0.005324,-0.014868,-0.001577,0.061065187320161016
1757933663.276732,-0.7521872951496149,1.1762265922188604,2.141407154207271,-0.4862983804597379,0.7575762137777728,-2.6732531116600793,0.26464235371541506,3.385561784329211e-11,0.00329616,1.35438822,9.56630979,0.006883,0.004754,-0.034772,0.06045916622948022
1757933663.2977147,-0.7568997849992309,1.1835099410088044,2.141415688652211,-0.4862641695791556,0.7575122594039461,-2.6732531116600793,0.26464235371541506,3.180580466751309e-11,0.41344245,0.6478524,9.787849020000001,0.001733,-0.013369,0.009698,0.06216656116237272
1757933663.3185656,-0.754295941709614,1.1793967204476392,2.1414238698040666,-0.4862808832682054,0.7575280450829448,-2.6732531116600793,0.26464235371541506,2.992090295297151e-11,0.10552617,-0.27453285,9.58561587,-0.036968,0.02062,0.018239,0.06099019498462179
1757933663.3387733,-0.7601093798265908,1.1883964455133469,2.1414319866974143,-0.4862366878077002,0.7574490103449513,-2.6732531116600793,0.26464235371541506,2.8088805211686943e-11,0.20627487000000003,-0.79230465,9.69503661,-0.027575,-0.025385,-0.002245,0.06292263714838874
1757933663.3597105,-0.7580853629711705,1.185188021930749,2.1414397818845776,-0.48623083213374296,0.7574300443335601,-2.6732531116600793,0.26464235371541506,2.6400626045091738e-11,-0.07349652000000001,-1.52817237,9.841735350000002,-0.036566,0.010506,-0.015338,0.06177325091142942
1757933663.3803542,-0.7640466372042671,1.1944192141265757,2.1414475165559654,-0.4861450638461803,0.7572865949297058,-2.6732531116600793,0.26464235371541506,2.4762516346211487e-11,0.30790647,-1.3223487600000001,9.817033770000002,0.013871,0.007064,0.002034,0.0635834117043299
1757933663.401415,-0.7599181698812064,1.1879342156219983,2.1414548782433664,-0.48612920423830885,0.7572524980295205,-2.6732531116600793,0.26464235371541506,2.327516489038801e-11,0.01826622,-1.3066331400000002,9.87227388,-0.005692,0.009116,-0.007334,0.061590707938290745
1757933663.4268436,-0.7606406905331126,1.1889540758444852,2.141469013423297,-0.4860938718837443,0.7571795270188355,-2.6732531116600793,0.26464235371541506,2.055433183370234e-11,0.48483963,0.17722746,9.98124336,-0.016291,-0.051666,0.034837,0.06138018991753382
1757933663.4473407,-0.7606406905331126,1.1889540758444852,2.141469013423297,-0.4860938718837443,0.7571795270188355,-2.6732531116600793,0.26464235371541506,2.055433183370234e-11,0.48483963,0.17722746,9.98124336,-0.016291,-0.051666,0.034837,0.06138018991753382
1757933663.4679978,-0.7627483049158444,1.1921341979215998,2.1414824490536635,-0.4860032109223267,0.7570212025341931,-2.6732531116600793,0.26464235371541506,1.8127648252307046e-11,0.26958861,1.7989578,9.85835349,-0.002805,-0.030625,-0.022877,0.06142772304223047
1757933663.4882767,-0.7627483049158444,1.1921341979215998,2.1414824490536635,-0.4860032109223267,0.7570212025341931,-2.6732531116600793,0.26464235371541506,1.8127648252307046e-11,0.26958861,1.7989578,9.85835349,-0.002805,-0.030625,-0.022877,0.06142772304223047
1757933663.5091038,-0.774097575787449,1.2097614330099027,2.141489094067863,-0.4858094503255814,0.7567107762372091,-2.6732531116600793,0.26464235371541506,1.6969857971412767e-11,0.35416062000000004,2.73107457,9.47829447,0.042331,0.014316,-0.026278,0.06513142254308063
1757933663.5314496,-0.7676840861810281,1.1996726897097887,2.141501460006273,-0.48563895983626143,0.7564292756589557,-2.6732531116600793,0.26464235371541506,1.4959860803341383e-11,-0.09415638000000001,2.5376704200000004,9.62363943,-0.00385,0.006614,0.006098,0.061704038809815634
1757933663.5520275,-0.7664121654104809,1.1976433142049858,2.14150729047458,-0.4856172561984418,0.7563880918071917,-2.6732531116600793,0.26464235371541506,1.4065976685790142e-11,0.16211025,1.7431290900000003,9.59070726,-0.008211,0.000217,0.030431,0.061147150384194174
1757933663.5730321,-0.7664121654104809,1.1976433142049858,2.14150729047458,-0.4856172561984418,0.7563880918071917,-2.6732531116600793,0.26464235371541506,1.4065976685790142e-11,0.16211025,1.7431290900000003,9.59070726,-0.008211,0.000217,0.030431,0.061147150384194174
1757933663.593319,-0.770845501031577,1.2044535946208472,2.1415186829658186,-0.48543919475503494,0.7560963213073107,-2.6732531116600793,0.26464235371541506,1.2387230791522183e-11,-0.051198389999999996,-0.34174116,9.75341592,-0.042087,0.030608,-0.013353,0.06205303444829324
1757933663.614048,-0.7727266947818622,1.2073371547627132,2.141524109487575,-0.48536904783542767,0.7559802180258582,-2.6732531116600793,0.26464235371541506,1.1629459995061318e-11,0.7198578,-1.59508638,10.49647437,-0.025843,-0.016842,0.055955,0.06249413940774789
1757933663.6345487,-0.7697642857239868,1.2026774412709924,2.1415292925905947,-0.485355717525947,0.7559529423812064,-2.6732531116600793,0.26464235371541506,1.0934619620593118e-11,-0.09714843000000001,-1.9173645000000001,10.03363857,-0.001442,0.023176,0.02969,0.061181852969335225
1757933663.6559012,-0.7754328954749179,1.2114611488380933,2.141534434315565,-0.4852775586591587,0.7558247618679453,-2.6732531116600793,0.26464235371541506,1.0260240208227568e-11,0.23007393000000004,-1.7744131800000003,9.90805095,0.007402,0.009227,-0.003046,0.06308668997235052
1757933663.675936,-0.7716941252733596,1.2055935471739436,2.1415393256512596,-0.4852643714019894,0.7557980832884641,-2.6732531116600793,0.26464235371541506,9.645490288286584e-12,0.03248091,-1.3338755100000002,9.815689800000001,0.012978,0.008795,-0.006323,0.06137185543447987
1757933663.6963096,-0.7758471209573945,1.2120178341709311,2.141544145913584,-0.485207480957023,0.7557034443549985,-2.6732531116600793,0.26464235371541506,9.054545805711318e-12,0.34054434000000006,-0.5051953800000001,9.80521272,0.012028,-0.002726,-0.009139,0.06272225632377257
1757933663.7166994,-0.7733551636954821,1.2080934196094215,2.1415487557431607,-0.485196792307917,0.7556810269667296,-2.6732531116600793,0.26464235371541506,8.511132321599281e-12,-0.33514884,0.69845238,9.56660409,0.058961,0.035938,-0.019038,0.06151178951813378
1757933663.7375202,-0.7777044845233813,1.2148245534347044,2.1415533019250574,-0.4851354684614123,0.7555798217686809,-2.6732531116600793,0.26464235371541506,7.98826203169488e-12,0.66536325,0.75248586,10.30607208,-0.03039,-0.011736,0.128523,0.06289379670446904
1757933663.7580304,-0.775370041013663,1.2111466637513626,2.1415576508244847,-0.48511711760042,0.7555457891514591,-2.6732531116600793,0.26464235371541506,7.507129324312273e-12,2.34023436,2.75652171,9.540558540000001,0.125401,0.042133,0.84608,0.061701276338429326
1757933663.778366,-0.775370041013663,1.2111466637513626,2.1415576508244847,-0.48511711760042,0.7555457891514591,-2.6732531116600793,0.26464235371541506,7.507129324312273e-12,2.34023436,2.75652171,9.540558540000001,0.125401,0.042133,0.84608,0.061701276338429326
1757933663.7988188,-0.775370041013663,1.2111466637513626,2.1415576508244847,-0.48511711760042,0.7555457891514591,-2.6732531116600793,0.26464235371541506,7.507129324312273e-12,2.34023436,2.75652171,9.540558540000001,0.125401,0.042133,0.84608,0.061701276338429326
1757933663.8188267,-0.7908258880001431,1.2351342071048967,2.141566577187141,-0.48435665619146306,0.7543492541752725,-2.6732531116600793,0.26464235371541506,6.546375190821126e-12,0.46268865000000003,2.4679213200000003,9.799218810000001,0.014721,0.080918,1.355924,0.06510272559298962
1757933663.8398402,-0.7816436268841938,1.2207526137633222,2.1415745586797286,-0.48405154780683063,0.7538637084959753,-2.6732531116600793,0.26464235371541506,5.766435767749754e-12,0.08442486000000002,2.27242764,10.90063656,-0.002145,0.022734,1.3739,0.06101388822151578
1757933663.8606265,-0.7823941933683601,1.2218820142814006,2.1415783244247457,-0.4839793959749831,0.7537467118826016,-2.6732531116600793,0.26464235371541506,5.417577369983502e-12,0.16555356,2.5110264600000005,9.63621585,0.043073,0.031668,1.400187,0.06142411523613398
1757933663.880618,-0.7814070867301595,1.2203057788183385,2.1415819474257347,-0.48395182207744775,0.7536994064348901,-2.6732531116600793,0.26464235371541506,5.092859795483754e-12,0.64950048,1.1060480700000002,10.53493938,0.001941,0.04064,1.505105,0.06111407040223099
1757933663.9017022,-0.7852207130046904,1.226206537457064,2.1415855116913427,-0.4839000774099869,0.7536145787123196,-2.6732531116600793,0.26464235371541506,4.781054497018955e-12,0.11451213,1.4983794,10.60484544,0.025525,0.101732,1.51578,0.06249303462162385
1757933663.9224818,-0.7843085869829415,1.2247480758730116,2.14158893795761,-0.483878102930986,0.7535762572060464,-2.6732531116600793,0.26464235371541506,4.491206054115208e-12,-0.09430353000000001,0.54127656,10.615479480000001,-0.014753,0.0705,1.467271,0.06194422676697494
1757933663.9435337,-0.7860131197063339,1.227365192018361,2.1415922729979213,-0.4838490823338752,0.7535270622040021,-2.6732531116600793,0.26464235371541506,4.216968856565516e-12,0.10373094000000001,0.43319979,8.69855643,0.026854,0.014212,1.414829,0.06240812431467872
1757933663.9636407,-0.7848529862816556,1.2255215591166013,2.1415954741916696,-0.4838497609052335,0.7535242688344002,-2.6732531116600793,0.26464235371541506,3.962316654997055e-12,0.06466752,-0.33784659,9.78005988,0.00117,0.002802,1.431908,0.06178938230713287
1757933663.9838083,-0.7900266575554556,1.233542207555271,2.1415986414125427,-0.4837843109120145,0.7534184840320892,-2.6732531116600793,0.26464235371541506,3.7160815229765895e-12,-0.11376657,-0.5695686,8.77101309,0.061854,0.036757,1.41371,0.06345819644478504
1757933664.004171,-0.7855946199947575,1.2266041171521531,2.1416016311947494,-0.4837911973696873,0.753425556548396,-2.6732531116600793,0.26464235371541506,3.4925592687611063e-12,-0.11376657,-0.5695686,8.77101309,0.061854,0.036757,1.41371,0.06149443587271264
1757933664.0261564,-0.7850622721077389,1.2257047731132131,2.1416073257599866,-0.48382207907541563,0.7534667678816346,-2.6732531116600793,0.26464235371541506,3.084562763655541e-12,-0.018707670000000003,-1.05515379,9.49131234,0.040868,0.05114,1.523556,0.06110656944626394
1757933664.046801,-0.7850622721077389,1.2257047731132131,2.1416073257599866,-0.48382207907541563,0.7534667678816346,-2.6732531116600793,0.26464235371541506,3.084562763655541e-12,-0.018707670000000003,-1.05515379,9.49131234,0.040868,0.05114,1.523556,0.06110656944626394
1757933664.067514,-0.7866683283900893,1.2281374445227158,2.1416126768852006,-0.48383692120108934,0.7534834077135487,-2.6732531116600793,0.26464235371541506,2.7218609509277647e-12,-0.47601063,-0.7011403199999999,10.384807140000001,0.026177,0.008036,1.499994,0.06135438865616856
1757933664.087912,-0.7866683283900893,1.2281374445227158,2.1416126768852006,-0.48383692120108934,0.7534834077135487,-2.6732531116600793,0.26464235371541506,2.7218609509277647e-12,-0.47601063,-0.7011403199999999,10.384807140000001,0.026177,0.008036,1.499994,0.06135438865616856
1757933664.1086674,-0.7970477970404345,1.2442676223781826,2.1416153193204757,-0.4837058174583467,0.7532759123012577,-2.6732531116600793,0.26464235371541506,2.548792582893835e-12,-0.27078543,-0.80488107,10.02151341,0.090369,0.083489,1.48654,0.06485599936488504
1757933664.1339283,-0.7920791967568503,1.2364640438246775,2.1416201971440305,-0.4836158238235513,0.7531296817889855,-2.6732531116600793,0.26464235371541506,2.2462731786196116e-12,-0.8497814400000001,-0.5174775,9.162598860000001,0.040348,0.014104,1.5432,0.062194763948606235
1757933664.1544027,-0.7888771008067319,1.2314452755726968,2.141622462907109,-0.48363620057169315,0.753158662107367,-2.6732531116600793,0.26464235371541506,2.1123990387406457e-12,-0.46942812,0.11855385,9.79413723,0.058493,0.141378,1.464729,0.060952711683307396
1757933664.1770403,-0.7949161926076355,1.2408179160706991,2.14162471668282,-0.48358543347452737,0.7530768908030462,-2.6732531116600793,0.26464235371541506,1.9819030936665313e-12,0.9842078700000001,-0.15687171,8.48166714,0.01919,-0.017699,1.496017,0.06312701435872425
1757933664.197955,-0.790458320158526,1.2338444244972933,2.1416268350782275,-0.4836047430064298,0.7531044145816379,-2.6732531116600793,0.26464235371541506,1.863335201363294e-12,-0.24638796000000002,0.33141123,9.34013043,-0.000105,0.0656,1.521656,0.061233850886536496
1757933664.2190497,-0.7949740663101018,1.2408456123666276,2.1416289249321423,-0.4835723770639498,0.7530515137732452,-2.6732531116600793,0.26464235371541506,1.7488982553099005e-12,0.74230308,1.2003516,9.75326877,0.082705,0.128555,1.552701,0.06282301663781346
1757933664.2398002,-0.7921589242672173,1.236431143141315,2.1416309048732565,-0.48358613010967216,0.7530705654518742,-2.6732531116600793,0.26464235371541506,1.643763465600794e-12,0.04460607,0.46178613,9.40853556,0.034277,0.053511,1.569957,0.061556344488395184
1757933664.2658083,-0.792849600347032,1.2374467508377212,2.141634688440236,-0.48356970379052794,0.7530404633536129,-2.6732531116600793,0.26464235371541506,1.450203600823205e-12,0.65473902,1.22280669,9.02458197,0.062042,0.10534,1.526997,0.061452500363450305
1757933664.2866826,-0.792849600347032,1.2374467508377212,2.141634688440236,-0.48356970379052794,0.7530404633536129,-2.6732531116600793,0.26464235371541506,1.450203600823205e-12,0.65473902,1.22280669,9.02458197,0.062042,0.10534,1.526997,0.061452500363450305
1757933664.3076248,-0.7940856846095674,1.2393132379704352,2.1416382112981704,-0.4835372300211698,0.7529856777544925,-2.6732531116600793,0.26464235371541506,1.2790393119306014e-12,0.72823554,1.3690541699999998,9.28773522,0.022058,0.047437,1.53756,0.061514137396650154
1757933664.3282917,-0.7940856846095674,1.2393132379704352,2.1416382112981704,-0.4835372300211698,0.7529856777544925,-2.6732531116600793,0.26464235371541506,1.2790393119306014e-12,0.72823554,1.3690541699999998,9.28773522,0.022058,0.047437,1.53756,0.061514137396650154
1757933664.3493094,-0.7953483955712157,1.2412226585590798,2.1416414926561007,-0.4834719267572942,0.752880035556268,-2.6732531116600793,0.26464235371541506,1.1275189780828727e-12,0.41134311000000007,1.07146782,9.61345665,0.022795,0.024626,1.564065,0.06150200807146617
1757933664.3696551,-0.7953483955712157,1.2412226585590798,2.1416414926561007,-0.4834719267572942,0.752880035556268,-2.6732531116600793,0.26464235371541506,1.1275189780828727e-12,0.41134311000000007,1.07146782,9.61345665,0.022795,0.024626,1.564065,0.06150200807146617
1757933664.3900476,-0.7953483955712157,1.2412226585590798,2.1416414926561007,-0.4834719267572942,0.752880035556268,-2.6732531116600793,0.26464235371541506,1.1275189780828727e-12,0.41134311000000007,1.07146782,9.61345665,0.022795,0.024626,1.564065,0.06150200807146617
1757933664.4106126,-0.7953483955712157,1.2412226585590798,2.1416414926561007,-0.4834719267572942,0.752880035556268,-2.6732531116600793,0.26464235371541506,1.1275189780828727e-12,0.41134311000000007,1.07146782,9.61345665,0.022795,0.024626,1.564065,0.06150200807146617
1757933664.4314241,-0.8209809921662333,1.2811099888497062,2.1416432497646003,-0.48286960296261,0.7519393393513105,-2.6732531116600793,0.26464235371541506,1.0490925649513098e-12,0.02754648,0.48005235,10.396481040000001,-0.010817,0.026884,1.498923,0.06995776588068521
1757933664.4517977,-0.8209809921662333,1.2811099888497062,2.1416432497646003,-0.48286960296261,0.7519393393513105,-2.6732531116600793,0.26464235371541506,1.0490925649513098e-12,0.02754648,0.48005235,10.396481040000001,-0.010817,0.026884,1.498923,0.06995776588068521
1757933664.472175,-0.8209809921662333,1.2811099888497062,2.1416432497646003,-0.48286960296261,0.7519393393513105,-2.6732531116600793,0.26464235371541506,1.0490925649513098e-12,0.02754648,0.48005235,10.396481040000001,-0.010817,0.026884,1.498923,0.06995776588068521
1757933664.499212,-0.848969988583011,1.3246658134066045,2.1416452027734483,-0.4811101083357491,0.7491951783682042,-2.6732531116600793,0.26464235371541506,9.66395555595957e-13,0.5441214600000001,1.11443562,9.39595914,0.032853,0.098205,1.444408,0.07691660078604742
1757933664.5203197,-0.8374233628892864,1.306627969029076,2.141648713584681,-0.47881689093300916,0.7456183209038807,-2.6732531116600793,0.26464235371541506,8.305885734822392e-13,-0.35161983,0.30416886,9.632321280000001,0.008928,-0.013547,1.616094,0.06804346428807018
1757933664.5464988,-0.8211908625707753,1.2812688179609912,2.1416530935608,-0.4773063763504394,0.743260770548915,-2.6732531116600793,0.26464235371541506,6.777902703555229e-13,-0.30027429,0.01227231,9.94591755,0.047549,0.13577,1.566222,0.0616875656612324
1757933664.5737019,-0.8057991087275248,1.2572235557189146,2.1416565756896206,-0.4772475823503118,0.7431662030721964,-2.6732531116600793,0.26464235371541506,5.645467143227303e-13,-0.43260138,-0.06601149,11.183243040000002,-0.011775,-0.06424,1.601633,0.0582870927289827
1757933664.5945485,-0.7964308694404946,1.2425862553707685,2.1416584800644802,-0.4777524881662311,0.743951248707286,-2.6732531116600793,0.26464235371541506,5.038578603447475e-13,-0.30386475,-0.17798283,10.262662830000002,0.022994,0.094909,1.563749,0.05692345473612355
1757933664.6168864,-0.7989654081387809,1.2465089604816093,2.141659368720089,-0.4781376406362015,0.7445506681774543,-2.6732531116600793,0.26464235371541506,4.755417951600436e-13,-0.24818319,-0.01406754,10.57461102,0.021342,0.062305,1.519727,0.0589181132938923
1757933664.6376517,-0.7943359980129258,1.239276480823436,2.141660183615315,-0.4785723534935495,0.7452272391167459,-2.6732531116600793,0.26464235371541506,4.4945742247403937e-13,-0.04295799,0.09490194,11.01634551,-0.007051,0.043569,1.539699,0.057908780501223785
1757933664.658922,-0.7989920065093967,1.2465033912119987,2.141660984021618,-0.47903805239857405,0.7459520842402746,-2.6732531116600793,0.26464235371541506,4.237749493881711e-13,0.18965673,0.5897772,9.130559400000001,0.046018,0.018439,1.584929,0.0603351997768044
1757933664.6797554,-0.7952810839444683,1.2407018201614801,2.1416617192310277,-0.4795219450149288,0.7467051989487349,-2.6732531116600793,0.26464235371541506,4.000312960725409e-13,0.18891117000000002,-0.01721655,10.13497587,0.014562,0.122738,1.616261,0.059300337598866826
1757933664.7052922,-0.804829631857178,1.2555478394498452,2.141662466280005,-0.47992791468917695,0.7473368159069521,-2.6732531116600793,0.26464235371541506,3.760197947946792e-13,0.48574215000000004,0.32677110000000004,9.72168057,-0.012328,0.029409,1.600889,0.0630368189202484
1757933664.7257318,-0.8000947061469907,1.2481522356964285,2.1416631447365777,-0.4803411089254008,0.7479796590265617,-2.6732531116600793,0.26464235371541506,3.5411946150557936e-13,-0.23980545000000003,0.39787398,10.27522944,-0.012731,-0.025801,1.524061,0.06107063313576836
1757933664.7461617,-0.7969129313610133,1.2431536866858408,2.1416643763715726,-0.4811134773749803,0.7491812609034545,-2.6732531116600793,0.26464235371541506,3.141960931522484e-13,-0.50145777,0.24309180000000002,10.28017368,0.03574,0.083441,1.135823,0.06008010758364886
1757933664.7666812,-0.7969129313610133,1.2431536866858408,2.1416643763715726,-0.4811134773749803,0.7491812609034545,-2.6732531116600793,0.26464235371541506,3.141960931522484e-13,-0.50145777,0.24309180000000002,10.28017368,0.03574,0.083441,1.135823,0.06008010758364886
1757933664.7870123,-0.7988097037617649,1.246064455628013,2.141665485598666,-0.4817427560738933,0.7501600724529783,-2.6732531116600793,0.26464235371541506,2.7815213304665457e-13,-0.18710613,0.24668226000000004,9.894572010000001,0.020039,0.032247,0.855186,0.060782734381942746
1757933664.8073869,-0.7988097037617649,1.246064455628013,2.141665485598666,-0.4817427560738933,0.7501600724529783,-2.6732531116600793,0.26464235371541506,2.7815213304665457e-13,-0.18710613,0.24668226000000004,9.894572010000001,0.020039,0.032247,0.855186,0.060782734381942746
1757933664.8275337,-0.7995052515516813,1.2471057981333535,2.1416664666375045,-0.48223925480411156,0.7509321937265624,-2.6732531116600793,0.26464235371541506,2.4606624573369153e-13,-1.9573304400000002,0.83256489,11.20883733,0.052644,-0.114534,-0.609273,0.06089523029389822
1757933664.848175,-0.7995052515516813,1.2471057981333535,2.1416664666375045,-0.48223925480411156,0.7509321937265624,-2.6732531116600793,0.26464235371541506,2.4606624573369153e-13,-1.9573304400000002,0.83256489,11.20883733,0.052644,-0.114534,-0.609273,0.06089523029389822
1757933664.868403,-0.8001929770590132,1.2481360252515241,2.141667327970601,-0.4826193219930154,0.7515231324823259,-2.6732531116600793,0.26464235371541506,2.1757330653523205e-13,0.49366863,0.87582699,9.84577707,-0.036194,0.026853,-0.069952,0.060976413845149194
1757933664.8939638,-0.8048802095848073,1.2554148789624096,2.1416677250353597,-0.4827459793555286,0.7517199533132494,-2.6732531116600793,0.26464235371541506,2.0438436084470787e-13,-2.40849234,-0.85576554,9.863739180000001,-0.026872,-0.029271,-0.376885,0.06268972978334751
1757933664.9145398,-0.8015910393318654,1.2502733944897835,2.1416680795409917,-0.482896538106824,0.7519540518199822,-2.6732531116600793,0.26464235371541506,1.9227020799773142e-13,0.8241871500000001,-2.25880155,10.45126989,-0.033723,-0.009541,-0.113373,0.06130052057463865
1757933664.9352944,-0.8065897793828835,1.2580377965945315,2.141668427480367,-0.48295983764442724,0.7520522630341653,-2.6732531116600793,0.26464235371541506,1.805121289346544e-13,0.6753988800000001,-2.35190826,10.39289058,-0.005294,0.041808,0.039909,0.06304504084999127
1757933664.9553967,-0.8026292454189047,1.2518513735053904,2.141668732481392,-0.48306323013791735,0.7522129696367118,-2.6732531116600793,0.26464235371541506,1.6977133740589216e-13,0.33874911,-2.31748497,9.16544376,0.024319,0.009759,-0.052203,0.06135367558932952
1757933664.9757364,-0.8026292454189047,1.2518513735053904,2.141668732481392,-0.48306323013791735,0.7522129696367118,-2.6732531116600793,0.26464235371541506,1.6977133740589216e-13,0.33874911,-2.31748497,9.16544376,0.024319,0.009759,-0.052203,0.06135367558932952
1757933664.9961367,-0.8026292454189047,1.2518513735053904,2.141668732481392,-0.48306323013791735,0.7522129696367118,-2.6732531116600793,0.26464235371541506,1.6977133740589216e-13,0.33874911,-2.31748497,9.16544376,0.024319,0.009759,-0.052203,0.06135367558932952
1757933665.0195475,-0.8190843693822564,1.2774364566100866,2.141669414460339,-0.48242041175856104,0.7512107277804225,-2.6732531116600793,0.26464235371541506,1.4805660933012486e-13,2.3197216500000004,-0.19699461000000001,9.57334356,0.009221,-0.105233,0.108712,0.06531668769722565
1757933665.0400836,-0.8099616098725241,1.263193664024851,2.141669924267317,-0.4821762697747194,0.7508299198590005,-2.6732531116600793,0.26464235371541506,1.3036546235719834e-13,-0.07724394000000001,1.0797082199999999,9.858794940000001,0.032208,0.015168,0.098001,0.06135933830160962
1757933665.066756,-0.8050090600977391,1.255445706667982,2.1416703108075446,-0.48216354181847104,0.7508099449060733,-2.6732531116600793,0.26464235371541506,1.1529293933150254e-13,-0.44188164,1.2091806,9.89756406,-0.010457,0.050053,0.082587,0.059960913205108525
1757933665.0935078,-0.8087041346647286,1.2611818888460846,2.141670477033486,-0.4821831394579142,0.7508405091650397,-2.6732531116600793,0.26464235371541506,1.083564580100524e-13,-0.7578715500000001,1.2278980800000001,9.68650191,-0.003969,-0.022898,0.052364,0.061655761939857216
1757933665.1143224,-0.805488750774871,1.2561575985751106,2.1416706112283945,-0.48225540239526754,0.7509531084703048,-2.6732531116600793,0.26464235371541506,1.0197276448342631e-13,-0.95381649,0.8527734900000001,9.86089428,-0.009298,0.006108,0.011252,0.06057043026680964
1757933665.1369686,-0.811330109003534,1.2652363184093176,2.141670743571739,-0.4822631385911384,0.750965218489642,-2.6732531116600793,0.26464235371541506,9.573443378560405e-14,-0.44621766,0.4504163400000001,9.72707607,-0.00242,0.01119,-0.032086,0.06281246495739529
1757933665.1574013,-0.8067542015257478,1.2580938837611408,2.14167084092602,-0.4823336527757887,0.7510750957995483,-2.6732531116600793,0.26464235371541506,9.005587577424744e-14,0.30446316,-0.18995103,9.87765957,0.000856,-0.010199,0.004286,0.060989061339405036
1757933665.1775577,-0.8124341213907228,1.2669216361226885,2.1416709360593202,-0.48232987209254014,0.7510692617206087,-2.6732531116600793,0.26464235371541506,8.451965878511706e-14,0.58019283,-1.04197896,10.22853384,-0.021603,-0.022763,0.04667,0.06307474256107827
1757933665.1984189,-0.8079031763270991,1.2598496227574483,2.141670998575343,-0.48238806322855826,0.7511599515704669,-2.6732531116600793,0.26464235371541506,7.948215659069499e-14,0.32138541,-1.24750827,9.96163317,-0.004664,0.014976,0.074643,0.061211242485870745
1757933665.2186406,-0.8127127146516651,1.2673224616242234,2.141671056816932,-0.48238100079955554,0.7511490224024604,-2.6732531116600793,0.26464235371541506,7.460146166869886e-14,-0.06675705000000001,-1.46170962,9.73800441,0.00992,0.048622,-0.003704,0.06295583063772252
1757933665.2395325,-0.8085626169760057,1.2608438937753175,2.14167108568874,-0.4824313812209137,0.7512275720691353,-2.6732531116600793,0.26464235371541506,7.014918842929741e-14,0.44666892,-1.00501488,10.069857090000001,0.012011,-0.037708,0.010097,0.06125203828619626
1757933665.2598913,-0.8134101285471531,1.2683762629831634,2.1416711108463398,-0.4824143844730103,0.7512011986267388,-2.6732531116600793,0.26464235371541506,6.58356562309806e-14,-0.07978473,-0.49411989,9.73111779,0.009368,0.000255,0.034165,0.06300125567486128
1757933665.2803483,-0.8134101285471531,1.2683762629831634,2.1416711108463398,-0.4824143844730103,0.7512011986267388,-2.6732531116600793,0.26464235371541506,6.58356562309806e-14,-0.07978473,-0.49411989,9.73111779,0.009368,0.000255,0.034165,0.06300125567486128
1757933665.301521,-0.8134101285471531,1.2683762629831634,2.1416711108463398,-0.4824143844730103,0.7512011986267388,-2.6732531116600793,0.26464235371541506,6.58356562309806e-14,-0.07978473,-0.49411989,9.73111779,0.009368,0.000255,0.034165,0.06300125567486128
1757933665.3281035,-0.8194301765971468,1.277703008801199,2.141671177908962,-0.4815692594837697,0.7498848912140669,-2.6732531116600793,0.26464235371541506,5.384754105313177e-14,0.36704115,1.22175702,10.03588506,0.005051,-0.006729,0.028208,0.06268564713556173
1757933665.3484704,-0.8106835015844814,1.26405256472594,2.141671091604964,-0.4814987461818888,0.7497754115331505,-2.6732531116600793,0.26464235371541506,4.760707016426199e-14,-0.34083863999999997,1.1946618,9.68142033,0.0003,0.003657,-0.037235,0.059820475371329035
1757933665.3749628,-0.8146941864670038,1.2702829538435674,2.1416710323946706,-0.4814980054324301,0.7497745556765429,-2.6732531116600793,0.26464235371541506,4.473012637359804e-14,0.023946210000000002,1.08014967,9.46751328,-0.007286,0.020695,-0.037305,0.06170277961172534
1757933665.3951976,-0.8107117780378699,1.264066971185072,2.141670950358792,-0.4815633130553491,0.7498765693276034,-2.6732531116600793,0.26464235371541506,4.209587186454059e-14,0.5580418500000001,0.38245266,10.267146,-0.015118,-0.021343,-0.019539,0.06037843770393122
1757933665.4191756,-0.8173072400732039,1.2743226424107474,2.141670869206081,-0.48156084212375466,0.7498730384351348,-2.6732531116600793,0.26464235371541506,3.950825114837433e-14,0.13262139,0.01781496,9.898613730000001,-0.018331,-0.020709,0.022136,0.06296131386984943
1757933665.4397886,-0.8126788911432384,1.2671011502482796,2.141670764720155,-0.4816244403190546,0.7499723876036252,-2.6732531116600793,0.26464235371541506,3.7154090739709507e-14,0.18650772000000002,-0.58662819,9.879003540000001,-0.019827,-0.053064,0.005153,0.06112046194508905
1757933665.4659786,-0.8123874383109969,1.2666190722484663,2.1416705257923425,-0.4817217372876898,0.7501245289111245,-2.6732531116600793,0.26464235371541506,3.281186593190978e-14,0.25791471,-1.08284742,10.01073222,0.013935,0.035694,0.020002,0.06098776347062683
1757933665.4868183,-0.8123874383109969,1.2666190722484663,2.1416705257923425,-0.4817217372876898,0.7501245289111245,-2.6732531116600793,0.26464235371541506,3.281186593190978e-14,0.25791471,-1.08284742,10.01073222,0.013935,0.035694,0.020002,0.06098776347062683
1757933665.5072527,-0.8128920025228511,1.2673772072805307,2.1416702408537613,-0.48182264938444797,0.7502823146706695,-2.6732531116600793,0.26464235371541506,2.897289339798285e-14,0.07679268,-0.50535234,9.474399900000002,0.007143,-0.022607,-0.019886,0.061125417668856916
1757933665.5278637,-0.8128920025228511,1.2673772072805307,2.1416702408537613,-0.48182264938444797,0.7502823146706695,-2.6732531116600793,0.26464235371541506,2.897289339798285e-14,0.07679268,-0.50535234,9.474399900000002,0.007143,-0.022607,-0.019886,0.061125417668856916
1757933665.5523674,-0.8171449904203277,1.2739728936460772,2.141669921659293,-0.48183930476391695,0.7503088781723166,-2.6732531116600793,0.26464235371541506,2.5531523839283225e-14,-0.16630893,0.19504242000000002,9.995762160000002,0.022312,0.013849,0.0138,0.06242475980505255
1757933665.5729055,-0.8171449904203277,1.2739728936460772,2.141669921659293,-0.48183930476391695,0.7503088781723166,-2.6732531116600793,0.26464235371541506,2.5531523839283225e-14,-0.16630893,0.19504242000000002,9.995762160000002,0.022312,0.013849,0.0138,0.06242475980505255
1757933665.593325,-0.8171449904203277,1.2739728936460772,2.141669921659293,-0.48183930476391695,0.7503088781723166,-2.6732531116600793,0.26464235371541506,2.5531523839283225e-14,-0.16630893,0.19504242000000002,9.995762160000002,0.022312,0.013849,0.0138,0.06242475980505255
1757933665.6154342,-0.828069682655238,1.2909578920378557,2.141669607258369,-0.48126021537883085,0.7494073866594269,-2.6732531116600793,0.26464235371541506,2.2291872213124465e-14,0.05883057,1.21577292,9.87691401,0.006269,0.004608,0.00917,0.0646510051722731
1757933665.635733,-0.8182263492309876,1.2756042476997274,2.1416692249217677,-0.48109393077999424,0.7491490299281435,-2.6732531116600793,0.26464235371541506,1.9652734906243127e-14,0.11001915,1.19391624,9.89636724,0.00221,-0.000412,0.018821,0.06076606441185353
1757933665.656954,-0.819027111202252,1.276838513365593,2.1416690192500827,-0.4810797786052422,0.7491274010275897,-2.6732531116600793,0.26464235371541506,1.8466512900248717e-14,0.00014715,0.94917636,9.684265230000001,-0.007661,-0.007877,-0.075255,0.061384188165187994
1757933665.6776772,-0.8148470962802434,1.2703170137552755,2.1416687992003887,-0.481137973775567,0.7492184652296434,-2.6732531116600793,0.26464235371541506,1.7381165761048137e-14,0.34428195,0.41822973,9.80445735,-0.00148,0.001626,-0.071998,0.060099161636845366
1757933665.6979947,-0.8192258267436422,1.2771231251806183,2.141668577247531,-0.4811700127847897,0.7492688356647198,-2.6732531116600793,0.26464235371541506,1.6328667543686617e-14,0.7985928600000001,-0.68781834,9.94113027,-0.032872,-0.036731,0.052974,0.06202636146766448
1757933665.7184212,-0.8158877003522155,1.2719128789310943,2.141668342409515,-0.4812529648392106,0.7493984856546366,-2.6732531116600793,0.26464235371541506,1.5361033350976173e-14,-0.36987624,-1.10095668,10.46323809,-0.008375,0.061751,0.055209,0.060850817220505296
1757933665.738881,-0.8211955533254401,1.280166085637688,2.141668106384353,-0.48127421351470373,0.7494320356597555,-2.6732531116600793,0.26464235371541506,1.4418859836236686e-14,-0.04550859,-1.2145761000000002,10.20158577,0.019288,0.052562,-0.010182,0.0628908464029495
1757933665.759639,-0.8167337982229383,1.2732064161824999,2.1416678569565217,-0.481355104330687,0.7495584569287993,-2.6732531116600793,0.26464235371541506,1.3560344446837049e-14,0.1360647,-1.1832920100000002,9.7547697,0.005309,-0.006554,0.011015,0.061128653210597045
1757933665.7858484,-0.8174392671441612,1.2742815121229392,2.1416673441717364,-0.48143057059782274,0.7496768581782634,-2.6732531116600793,0.26464235371541506,1.1964180299176707e-14,0.57765204,-0.26748927,9.43831872,0.018231,-0.012379,0.044066,0.06122829520242578
1757933665.8062959,-0.8174392671441612,1.2742815121229392,2.1416673441717364,-0.48143057059782274,0.7496768581782634,-2.6732531116600793,0.26464235371541506,1.1964180299176707e-14,0.57765204,-0.26748927,9.43831872,0.018231,-0.012379,0.044066,0.06122829520242578
1757933665.8269835,-0.8186195539609127,1.2760965086153346,2.1416668075330927,-0.4814626211233715,0.7497276391775793,-2.6732531116600793,0.26464235371541506,1.0548961333036386e-14,-0.23800041000000002,0.47601063,10.266106140000002,0.04233,0.053566,-0.070039,0.061426505891049914
1757933665.8474753,-0.8186195539609127,1.2760965086153346,2.1416668075330927,-0.4814626211233715,0.7497276391775793,-2.6732531116600793,0.26464235371541506,1.0548961333036386e-14,-0.23800041000000002,0.47601063,10.266106140000002,0.04233,0.053566,-0.070039,0.061426505891049914
1757933665.8675215,-0.8185296819922508,1.2759341608281232,2.1416662469416146,-0.4814935081275142,0.7497766318309187,-2.6732531116600793,0.26464235371541506,9.305214730712542e-15,-0.08232552,1.3787856900000002,9.5612184,0.005891,-0.012251,0.021084,0.0612251767547444
1757933665.8878946,-0.8185296819922508,1.2759341608281232,2.1416662469416146,-0.4814935081275142,0.7497766318309187,-2.6732531116600793,0.26464235371541506,9.305214730712542e-15,-0.08232552,1.3787856900000002,9.5612184,0.005891,-0.012251,0.021084,0.0612251767547444
1757933665.9080138,-0.8284355495857608,1.2913483964078984,2.1416659658129245,-0.48137761838085624,0.7495965776386785,-2.6732531116600793,0.26464235371541506,8.713863108511562e-15,-0.34743096000000007,1.3674060900000002,9.65851398,-0.007158,-0.014835,0.027572,0.06474194547268321
1757933665.9319005,-0.8223544087037243,1.281857217221506,2.1416653785991393,-0.4813189558314515,0.7495061117572592,-2.6732531116600793,0.26464235371541506,7.680194605861408e-15,0.16121754000000002,0.31374342,9.88948062,-0.008458,-0.01382,0.039958,0.061947371913139475
1757933665.9528818,-0.8191067197065738,1.2767893216503867,2.1416650746121135,-0.4813591536867064,0.7495691950195981,-2.6732531116600793,0.26464235371541506,7.222965532374011e-15,0.10552617,-0.1070271,9.74264454,-0.012663,0.005122,-0.002542,0.060854696936218554
1757933665.9734437,-0.8191067197065738,1.2767893216503867,2.1416650746121135,-0.4813591536867064,0.7495691950195981,-2.6732531116600793,0.26464235371541506,7.222965532374011e-15,0.10552617,-0.1070271,9.74264454,-0.012663,0.005122,-0.002542,0.060854696936218554
1757933665.994085,-0.8223469358846547,1.281813981390773,2.1416644632830586,-0.4812829556103861,0.7494514977989297,-2.6732531116600793,0.26464235371541506,6.360213326851326e-15,0.39966921,-1.12865031,9.928848150000002,-0.017129,-0.017882,-0.004878,0.061785449147062625
1757933666.0155625,-0.8253049557858235,1.2864098806121256,2.141664151765708,-0.4812453772312046,0.7493934711792999,-2.6732531116600793,0.26464235371541506,5.968102609683207e-15,0.12903093000000002,-0.7707520800000001,9.94337676,-0.002362,0.042769,-0.017053,0.06285999189420718
1757933666.0365906,-0.8205042006350258,1.2789240047356905,2.141663832604223,-0.4812805402262288,0.7494487314577754,-2.6732531116600793,0.26464235371541506,5.6117441598509495e-15,0.31479309,-0.7810722,10.002354480000001,-0.019859,0.004564,-0.005696,0.061026415165395795
1757933666.057224,-0.8254012328469549,1.2865395675074003,2.1416635133297763,-0.481255922263049,0.7494109064413608,-2.6732531116600793,0.26464235371541506,5.266075550841728e-15,0.12034908,-0.17258733,9.34372089,0.006517,-0.014097,0.028469,0.06292079741522806
1757933666.077477,-0.821045150005926,1.2797463493815013,2.141663187271911,-0.48129557205538376,0.7494731657355063,-2.6732531116600793,0.26464235371541506,4.951014545713015e-15,-0.12708855,-0.05837931,9.67498497,0.011254,-0.024273,0.06021,0.0612153645167892
1757933666.0975192,-0.8258081906755832,1.2871534946032848,2.141662860952735,-0.4812727327211264,0.7494381131295296,-2.6732531116600793,0.26464235371541506,4.645771799757303e-15,-0.37482048,0.53109378,9.696086280000001,0.03344,-0.02151,0.010156,0.06301136243596302
1757933666.1184015,-0.8220632262166913,1.2813121155888416,2.14166252885709,-0.4813046385579182,0.7494883143081796,-2.6732531116600793,0.26464235371541506,4.3665247750475065e-15,-0.37556604,0.47660904000000004,10.27522944,-0.000961,-0.005912,-0.058489,0.06149336986756622
1757933666.13871,-0.826503387219617,1.2882166966736224,2.1416621964152096,-0.4812738890911538,0.7494409407944618,-2.6732531116600793,0.26464235371541506,4.09674367520223e-15,0.40280841,1.14646527,9.92960352,0.004291,0.004239,-0.03167,0.06311580816617741
1757933666.159041,-0.8229477979091934,1.282670414216954,2.141661858907886,-0.481295485891784,0.749475086892283,-2.6732531116600793,0.26464235371541506,3.849715219718891e-15,-0.26480133,1.20978882,9.90968922,0.020311,0.032378,-0.061687,0.06164346353242739
1757933666.179408,-0.8229477979091934,1.282670414216954,2.141661858907886,-0.481295485891784,0.749475086892283,-2.6732531116600793,0.26464235371541506,3.849715219718891e-15,-0.26480133,1.20978882,9.90968922,0.020311,0.032378,-0.061687,0.06164346353242739
1757933666.2047257,-0.841323941928798,1.3112762472296096,2.141661530118741,-0.4809197791828314,0.7488903779664853,-2.6732531116600793,0.26464235371541506,3.591145602899255e-15,0.43559343,1.46739942,9.981694619999999,0.004007,0.042278,0.033545,0.06786277968144794
1757933666.225323,-0.8313007167473228,1.2956493234377358,2.1416608590829966,-0.4805064603121637,0.7482475954073026,-2.6732531116600793,0.26464235371541506,3.1494668402860895e-15,-0.27527841000000003,0.17977806,9.93109464,-0.008545,-0.006407,0.067707,0.06265997668972438
1757933666.245709,-0.8263381129742948,1.2879123815368614,2.141660516986926,-0.480452151891943,0.7481635207581312,-2.6732531116600793,0.26464235371541506,2.9594777099861126e-15,-0.20956122,-0.57794634,9.573637860000002,-0.018488,-0.022257,-0.030243,0.060935627287006904
1757933666.2658489,-0.8233473179030448,1.283237115464617,2.1416598271455394,-0.48044894821514766,0.7481596510200071,-2.6732531116600793,0.26464235371541506,2.6147745859504027e-15,0.02649681,-1.16337771,9.866436929999999,-0.0162,0.039561,-0.03691,0.06037100777329836
1757933666.286371,-0.8233473179030448,1.283237115464617,2.1416598271455394,-0.48044894821514766,0.7481596510200071,-2.6732531116600793,0.26464235371541506,2.6147745859504027e-15,0.02649681,-1.16337771,9.866436929999999,-0.0162,0.039561,-0.03691,0.06037100777329836
1757933666.3067248,-0.823300998821757,1.283147408207565,2.141659128764603,-0.48052929755807194,0.7482859453392275,-2.6732531116600793,0.26464235371541506,2.3096383433701496e-15,-0.21884148000000003,-0.21989115,9.8879895,0.001381,0.012377,0.032969,0.06071183896353299
1757933666.327464,-0.823300998821757,1.283147408207565,2.141659128764603,-0.48052929755807194,0.7482859453392275,-2.6732531116600793,0.26464235371541506,2.3096383433701496e-15,-0.21884148000000003,-0.21989115,9.8879895,0.001381,0.012377,0.032969,0.06071183896353299
1757933666.348418,-0.8236396229839601,1.2836575215196593,2.1416584218461496,-0.4806359247428595,0.7484531331528105,-2.6732531116600793,0.26464235371541506,2.039125672499378e-15,0.2977335,0.32722236,10.16790804,0.04259,0.01774,0.007306,0.06095844908146224
1757933666.3687816,-0.8236396229839601,1.2836575215196593,2.1416584218461496,-0.4806359247428595,0.7484531331528105,-2.6732531116600793,0.26464235371541506,2.039125672499378e-15,0.2977335,0.32722236,10.16790804,0.04259,0.01774,0.007306,0.06095844908146224
1757933666.389296,-0.8254738670885873,1.2864969859788014,2.141657708556039,-0.48069200877704044,0.7485415601310156,-2.6732531116600793,0.26464235371541506,1.7976519119385645e-15,-0.03831786,0.62030592,9.980350650000002,0.000108,0.037549,-0.010743,0.061489655708402674
1757933666.4151647,-0.8295404270022826,1.2928212067592628,2.1416573501062457,-0.4806974318232599,0.748550543071374,-2.6732531116600793,0.26464235371541506,1.6868582985169741e-15,0.06556023,1.14811335,10.0007064,0.010952,0.003108,0.008285,0.06301420492397872
1757933666.43529,-0.8247615005826724,1.2853712048803143,2.1416569889361288,-0.4807679559984274,0.7486609060593307,-2.6732531116600793,0.26464235371541506,1.5861132768765956e-15,-0.31075136999999997,0.8208909900000001,9.98064495,-0.009157,0.010323,-0.022438,0.06116300017137171
1757933666.4565804,-0.8300364322375576,1.2935773099296988,2.141656628047648,-0.48076591511627964,0.748658264374597,-2.6732531116600793,0.26464235371541506,1.488129844133763e-15,0.016461180000000002,0.7505434800000002,9.61704711,-0.00886,0.000211,0.016303,0.06316921176340812
1757933666.4766922,-0.8254199078930708,1.28638036479383,2.141656264900906,-0.48082682728249804,0.7487536570473724,-2.6732531116600793,0.26464235371541506,1.3989710402928687e-15,0.16615197,0.19444401,9.68546205,-0.017025,-0.012527,0.033332,0.061337758576680654
1757933666.4970477,-0.8254199078930708,1.28638036479383,2.141656264900906,-0.48082682728249804,0.7487536570473724,-2.6732531116600793,0.26464235371541506,1.3989710402928687e-15,0.16615197,0.19444401,9.68546205,-0.017025,-0.012527,0.033332,0.061337758576680654
1757933666.5173206,-0.8254199078930708,1.28638036479383,2.141656264900906,-0.48082682728249804,0.7487536570473724,-2.6732531116600793,0.26464235371541506,1.3989710402928687e-15,0.16615197,0.19444401,9.68546205,-0.017025,-0.012527,0.033332,0.061337758576680654
1757933666.537959,-0.8398088271008686,1.308771088170167,2.141655547358493,-0.4802192818045812,0.7478083817519335,-2.6732531116600793,0.26464235371541506,1.220283564212489e-15,0.0634707,-0.08038314,9.23684094,-0.001397,0.017636,0.013451,0.06496562714947482
1757933666.5583127,-0.8296353915776591,1.2929132395621055,2.1416548255802024,-0.48004469244128495,0.7475374891156812,-2.6732531116600793,0.26464235371541506,1.075107512466781e-15,0.10492776000000001,-0.56596833,9.333989370000001,-0.020567,-0.04949,-0.040934,0.06096860360387467
1757933666.5792813,-0.8314228240905362,1.2956890339834803,2.1416544647193145,-0.48001216473533087,0.7474873957293189,-2.6732531116600793,0.26464235371541506,1.0094547805617208e-15,0.38844657000000005,-0.53020107,9.81404172,-0.016466,-0.042394,0.00468,0.06195116023965766
1757933666.6002593,-0.826861537015798,1.2885785482530325,2.141654102435309,-0.48005741291902104,0.7475584271924371,-2.6732531116600793,0.26464235371541506,9.495692812158955e-16,-0.04775508,0.06406911000000001,9.47679354,0.012716,0.03822,0.038938,0.0604803679493956
1757933666.6249802,-0.8260965485994386,1.2873724448450248,2.141653376883374,-0.48016478282043307,0.7477267984974032,-2.6732531116600793,0.26464235371541506,8.388888306512865e-16,-0.15418377,0.35521029,9.89248248,0.04921,-0.027217,0.013508,0.060608027948336106
1757933666.6453757,-0.8260965485994386,1.2873724448450248,2.141653376883374,-0.48016478282043307,0.7477267984974032,-2.6732531116600793,0.26464235371541506,8.388888306512865e-16,-0.15418377,0.35521029,9.89248248,0.04921,-0.027217,0.013508,0.060608027948336106
1757933666.6673393,-0.8275809194826015,1.2896694083683842,2.141652649041216,-0.4802626574227737,0.7478803488529395,-2.6732531116600793,0.26464235371541506,7.400560457052582e-16,-0.01721655,1.0538098200000001,9.72003249,0.000553,-0.002649,-0.034184,0.0612339498775558
1757933666.6944327,-0.8311002564116914,1.2951426745024102,2.14165228447726,-0.48030394246002694,0.7479451972010499,-2.6732531116600793,0.26464235371541506,6.947838179388503e-16,0.00808344,0.86984289,9.78874173,-0.004888,-0.004113,-0.00681,0.06264944489598101
1757933666.714704,-0.8263435531959743,1.2877283224215486,2.1416519191510712,-0.4804069999623749,0.748106235093078,-2.6732531116600793,0.26464235371541506,6.535595445576468e-16,0.17887554,0.7837699499999999,9.76135221,-0.00837,-0.021846,0.030006,0.060895884528177714
1757933666.7356567,-0.8315555720795682,1.295837648149303,2.1416515539131478,-0.480443767446799,0.7481640378170383,-2.6732531116600793,0.26464235371541506,6.134185462960822e-16,-0.0056898,0.56268198,9.80041563,-0.003058,-0.008111,-0.003045,0.06295024635459091
1757933666.756623,-0.8271974059581765,1.2890440455491328,2.141651188283765,-0.48053546650742585,0.7483073773606387,-2.6732531116600793,0.26464235371541506,5.767962203452753e-16,0.02544714,0.1651023,9.808351920000002,-0.004198,-0.000563,-0.002652,0.061260605864902
1757933666.7770445,-0.8271974059581765,1.2890440455491328,2.141651188283765,-0.48053546650742585,0.7483073773606387,-2.6732531116600793,0.26464235371541506,5.767962203452753e-16,0.02544714,0.1651023,9.808351920000002,-0.004198,-0.000563,-0.002652,0.061260605864902
1757933666.7973497,-0.8271974059581765,1.2890440455491328,2.141651188283765,-0.48053546650742585,0.7483073773606387,-2.6732531116600793,0.26464235371541506,5.767962203452753e-16,0.02544714,0.1651023,9.808351920000002,-0.004198,-0.000563,-0.002652,0.061260605864902
1757933666.818872,-0.8423493889005029,1.3126254305807867,2.1416504619909897,-0.47995795158966476,0.7474088725740753,-2.6732531116600793,0.26464235371541506,5.030454822914514e-16,-0.44876826000000003,-0.2980278,9.79593246,0.006412,-0.003319,-0.025837,0.06514361541123206
1757933666.839793,-0.8320305509338125,1.2965430917338177,2.141649739387545,-0.4797993601975104,0.7471628776638835,-2.6732531116600793,0.26464235371541506,4.431111762923653e-16,0.11989782,0.20402838,9.22471578,0.020595,0.006078,0.017229,0.06105595040475809
1757933666.8651328,-0.8274529232137452,1.2894015041229185,2.141649019706918,-0.47987198551239774,0.7472770717059338,-2.6732531116600793,0.26464235371541506,3.918367547669208e-16,0.12783411,0.6623712,9.59953626,0.018158,-0.025609,0.044449,0.060058658844606455
1757933666.8860962,-0.8274529232137452,1.2894015041229185,2.141649019706918,-0.47987198551239774,0.7472770717059338,-2.6732531116600793,0.26464235371541506,3.918367547669208e-16,0.12783411,0.6623712,9.59953626,0.018158,-0.025609,0.044449,0.060058658844606455
1757933666.9071243,-0.8282127182618065,1.2905718472293393,2.141648301050532,-0.4800319709741451,0.7475273574285484,-2.6732531116600793,0.26464235371541506,3.4630261798442193e-16,0.29788065,1.52218827,9.67123755,0.04362,0.021053,0.029958,0.06089449604296137
1757933666.9274745,-0.8282127182618065,1.2905718472293393,2.141648301050532,-0.4800319709741451,0.7475273574285484,-2.6732531116600793,0.26464235371541506,3.4630261798442193e-16,0.29788065,1.52218827,9.67123755,0.04362,0.021053,0.029958,0.06089449604296137
1757933666.9493754,-0.8301362381260561,1.2935546374805378,2.1416475828513697,-0.48013431761311764,0.7476878299704809,-2.6732531116600793,0.26464235371541506,3.0535618337665343e-16,0.45340839000000005,1.33567074,9.5788764,0.009025,-0.02147,0.005851,0.061567778806034354
1757933666.9700928,-0.8281861852794298,1.2905117425575217,2.1416472244403124,-0.4802449499592549,0.7478606545713276,-2.6732531116600793,0.26464235371541506,2.872146341523804e-16,-0.00718092,0.8599642200000001,9.97286562,0.00097,0.000902,0.00814,0.06103394385224652
1757933666.990528,-0.8286085550907234,1.2911633601451245,2.141646866334032,-0.48035764724876256,0.7480366972102972,-2.6732531116600793,0.26464235371541506,2.7006957260822693e-16,-0.25147935000000005,0.55340172,9.743537250000001,-0.002849,0.008696,-0.029662,0.061418711130537304
1757933667.0108025,-0.8286085550907234,1.2911633601451245,2.141646866334032,-0.48035764724876256,0.7480366972102972,-2.6732531116600793,0.26464235371541506,2.7006957260822693e-16,-0.25147935000000005,0.55340172,9.743537250000001,-0.002849,0.008696,-0.029662,0.061418711130537304
1757933667.0310776,-0.82972444600181,1.2928889946727948,2.141646151140021,-0.4804521462690421,0.7481848875116008,-2.6732531116600793,0.26464235371541506,2.3808241402895485e-16,-0.08517042000000001,-0.28860039000000004,9.66106458,-0.020963,0.031989,-0.005962,0.06158658976080453
1757933667.05489,-0.8337305899121209,1.2991216138736845,2.1416457946084995,-0.4804689208895008,0.7482115172040554,-2.6732531116600793,0.26464235371541506,2.234076275261348e-16,0.18650772000000002,-0.27901602,9.659710800000001,0.019738,-0.006756,0.005553,0.0630841037577316
1757933667.0757146,-0.8303083465789433,1.2937864366058158,2.1416454392903645,-0.480528915437482,0.7483054507720467,-2.6732531116600793,0.26464235371541506,2.0994550536201903e-16,0.11690577,-0.39653001,9.775272600000001,0.004949,-0.011543,0.013489,0.06170469971738787
1757933667.096109,-0.8303083465789433,1.2937864366058158,2.1416454392903645,-0.480528915437482,0.7483054507720467,-2.6732531116600793,0.26464235371541506,2.0994550536201903e-16,0.11690577,-0.39653001,9.775272600000001,0.004949,-0.011543,0.013489,0.06170469971738787
1757933667.1174402,-0.8353139585389942,1.3015697821430003,2.1416447313473066,-0.48035228800383517,0.7480313399859448,-2.6732531116600793,0.26464235371541506,1.843262091138927e-16,0.04730382,0.59171958,9.55687257,0.005629,0.015504,-4.8e-05,0.06282294486027269
1757933667.1441283,-0.8291377534840035,1.2919404782862451,2.141644030277842,-0.4803917564751309,0.7480937944354865,-2.6732531116600793,0.26464235371541506,1.627924613785209e-16,0.08292393,0.64201545,9.909993329999999,0.020111,0.005343,0.016553,0.060667626132741626
1757933667.1648245,-0.8293070022454222,1.2921984539858231,2.1416436816528606,-0.4804612662077232,0.7482025601842868,-2.6732531116600793,0.26464235371541506,1.530917196034448e-16,1.81991196,0.30536568000000003,9.07382817,0.026106,0.157576,0.613232,0.06107704279930927
1757933667.185905,-0.8295310335211175,1.2925417973946132,2.14164333390055,-0.48053837811397576,0.7483231684670816,-2.6732531116600793,0.26464235371541506,1.4394018921966722e-16,3.0473587800000006,1.7815941,10.64780343,0.000184,0.008967,1.445687,0.06138885391291533
1757933667.206482,-0.8295310335211175,1.2925417973946132,2.14164333390055,-0.48053837811397576,0.7483231684670816,-2.6732531116600793,0.26464235371541506,1.4394018921966722e-16,3.0473587800000006,1.7815941,10.64780343,0.000184,0.008967,1.445687,0.06138885391291533
1757933667.2269666,-0.8304132027882443,1.2939046349451189,2.141642640562936,-0.4805808480424981,0.7483903083135042,-2.6732531116600793,0.26464235371541506,1.2689880535509116e-16,-0.63273519,1.22415066,10.09845324,0.047487,0.065513,1.386591,0.06151538945593989
1757933667.247494,-0.8304132027882443,1.2939046349451189,2.141642640562936,-0.4805808480424981,0.7483903083135042,-2.6732531116600793,0.26464235371541506,1.2689880535509116e-16,-0.63273519,1.22415066,10.09845324,0.047487,0.065513,1.386591,0.06151538945593989
1757933667.2683756,-0.8304155147373073,1.2938975219904079,2.141641952194849,-0.48060694688072464,0.7484319293829806,-2.6732531116600793,0.26464235371541506,1.1189188355480447e-16,0.29398608000000004,1.83712851,8.231678910000001,-0.038598,0.193163,1.248734,0.061382215776749766
1757933667.2887006,-0.8304155147373073,1.2938975219904079,2.141641952194849,-0.48060694688072464,0.7484319293829806,-2.6732531116600793,0.26464235371541506,1.1189188355480447e-16,-0.9083079000000001,1.3850739,9.23549697,0.04467,0.002585,1.27956,0.061382215776749766
1757933667.3087823,-0.8308710161430963,1.2945963520629409,2.141641269219381,-0.4806098561088629,0.7484374259036431,-2.6732531116600793,0.26464235371541506,9.863781819029838e-17,0.95097159,1.18657836,10.90392291,0.008654,0.007395,1.402671,0.061430644725558675
1757933667.3357255,-0.8361382329396432,1.302793626684444,2.1416409295225645,-0.4805681300113014,0.7483729260904408,-2.6732531116600793,0.26464235371541506,9.251032100855497e-17,0.01212516,1.2356774099999999,9.88603731,0.014267,0.036398,1.359729,0.06340180385544375
1757933667.3567653,-0.8313375391463362,1.2953125498060303,2.141640592025693,-0.4805964077804398,0.7484174406683887,-2.6732531116600793,0.26464235371541506,8.69433154709455e-17,-0.75997089,0.65713266,9.864936,0.038449,0.104995,1.350444,0.061485525384263225
1757933667.3775969,-0.8311016589817792,1.2949401589161327,2.141640256005399,-0.4806362307129915,0.7484799422544707,-2.6732531116600793,0.26464235371541506,8.171505744010474e-17,0.89214102,0.89244513,10.664725680000002,0.003252,0.057786,1.373795,0.061562242707599475
1757933667.3981743,-0.8311016589817792,1.2949401589161327,2.141640256005399,-0.4806362307129915,0.7484799422544707,-2.6732531116600793,0.26464235371541506,8.171505744010474e-17,0.89214102,0.89244513,10.664725680000002,0.003252,0.057786,1.373795,0.061562242707599475
1757933667.4185164,-0.8372625252275236,1.304524231701436,2.1416395864820297,-0.48038415477642016,0.7480882850971926,-2.6732531116600793,0.26464235371541506,7.169912686740511e-17,-0.67643874,0.42481224000000006,9.46347156,0.006772,-0.005995,1.438684,0.06303066270156771
1757933667.4390037,-0.8324645340911813,1.2970475346932202,2.141639255626444,-0.48038190391577695,0.7480852396157669,-2.6732531116600793,0.26464235371541506,6.738263075818359e-17,0.025898400000000002,-0.01092834,10.00040229,0.02801,0.090888,1.451664,0.061243619163916956
1757933667.4591732,-0.8381066533502144,1.305828951295085,2.1416389257797555,-0.4803041590993181,0.7479646377976048,-2.6732531116600793,0.26464235371541506,6.317927075370482e-17,0.4543011,-0.07020036,10.99238949,-0.003024,0.029253,1.510353,0.06343115453005911
1757933667.4793813,-0.8332683256905612,1.2982895222180897,2.1416385983418644,-0.4803041562724482,0.7479651014089881,-2.6732531116600793,0.26464235371541506,5.936265009947216e-17,-0.33440328,0.19085355,9.68247,0.031639,0.082663,1.465262,0.061528336482043734
1757933667.504462,-0.8321803934881002,1.2965857744033884,2.141637948016627,-0.4802833571669488,0.7479336511840509,-2.6732531116600793,0.26464235371541506,5.234963180933917e-17,-0.54546543,-0.28441152000000003,8.96919471,-0.005457,0.023499,1.452715,0.06116910737280516
1757933667.5250578,-0.8321803934881002,1.2965857744033884,2.141637948016627,-0.4802833571669488,0.7479336511840509,-2.6732531116600793,0.26464235371541506,5.234963180933917e-17,-0.54546543,-0.28441152000000003,8.96919471,-0.005457,0.023499,1.452715,0.06116910737280516
1757933667.5455112,-0.8329258302050585,1.2977372708992825,2.1416373038450836,-0.48028606493484177,0.7479388033970717,-2.6732531116600793,0.26464235371541506,4.616040966375121e-17,-0.34038738,-0.118701,9.45433845,0.0338,0.060482,1.580247,0.0615109605952812
1757933667.5659392,-0.8323211828092862,1.2967910690379993,2.141636984429077,-0.4803349214140224,0.7480153553981,-2.6732531116600793,0.26464235371541506,4.338930173794144e-17,-0.53139789,0.35655426000000007,9.88170129,0.067193,0.115458,1.468565,0.06146564810666015
1757933667.5862916,-0.8326733771938779,1.297334980323971,2.1416366663270754,-0.48038674500502143,0.7480965271976409,-2.6732531116600793,0.26464235371541506,4.077584851306482e-17,0.3270654,-0.43035489,9.818829,0.045946,0.027858,1.513993,0.06174421414900942
1757933667.6067889,-0.8342227018713984,1.299743198220034,2.141636349311174,-0.4804183564762489,0.7481462157059907,-2.6732531116600793,0.26464235371541506,3.8294138164375434e-17,0.12214431,0.11106882000000001,9.59085441,0.005653,0.014963,1.611607,0.062361466375515894
1757933667.6276088,-0.8342227018713984,1.299743198220034,2.141636349311174,-0.4804183564762489,0.7481462157059907,-2.6732531116600793,0.26464235371541506,3.8294138164375434e-17,0.12214431,0.11106882000000001,9.59085441,0.005653,0.014963,1.611607,0.062361466375515894
1757933667.647972,-0.8382067332496693,1.3059429688729136,2.141636033093386,-0.48037761539275703,0.7480832115637905,-2.6732531116600793,0.26464235371541506,3.5906647367677544e-17,-0.95216841,0.64635147,8.928031950000001,0.014748,0.002,1.526091,0.06366727097850579
1757933667.673362,-0.8373896269181642,1.30466164011318,2.1416354060543004,-0.4801845612301785,0.7477834058304413,-2.6732531116600793,0.26464235371541506,3.1544083241212975e-17,0.82912158,0.51867432,11.221266600000002,0.036109,-0.040624,1.603281,0.06250188522842832
1757933667.693741,-0.8373896269181642,1.30466164011318,2.1416354060543004,-0.4801845612301785,0.7477834058304413,-2.6732531116600793,0.26464235371541506,3.1544083241212975e-17,0.82912158,0.51867432,11.221266600000002,0.036109,-0.040624,1.603281,0.06250188522842832
1757933667.7182493,-0.839557489634564,1.3080288972591594,2.1416347872028005,-0.47989592043222334,0.7473347340395958,-2.6732531116600793,0.26464235371541506,2.768370884488832e-17,-0.030391380000000003,0.75592917,10.83446811,0.060114,0.108632,1.52469,0.06267172222732273
1757933667.7384114,-0.83461516578083,1.300328018311046,2.1416344821375706,-0.47988838208480206,0.7473234212841662,-2.6732531116600793,0.26464235371541506,2.602101810864865e-17,0.11061756,0.6014511,8.55141624,0.034896,0.073417,1.494591,0.06095580547942804
1757933667.759164,-0.8338220983494343,1.299088757872437,2.1416341789809703,-0.47991619921742606,0.7473671847895929,-2.6732531116600793,0.26464235371541506,2.446363623190211e-17,0.17468667000000002,0.8384018400000001,9.162598860000001,0.029986,-0.032332,1.630183,0.06102737971057974
1757933667.779667,-0.8381612123294727,1.3058418034282624,2.1416338766051606,-0.4798992439890813,0.747341227972204,-2.6732531116600793,0.26464235371541506,2.2956867639177492e-17,0.27153099,0.46687752000000005,9.22980717,0.060483,0.019738,1.582335,0.06282412458002937
1757933667.8000398,-0.838889062644601,1.3069711133795188,2.141633575723393,-0.4798715808497841,0.7472985843127401,-2.6732531116600793,0.26464235371541506,2.153796613162649e-17,-0.32122845000000005,0.8702941500000001,8.56054935,0.066651,0.107075,1.54627,0.06297269399257656
1757933667.824859,-0.8338049903367364,1.299045552018455,2.141632980119434,-0.47991513537768643,0.7473672702621443,-2.6732531116600793,0.26464235371541506,1.9008541310301705e-17,0.06406911000000001,0.6213555900000001,10.55380401,0.014414,0.049186,1.565164,0.06108116390798324
1757933667.8458817,-0.8338049903367364,1.299045552018455,2.141632980119434,-0.47991513537768643,0.7473672702621443,-2.6732531116600793,0.26464235371541506,1.9008541310301705e-17,0.06406911000000001,0.6213555900000001,10.55380401,0.014414,0.049186,1.565164,0.06108116390798324
1757933667.8660786,-0.833661525358846,1.2988140978454754,2.141632390692628,-0.47998581062185525,0.7474781863578243,-2.6732531116600793,0.26464235371541506,1.6772850487901747e-17,-0.2604555,0.32887044,9.07068897,-0.005992,0.054308,1.503284,0.06119583495440302
1757933667.8870456,-0.833661525358846,1.2988140978454754,2.141632390692628,-0.47998581062185525,0.7474781863578243,-2.6732531116600793,0.26464235371541506,1.6772850487901747e-17,-0.2604555,0.32887044,9.07068897,-0.005992,0.054308,1.503284,0.06119583495440302
1757933667.9071176,-0.8344042480142313,1.2999628423083425,2.1416318070178173,-0.4800320532093011,0.7475510306692407,-2.6732531116600793,0.26464235371541506,1.4787575418240794e-17,0.25985709,0.17004654,10.04096664,-0.001134,0.034614,1.636488,0.06144909721467317
1757933667.9279609,-0.8344042480142313,1.2999628423083425,2.1416318070178173,-0.4800320532093011,0.7475510306692407,-2.6732531116600793,0.26464235371541506,1.4787575418240794e-17,-0.33320646000000004,0.63512883,8.4767229,0.055825,0.085633,1.610029,0.06144909721467317
1757933667.9479718,-0.8339596533622712,1.2992627355090896,2.1416312299400015,-0.4800849192048614,0.7476341733814046,-2.6732531116600793,0.26464235371541506,1.3041488649595285e-17,-0.16660323000000002,-0.044007660000000004,10.941799320000001,-0.029356,0.022196,1.564455,0.06127528010808498
1757933667.9684083,-0.8343929257354145,1.2999336607949676,2.141630944202989,-0.4801491901124721,0.7477346729568528,-2.6732531116600793,0.26464235371541506,1.225703028554746e-17,-0.7232913000000001,0.7937957700000001,9.524842920000001,0.036788,0.018186,1.501484,0.061648786464106174
1757933667.9887476,-0.8343929257354145,1.2999336607949676,2.141630944202989,-0.4801491901124721,0.7477346729568528,-2.6732531116600793,0.26464235371541506,1.225703028554746e-17,-0.7232913000000001,0.7937957700000001,9.524842920000001,0.036788,0.018186,1.501484,0.061648786464106174
1757933668.0099957,-0.8454302667279218,1.3171182688377325,2.141630657836748,-0.4800081897458585,0.7475154696435716,-2.6732531116600793,0.26464235371541506,1.1468077430773344e-17,0.27168795,0.33590421000000004,10.182721140000002,0.0188,-0.023101,1.578875,0.06551364700828044
1757933668.0300598,-0.8352207828071722,1.3012115980037318,2.1416300942880984,-0.4799742451658202,0.7474633710258728,-2.6732531116600793,0.26464235371541506,1.0109644148115093e-17,-0.17827713000000003,0.03248091,9.930496230000001,-0.0256,0.040299,1.599938,0.06118834764733688
1757933668.0546823,-0.8395059599087861,1.3078812148782308,2.141629814947393,-0.4799455110418873,0.7474190177452293,-2.6732531116600793,0.26464235371541506,9.484951317201906e-18,-0.14459940000000002,0.6824326500000001,10.49437503,0.038278,0.018348,1.605713,0.06294639174894223
1757933668.0753746,-0.8349031240284718,1.3007095811126903,2.141629538270344,-0.47998595883053896,0.7474824007992749,-2.6732531116600793,0.26464235371541506,8.916034583007046e-18,-0.54007974,0.22213764000000003,10.01941407,0.064123,0.124044,1.521757,0.06124154294190082
1757933668.0957804,-0.8396005296238608,1.3080212369383555,2.1416292622808397,-0.4799659925993513,0.7474517018274288,-2.6732531116600793,0.26464235371541506,8.364628742158381e-18,0.28665801,0.3555144,10.16057016,0.014565,0.086311,1.588584,0.06310693971735064
1757933668.1157653,-0.8347618984093248,1.3004824590566861,2.1416289889550546,-0.4800159549002596,0.747529898971687,-2.6732531116600793,0.26464235371541506,7.863269780993788e-18,-0.30775932,0.44981793,9.32920209,-0.014719,0.112466,1.595386,0.061273004223895255
1757933668.1374085,-0.8399701477982675,1.3085897267217226,2.141628716146144,-0.47999442081376853,0.7474967517806209,-2.6732531116600793,0.26464235371541506,7.375780590271646e-18,-0.36194976,0.25432425000000003,9.14493105,0.061621,0.000201,1.449031,0.06329503716405505
1757933668.1627798,-0.8345636623272719,1.300163213797991,2.141628177605204,-0.48010883220538597,0.7476756968916355,-2.6732531116600793,0.26464235371541506,6.517535859985118e-18,-0.39772683000000003,0.05867361000000001,10.00175607,0.03284,0.022431,1.280605,0.061431740379171096
