timestamp,x,y,theta,vx,vy,bias_accel_x,bias_accel_y,bias_angular_velocity,accel_x,accel_y,accel_z,gyro_x,gyro_y,gyro_z,cov_trace
1757932192.0997894,0.0,0.0,0.0,0.0,0.0,-3.370277433017751,0.1774736581065089,0.016892625246548325,0.14429529,0.26121087000000004,9.77512545,0.003651,-0.003068,0.003118,3.13
1757932192.1230385,-0.001664454542026117,0.0008095881822122815,-0.11181588241799512,-0.3862090360633743,0.18785149342672675,-3.370277433017751,0.1774736581065089,0.0008043115590802771,0.14610033,0.28096821,9.747726120000001,0.001999,0.000897,0.002739,0.9676357964427091
1757932192.1436372,-0.006120686826319986,0.0005853794888591773,0.9190204561903794,-0.4508964560101745,0.04741015508421964,-3.370277433017751,0.1774736581065089,0.0004111907491684695,0.1474443,0.26644941,9.77601816,0.005092,-0.001617,0.004295,0.5869458799970301
1757932192.1650414,-0.005777358246741769,0.0006426155017588947,1.1128487782868266,-0.24634929199035033,0.031227748493430893,-3.370277433017751,0.1774736581065089,0.00027550083676692097,0.15118191,0.26704782,9.79457868,0.003798,-8.3e-05,0.002767,0.40952461843760724
1757932192.1869435,-0.00895634186802771,0.0028316446957344183,1.251391946695203,-0.2655209188509279,0.09384168239029561,-3.370277433017751,0.1774736581065089,0.00020651367697761277,0.15297714,0.26944146,9.76120506,0.002924,0.000842,0.002976,0.33269032187910147
1757932192.2079637,-0.012574884068781237,0.006239913320470185,1.355583422347074,-0.2856630722293636,0.15618463460204818,-3.370277433017751,0.1774736581065089,0.00016461195235205524,0.15552774,0.27333603,9.76434426,0.004508,-0.001396,0.004729,0.283069114703541
1757932192.228389,-0.016412078811064403,0.010600160583333688,1.4375128299676678,-0.30569130990530624,0.2155190792597192,-3.370277433017751,0.1774736581065089,0.00013638697133628246,0.16256151,0.25940583,9.802966230000001,0.001182,0.001205,0.003383,0.24830146590860488
1757932192.2524557,-0.023641126453602904,0.0204760820686436,1.559274389276851,-0.3431456415926403,0.3216483788012817,-3.370277433017751,0.1774736581065089,0.00010063333819586576,0.15806852999999998,0.27677934,9.77018121,0.003414,-0.000481,0.005638,0.20221927113840832
1757932192.2738996,-0.021290679647604498,0.027357567141439425,1.6378444871606748,-0.25426365064628176,0.37135154774864754,-3.370277433017751,0.1774736581065089,8.856120795840922e-05,0.14295132,0.26869590000000004,9.78919299,0.002817,-0.001047,0.003661,0.17918952356205672
1757932192.2946906,-0.025599134536103303,0.03439345968548185,1.6762468252350704,-0.27844562738021844,0.41315824364370485,-3.370277433017751,0.1774736581065089,7.87883415332941e-05,0.14115609,0.27018702,9.78919299,0.004241,-0.001541,0.004593,0.16815059224311504
1757932192.3184521,-0.026965678947597445,0.04426295383782743,1.7291904342927626,-0.24510535263116798,0.46083881474759564,-3.370277433017751,0.1774736581065089,7.064667285622121e-05,0.15328125,0.26913735,9.76913154,0.002321,0.002403,0.003789,0.15516656403294266
1757932192.3386142,-0.027527369301724534,0.05022753463493389,1.7701802591077236,-0.2365325894877355,0.5022890647142418,-3.370277433017751,0.1774736581065089,6.385781240756164e-05,0.17214588000000003,0.27243351000000005,9.76149936,0.003649,-0.000368,0.003985,0.144245766036731
1757932192.35942,-0.030066975563329053,0.058674241948676736,1.8039028752365471,-0.2382027842862697,0.5393452891574915,-3.370277433017751,0.1774736581065089,5.8050446653598576e-05,0.15418377,0.26599815,9.784405710000001,0.00286,0.000664,0.005162,0.13637924200338655
1757932192.3800375,-0.033291163613306855,0.06766482798844561,1.8324530311080744,-0.24524500896400978,0.5725580771253197,-3.370277433017751,0.1774736581065089,5.3013415374706e-05,0.14325543000000002,0.27138384000000004,9.7695828,0.001951,0.001229,0.004489,0.1299966653967262
1757932192.40095,-0.03708923750657382,0.07721651927898386,1.8570567339169584,-0.2553264270742792,0.6023915472322737,-3.370277433017751,0.1774736581065089,4.8592498284715e-05,0.14579622,0.27662238,9.78515127,0.005411,-0.002006,0.005887,0.12471011556709445
1757932192.4210052,-0.040757515785038174,0.08581519813147737,1.8784998523553806,-0.2671244016250824,0.6289186501392869,-3.370277433017751,0.1774736581065089,4.46939217615431e-05,0.15717582000000002,0.26375166,9.78529842,0.00285,0.001478,0.005385,0.11986629786605875
1757932192.4420323,-0.045434571330075245,0.09622373938454765,1.897394102521119,-0.27984864149722355,0.652846684297218,-3.370277433017751,0.1774736581065089,4.1206747077647885e-05,0.13816404,0.25851312000000004,9.76508982,0.003801,-0.002162,0.003007,0.11610888625146862
1757932192.4628842,-0.0492004261220956,0.10403517974766285,1.9141291230486122,-0.2928798450878972,0.6739554905797037,-3.370277433017751,0.1774736581065089,3.809882131658347e-05,0.14309847,0.27273762,9.77032836,0.003238,0.000957,0.00523,0.11210420859012514
1757932192.483158,-0.05383374592754937,0.11344474755461123,1.929069478656749,-0.3059102228669431,0.6928522536153225,-3.370277433017751,0.1774736581065089,3.529472565906786e-05,0.15402681000000001,0.26509562999999997,9.79248915,0.001362,0.000177,0.004823,0.10897641018351245
1757932192.5037584,-0.058849066199106986,0.12334194818516506,1.9424866733837662,-0.31872987446922063,0.7098090506031407,-3.370277433017751,0.1774736581065089,3.2748203766537964e-05,0.15701886,0.27018702,9.77407578,0.00372,-0.002839,0.003029,0.10627305127304625
1757932192.5242758,-0.06419985751858326,0.133637396230092,1.9545987284412352,-0.331191511980718,0.7250376084913933,-3.370277433017751,0.1774736581065089,3.0423219241310795e-05,0.14833701000000002,0.2806641,9.77257485,0.001978,0.001153,0.00584,0.10390223682803035
1757932192.544264,-0.06859640610871619,0.14156948991950563,1.9655570548588415,-0.34307022542853394,0.7384815179191335,-3.370277433017751,0.1774736581065089,2.8311307492693946e-05,0.14400099,0.27408159,9.77797035,0.004568,-0.001011,0.003884,0.1011961604896325
1757932192.564612,-0.07750829979034447,0.15886051187268432,1.9755955689069093,-0.3547045366405894,0.7510679632379935,-3.370277433017751,0.1774736581065089,2.6320746150857784e-05,0.16930098,0.26748927,9.783208890000001,0.004487,-0.000714,0.002579,0.1008321542999672
1757932192.5854504,-0.07913534359588806,0.16050576335543262,1.984691017688009,-0.36534538068837574,0.7616529106028135,-3.370277433017751,0.1774736581065089,2.454703304557249e-05,0.14669874000000002,0.27153099,9.76764042,0.002487,0.000522,0.005622,0.09687341166928715
1757932192.6061351,-0.08447771562062555,0.16982447195838865,1.9930216982760545,-0.37536725575941926,0.771105582095985,-3.370277433017751,0.1774736581065089,2.2911480276795393e-05,0.15732297,0.26839179,9.79024266,0.004642,-0.001078,0.003756,0.09519174380094857
1757932192.6267679,-0.08953803253516966,0.17840633558911195,2.000670435308926,-0.384748080369508,0.7794979979772195,-3.370277433017751,0.1774736581065089,2.140385136332133e-05,0.15492933000000003,0.27961443,9.772280550000001,0.006007,-0.001784,0.003532,0.09346441947003528
1757932192.648505,-0.10297395406333451,0.20361042274367422,2.007719616134546,-0.39353326627223484,0.7869821589338524,-3.370277433017751,0.1774736581065089,2.000665253776297e-05,0.15193728,0.25791471,9.783503190000001,0.004419,-0.000152,0.004184,0.0963179422728829
1757932192.6691802,-0.1006244140727048,0.19711478524760298,2.01423341921722,-0.40173430500789975,0.793636620222246,-3.370277433017751,0.1774736581065089,1.8710225880890597e-05,0.15193728,0.25791471,9.783503190000001,0.004419,-0.000152,0.004184,0.09069985686253909
1757932192.689655,-0.11476620182724549,0.22308102763029736,2.020284237024941,-0.40943729117925093,0.7996218673645641,-3.370277433017751,0.1774736581065089,1.7494140989051264e-05,0.15253569,0.26629245,9.78170796,0.005503,-0.00088,0.004944,0.09371526214189232
1757932192.7105443,-0.12086890057125585,0.23305892809331177,2.0258908853827773,-0.4165356025529458,0.8048373865443932,-3.370277433017751,0.1774736581065089,1.63725982959038e-05,0.15193728,0.26420292,9.7929306,0.002864,0.00185,0.003963,0.09270828034007342
1757932192.7340384,-0.12308286486542898,0.23381127275347374,2.0359772736975756,-0.42922742123925894,0.8134719903565772,-3.370277433017751,0.1774736581065089,1.4355322548541604e-05,0.15118191,0.2630061,9.78889869,0.003888,-0.001283,0.004705,0.08591120680689669
1757932192.754656,-0.12848775110992314,0.24239895225229566,2.0405221880003506,-0.434866705251186,0.8169902568556524,-3.370277433017751,0.1774736581065089,1.345106690504746e-05,0.14729715000000002,0.27482715,9.76988691,0.004175,-0.000619,0.004195,0.08485737437305968
1757932192.7748067,-0.13417350930736638,0.251458437073096,2.0447796390053776,-0.4400921905948937,0.8200629420387658,-3.370277433017751,0.1774736581065089,1.2606268123668668e-05,0.15402681000000001,0.26180928000000003,9.79353882,0.002937,6.4e-05,0.004841,0.08397410898543314
1757932192.7953727,-0.1400798091057087,0.26087255300973755,2.048777099608742,-0.4449351656776573,0.822735317975477,-3.370277433017751,0.1774736581065089,1.1815446997004945e-05,0.14010642,0.27513126000000004,9.79084107,0.004992,-0.00201,0.00423,0.08320911254892202
1757932192.8156452,-0.14537884740841533,0.2691195361082239,2.0525322941827557,-0.44940846825351405,0.8250332644603176,-3.370277433017751,0.1774736581065089,1.1077857650017099e-05,0.1588239,0.28051695,9.76269618,0.000835,0.001297,0.002712,0.08224375045423818
1757932192.8400831,-0.1538718955757872,0.28315752314029674,2.056089877374009,-0.453588596319116,0.8270279801584753,-3.370277433017751,0.1774736581065089,1.0375153010570788e-05,0.16151184,0.25911153,9.795775500000001,0.002809,-0.002086,0.003518,0.0825042057012536
1757932192.860641,-0.15644301692396992,0.28636660101295214,2.0594222827418003,-0.4574010519621498,0.8286802170852591,-3.370277433017751,0.1774736581065089,9.731975061194608e-06,0.14564907000000002,0.26344755000000003,9.78141366,0.002371,-0.001806,0.00415,0.08045463730277314
1757932192.8808346,-0.1620797516492034,0.29513380916950155,2.062570669624158,-0.4609317755861285,0.8300704922916119,-3.370277433017751,0.1774736581065089,9.129387959115713e-06,0.15582204,0.27632808,9.75805605,0.002211,0.001079,0.00421,0.07984616303736895
1757932192.901021,-0.1677150058659359,0.3038704378424523,2.065549613114573,-0.4642005443296611,0.8312229844223553,-3.370277433017751,0.1774736581065089,8.56465912565355e-06,0.16525926000000002,0.26449722000000003,9.79203789,0.003573,-0.001538,0.003826,0.07924873205766526
1757932192.9211614,-0.17435542876066334,0.31437193407896674,2.0683784432526835,-0.46723219477762273,0.8321578740722849,-3.370277433017751,0.1774736581065089,8.031924332253706e-06,0.15282999000000003,0.25312743,9.78215922,0.002577,0.002188,0.00578,0.07902146865608109
1757932192.9419153,-0.1787489737929036,0.32085217865980264,2.0710545994205773,-0.47002847762140926,0.8328973909316947,-3.370277433017751,0.1774736581065089,7.536744916975275e-06,0.1505835,0.26689086,9.7607538,0.003631,0.001041,0.00338,0.0779557406711289
1757932192.9629617,-0.1843273878213691,0.3294237097930795,2.0735967759624963,-0.47261769789712504,0.8334631966445691,-3.370277433017751,0.1774736581065089,7.072323652786452e-06,0.13950801,0.26674371,9.78919299,0.004761,-0.002086,0.004508,0.07744326253230226
1757932192.9838538,-0.18976841556182938,0.3377370684360739,2.0760138888461404,-0.47501476506778806,0.8338729013970164,-3.370277433017751,0.1774736581065089,6.637024727390203e-06,0.14773860000000003,0.25970994000000003,9.76898439,0.002227,0.002286,0.003286,0.07690048452747175
1757932193.0043042,-0.1962231048588822,0.34780846395550363,2.078320127718678,-0.4772344904810977,0.8341325218424089,-3.370277433017751,0.1774736581065089,6.2263356569739555e-06,0.16046217000000002,0.26030835,9.76943565,0.003638,-0.000764,0.004728,0.07673506183782922
1757932193.0248878,-0.2011461225541762,0.35518755321744006,2.080514985486806,-0.4792880112065859,0.8342687677189491,-3.370277433017751,0.1774736581065089,5.8427630781011445e-06,0.13801689,0.26674371,9.7724277,0.002231,0.001104,0.004109,0.07599885765675167
1757932193.0453975,-0.20693380663914818,0.3640624227586093,2.0826104532235927,-0.48118860661901813,0.8342869612705782,-3.370277433017751,0.1774736581065089,5.4823016758750065e-06,0.14309847,0.25267617,9.784248750000001,0.002572,-0.00139,0.00422,0.07564426637135646
1757932193.065793,-0.21155390840971644,0.37090693645602557,2.0846075196725975,-0.48295028201877627,0.8342135274271101,-3.370277433017751,0.1774736581065089,5.145984623034108e-06,0.13801689,0.27513126000000004,9.77362452,0.004531,-0.001172,0.003359,0.07489695343293203
1757932193.0861156,-0.21716849644345876,0.37946471104852264,2.0865173714450744,-0.48458224700892316,0.8340473482493191,-3.370277433017751,0.1774736581065089,4.829948981707809e-06,0.15297714,0.2630061,9.79189074,0.001603,-0.000777,0.004442,0.0745805173002072
1757932193.106158,-0.22269886093952573,0.38786804609211684,2.0883450765782614,-0.4860936552047046,0.8337980845113704,-3.370277433017751,0.1774736581065089,4.5331327682407235e-06,0.15074046,0.26734212,9.78036399,0.005205,-0.000257,0.004006,0.07423449680828187
1757932193.1281865,-0.23746233010092602,0.4120488835765748,2.0900978580996714,-0.4874900078859479,0.8334649871451765,-3.370277433017751,0.1774736581065089,4.253472569420254e-06,0.16406244,0.26973576,9.79338186,0.003049,-0.001773,0.004845,0.07790595751284426
1757932193.1486404,-0.2430541905166822,0.42049262858113917,2.091772915228481,-0.48878897949166233,0.8330849614353888,-3.370277433017751,0.1774736581065089,3.992876207581148e-06,0.13981212,0.2601612,9.77512545,0.004417,-0.000175,0.004792,0.07769112718309842
1757932193.1727197,-0.24332479832849044,0.4188736004516847,2.094920277462018,-0.49111022904414087,0.832164288775027,-3.370277433017751,0.1774736581065089,3.518736340933187e-06,0.14474655,0.27602397,9.767493270000001,0.000158,0.000742,0.00443,0.07254401410653077
1757932193.1932905,-0.24332479832849044,0.4188736004516847,2.094920277462018,-0.49111022904414087,0.832164288775027,-3.370277433017751,0.1774736581065089,3.518736340933187e-06,0.14474655,0.27602397,9.767493270000001,0.000158,0.000742,0.00443,0.07254401410653077
1757932193.2158158,-0.2551070187235161,0.43683436766775224,2.0978465990720228,-0.493041556627716,0.8309198379931886,-3.370277433017751,0.1774736581065089,3.092864981245269e-06,0.14429529,0.29144529,9.76090095,0.003637,0.00137,0.003372,0.07193233730319404
1757932193.2393754,-0.26205534395793256,0.44757997521986115,2.0992214395822426,-0.49390682889054,0.8302654660671268,-3.370277433017751,0.1774736581065089,2.900960000238444e-06,0.14564907000000002,0.26061246,9.7929306,0.003862,-0.001154,0.003567,0.07227733772918857
1757932193.260159,-0.26397176181747267,0.44987280715662065,2.100532795866269,-0.49473662194655366,0.8296503546037046,-3.370277433017751,0.1774736581065089,2.7246097942246284e-06,0.15387966,0.26135802,9.7869465,0.004182,-0.001232,0.005341,0.07082607620552653
1757932193.2801766,-0.2691509391621866,0.457648786348303,2.101795354602312,-0.49550732035164163,0.8290117853344485,-3.370277433017751,0.1774736581065089,2.55879942869502e-06,0.15552774,0.26764623000000004,9.76164651,0.002673,0.000283,0.004976,0.0707320491097451
1757932193.3003807,-0.27435503357747965,0.4654649221492067,2.1030116933540786,-0.49622170576702185,0.8283505800908632,-3.370277433017751,0.1774736581065089,2.4028808957182883e-06,0.13711437,0.27288477000000005,9.77886306,0.00546,-0.003332,0.003683,0.07061153672216064
1757932193.3206239,-0.28062069401938966,0.47504743091716534,2.1041872770482843,-0.4968721179595852,0.8276455983345264,-3.370277433017751,0.1774736581065089,2.2553470526700457e-06,0.13995927,0.26135802,9.79517709,0.002392,0.000131,0.003874,0.07081885684849026
1757932193.3412254,-0.284881118055246,0.4812884787766829,2.105318059443519,-0.4974814376860179,0.8269415110505145,-3.370277433017751,0.1774736581065089,2.117545450286018e-06,0.16016787000000002,0.27408159,9.76733631,0.001995,0.000909,0.004519,0.07027946873243578
1757932193.3622746,-0.28948904652180146,0.4881115204982949,2.1064074298808038,-0.4980492817403788,0.826232644749431,-3.370277433017751,0.1774736581065089,1.9884457090915655e-06,0.14280417,0.27572967000000004,9.767934720000001,0.0048,-0.001453,0.003961,0.06993913097245312
1757932193.3832784,-0.2943241423169615,0.4953136518781038,2.1074581080037245,-0.4985759258281418,0.8255153870027664,-3.370277433017751,0.1774736581065089,1.8672729981463459e-06,0.15163317,0.25836597,9.78649524,0.000786,0.001203,0.002735,0.06971130204518769
1757932193.4044864,-0.2997707580151666,0.5035276533843308,2.1084735663497822,-0.49905702415276687,0.8247772854739626,-3.370277433017751,0.1774736581065089,1.7531016865621982e-06,0.15822549000000002,0.26569404,9.79443153,0.003853,-0.001703,0.003739,0.06969785143152088
1757932193.4254656,-0.3047192103133339,0.5109176277178805,2.1094540726592204,-0.49950007717433814,0.8240303868670791,-3.370277433017751,0.1774736581065089,1.6458857086091417e-06,0.14400099,0.28051695,9.76554108,0.00289,0.001328,0.00496,0.06949048348288733
1757932193.4458725,-0.30959158415054877,0.5181831726941486,2.110401051905537,-0.4999080417920656,0.823277484172673,-3.370277433017751,0.1774736581065089,1.5452339693305943e-06,0.15133887000000001,0.2630061,9.79203789,0.003372,0.000458,0.004222,0.0692747761024197
1757932193.4668617,-0.31438298395293923,0.5253169217487077,2.1113158453338308,-0.5002837844833553,0.8225213238919996,-3.370277433017751,0.1774736581065089,1.450773027709371e-06,0.14969079000000002,0.25492266,9.77617512,0.005159,-0.001624,0.00308,0.0690520916568084
1757932193.4871273,-0.31973547532980146,0.5333732269530326,2.112201211926804,-0.5006224166364307,0.8217497266129126,-3.370277433017751,0.1774736581065089,1.3618090719248041e-06,0.15103476000000002,0.27542556,9.77362452,0.003202,0.001686,0.003504,0.0690346110085521
1757932193.507767,-0.3255283056720093,0.5421496874554821,2.1130593339745207,-0.5009199652495935,0.8209528695319938,-3.370277433017751,0.1774736581065089,1.2778364696797523e-06,0.1505835,0.2604555,9.78290478,0.002658,-0.001611,0.005172,0.06913835423317334
1757932193.5292282,-0.33939652057642167,0.5641374877563927,2.113889801162161,-0.5011860861950046,0.8201472187345406,-3.370277433017751,0.1774736581065089,1.1989332224250893e-06,0.15118191,0.27078543,9.78620094,0.002994,0.000242,0.005083,0.07272935203517268
1757932193.552439,-0.33809454167839825,0.5606095155745676,2.1154631263492565,-0.5016874043980211,0.8186205930734906,-3.370277433017751,0.1774736581065089,1.0569112386684334e-06,0.14669874000000002,0.26869590000000004,9.78230637,0.002461,-0.000992,0.00513,0.06791278578600954
1757932193.573025,-0.34292562675330923,0.56781880107626,2.1162115665571157,-0.5019076941108338,0.8178669822835672,-3.370277433017751,0.1774736581065089,9.924083215750638e-07,0.1474443,0.26030835,9.77632227,0.002792,0.001197,0.004313,0.0678681437946248
1757932193.5930758,-0.3477945531799901,0.5750910947799338,2.1169366008522443,-0.5021045643899459,0.8171114250717701,-3.370277433017751,0.1774736581065089,9.317521681496477e-07,0.15237873000000002,0.27557271000000005,9.77347737,0.00498,-0.000232,0.004635,0.0678194225355877
1757932193.6138775,-0.352234517541017,0.5816676118685654,2.1176383459507617,-0.5022841054299877,0.816363573360393,-3.370277433017751,0.1774736581065089,8.748613264825201e-07,0.14669874000000002,0.25521696000000005,9.7695828,0.003646,0.000747,0.004385,0.06761927166579221
1757932193.6349242,-0.35740461634741444,0.5894322328850898,2.118319109441005,-0.5024376456084196,0.815605872705356,-3.370277433017751,0.1774736581065089,8.212553978689066e-07,0.15148602000000003,0.25866027,9.78904584,0.003558,-0.000499,0.005591,0.0676814250856357
1757932193.6549532,-0.3615748242574332,0.5955759881637006,2.118977868549951,-0.5025787513543075,0.8148617731207726,-3.370277433017751,0.1774736581065089,7.710602509380012e-07,0.1360647,0.26973576,9.76898439,0.004036,-0.00146,0.005486,0.06738578842590531
1757932193.675044,-0.36612857818581424,0.6023448833929209,2.119616225871715,-0.5027031065533377,0.814121917964619,-3.370277433017751,0.1774736581065089,7.239258182235012e-07,0.15777423000000002,0.26105391,9.77452704,0.002229,0.001037,0.005079,0.06726481735226944
1757932193.695379,-0.3709320736349086,0.6095201711723932,2.1202353987356357,-0.502807926141285,0.8133799451498468,-3.370277433017751,0.1774736581065089,6.795944252913973e-07,0.14864112000000002,0.26719497000000003,9.78290478,0.003375,-0.00027,0.003841,0.06723492074682116
1757932193.7186754,-0.37811675751655394,0.6205439038437367,2.120839952995002,-0.502860563373869,0.8125762212755844,-3.370277433017751,0.1774736581065089,6.373256842007713e-07,0.15088761,0.26973576,9.775871010000001,0.003447,-0.000285,0.004655,0.06796725123743927
1757932193.7391942,-0.3796730826038431,0.6224767463025058,2.1214211820615763,-0.5029397703714145,0.8118506828865766,-3.370277433017751,0.1774736581065089,5.984109384608757e-07,0.16660323000000002,0.26210358,9.80086689,0.000248,-0.000365,0.005092,0.06670006562331901
1757932193.7603586,-0.38414582379587336,0.629124879479807,2.12198489404196,-0.5030061938141059,0.8111315764491066,-3.370277433017751,0.1774736581065089,5.618542355849958e-07,0.14833701000000002,0.25716915,9.77721498,0.003065,-0.002124,0.004848,0.06665910486029628
1757932193.7811358,-0.38845838358105517,0.6355175942792697,2.122531504269425,-0.5030619601169384,0.8104215729772615,-3.370277433017751,0.1774736581065089,5.275420045970162e-07,0.14923953,0.27632808,9.76164651,0.002422,0.000589,0.00436,0.06655581774975088
1757932193.8019097,-0.39317950377418587,0.6425707999282322,2.1230622567953414,-0.5031016175912199,0.8097099747042054,-3.370277433017751,0.1774736581065089,4.95252223473325e-07,0.16046217000000002,0.26255484,9.78605379,0.004431,-0.002503,0.003498,0.06659226052997434
1757932193.8221364,-0.39718396397692945,0.6484735372752923,2.1235766836795413,-0.5031348764990795,0.8090129815005878,-3.370277433017751,0.1774736581065089,4.6499898357954964e-07,0.14909238,0.26255484,9.772280550000001,0.002973,0.000493,0.004662,0.06637339938407
1757932193.8422909,-0.4016120451117843,0.6550606272395492,2.124076012853335,-0.5031561481241791,0.8083197944022406,-3.370277433017751,0.1774736581065089,4.3656941649550236e-07,0.14115609,0.27138384000000004,9.76539393,0.001966,-0.000878,0.004677,0.06632930599176022
1757932193.8633463,-0.4059739664159821,0.6615440590693814,2.1245606931976617,-0.5031663352622109,0.8076311336773161,-3.370277433017751,0.1774736581065089,4.098632130889063e-07,0.15402681000000001,0.26539974000000005,9.79323471,0.003692,-0.001895,0.003254,0.06626148530679271
1757932193.8834643,-0.4101415772046824,0.6677185979756197,2.125030995607058,-0.5031681640771936,0.8069509249901166,-3.370277433017751,0.1774736581065089,3.8480242677539415e-07,0.16181595000000001,0.26748927,9.77632227,0.003305,0.000426,0.003829,0.06613522308955982
1757932193.9035358,-0.4144280805581405,0.6740868071456809,2.125487599624419,-0.5031600766978978,0.8062756475452181,-3.370277433017751,0.1774736581065089,3.6126351257208407e-07,0.14893542,0.25940583,9.7695828,0.003325,-0.00087,0.004817,0.06606627165257646
1757932193.924432,-0.4190707447679318,0.6810279512412615,2.125931425846691,-0.5031371115187037,0.8055959655681385,-3.370277433017751,0.1774736581065089,3.3910587054353514e-07,0.15777423000000002,0.26944146,9.7692885,0.003269,0.001078,0.003861,0.06611943880467797
1757932193.9450986,-0.4234723402144904,0.6875852146834083,2.1263625920885856,-0.5031026399998898,0.8049170372611711,-3.370277433017751,0.1774736581065089,3.1828326488805205e-07,0.14983794,0.26165232000000005,9.7695828,0.001867,0.000562,0.004726,0.06607501142084862
1757932193.96719,-0.43684857511118935,0.7084927838744595,2.1267810146963058,-0.5030630757203591,0.8042492185297807,-3.370277433017751,0.1774736581065089,2.987654987566569e-07,0.15612615,0.26344755000000003,9.768533130000002,0.00201,0.001216,0.00423,0.06992042478752111
1757932193.987846,-0.4413135385920289,0.715145963929505,2.1271866322505524,-0.5030252112318324,0.8036034547915806,-3.370277433017751,0.1774736581065089,2.8051396986651737e-07,0.15986376000000002,0.26614530000000003,9.75850731,0.003955,-0.001405,0.003673,0.07003677490414073
1757932194.011847,-0.4388946338516746,0.7103549684415507,2.127963492195926,-0.5029275331019348,0.8023289624222777,-3.370277433017751,0.1774736581065089,2.4726410509006223e-07,0.15567489,0.26599815,9.784101600000001,0.004446,0.000573,0.002826,0.06540791651191244
1757932194.0319376,-0.4429772468004337,0.7164183062753753,2.12833516300001,-0.5028722537118532,0.8017067577832542,-3.370277433017751,0.1774736581065089,2.3216097199560132e-07,0.15447807000000002,0.2573163,9.791135370000001,0.000804,0.001196,0.003857,0.06538478231408593
1757932194.0524597,-0.4472480288311513,0.7227842835462363,2.1286965573670225,-0.5028071263536609,0.8010843614600185,-3.370277433017751,0.1774736581065089,2.179543123346507e-07,0.15208443,0.27093258000000003,9.76180347,0.005185,-0.001523,0.005466,0.06542025031460003
1757932194.073017,-0.45155361086041024,0.7292080720184614,2.129048033614019,-0.5027313105019587,0.8004598520088021,-3.370277433017751,0.1774736581065089,2.0458999125160635e-07,0.14954364,0.25925868,9.7866522,0.002642,0.00038,0.003303,0.06545342897899852
1757932194.093591,-0.4551271417376241,0.7344694891326262,2.129389195342897,-0.5026551666283852,0.7998502451909135,-3.370277433017751,0.1774736581065089,1.9207372511692272e-07,0.15492933000000003,0.26105391,9.77991273,0.002302,-0.000507,0.004098,0.06523738423695707
1757932194.114235,-0.4594964714726773,0.7410001031455757,2.129721170129697,-0.5025673468166505,0.7992358880076456,-3.370277433017751,0.1774736581065089,1.8029058808126677e-07,0.15193728,0.26225073,9.77063247,0.003704,0.000894,0.003084,0.06532587313732871
1757932194.1346843,-0.46303718775973673,0.7462160410939805,2.130043473153769,-0.5024795455184886,0.798635999733829,-3.370277433017751,0.1774736581065089,1.6925432883550884e-07,0.15747012000000002,0.25911153,9.787093650000001,0.000875,-0.000322,0.003946,0.0651210850186705
1757932194.155352,-0.4667536351748376,0.7517148449165569,2.1303566150039472,-0.5023892979937432,0.7980459464085098,-3.370277433017751,0.1774736581065089,1.5890150610771566e-07,0.15373251000000002,0.25536411,9.77706783,0.004108,-0.000663,0.005055,0.06501682095945353
1757932194.1754386,-0.47056848601497875,0.7573731781726094,2.130660997350388,-0.5022950146475249,0.7974625996334265,-3.370277433017751,0.1774736581065089,1.4918133361082877e-07,0.14833701000000002,0.26554689,9.771378030000001,0.002123,0.002182,0.004093,0.06496384278368861
1757932194.1963015,-0.47431209945656505,0.7629215570947128,2.1309568512844663,-0.5021974462792252,0.796886779145241,-3.370277433017751,0.1774736581065089,1.4005750580148746e-07,0.15507648,0.26839179,9.7781175,0.003297,-0.001354,0.004818,0.06489551239098343
1757932194.2165287,-0.47803009749591946,0.7684324588783676,2.1312444412874605,-0.5020967082347592,0.7963182575807866,-3.370277433017751,0.1774736581065089,1.3149300492828947e-07,0.14459940000000002,0.26989272000000003,9.775419750000001,0.002552,0.000381,0.003314,0.06483071633654991
1757932194.2374709,-0.48191581775192516,0.7742123161436043,2.1315241763659483,-0.5019900988193559,0.795752136725861,-3.370277433017751,0.1774736581065089,1.2344407450693049e-07,0.14474655,0.27108954,9.775272600000001,0.002728,-0.000134,0.00284,0.06483216216060439
1757932194.257608,-0.4857201065090168,0.7798659365720316,2.1317962395155723,-0.5018784546434142,0.7951894396580506,-3.370277433017751,0.1774736581065089,1.1588326135906842e-07,0.16241436,0.26764623000000004,9.77766624,0.003079,-0.002086,0.004486,0.0648045250381658
1757932194.277919,-0.4894916276900449,0.7854705315001362,2.13206085018869,-0.5017620215955414,0.7946302176791693,-3.370277433017751,0.1774736581065089,1.0878181535671609e-07,0.15297714,0.26689086,9.767934720000001,0.002287,-0.000936,0.003569,0.06477135219732223
1757932194.2985172,-0.4929339743135798,0.7905570066298533,2.132318002637316,-0.5016454399298851,0.7940818045226039,-3.370277433017751,0.1774736581065089,1.0212410155971623e-07,0.14849397,0.26360451,9.77302611,0.002287,-0.000936,0.003569,0.06463760487513015
1757932194.3195465,-0.4981680781483901,0.7984813951960369,2.1325692416353164,-0.5015017538054243,0.7934993347977071,-3.370277433017751,0.1774736581065089,9.581436536431286e-08,0.14490351,0.26929431000000004,9.783954450000001,0.003608,-0.002295,0.003321,0.06511760258691317
1757932194.339657,-0.5002117428268044,0.8013610896616735,2.1328124201471557,-0.5013781446758447,0.7929603841250683,-3.370277433017751,0.1774736581065089,8.995280136317074e-08,0.14220576000000001,0.25597233,9.76972995,0.001059,0.000564,0.004127,0.06445112655832824
1757932194.3603773,-0.5051692910034354,0.8088520781500397,2.133049891575559,-0.5012320308613665,0.7923944286777489,-3.370277433017751,0.1774736581065089,8.44040912168315e-08,0.16121754000000002,0.2721294,9.77032836,0.00471,-0.001795,0.004395,0.06488956797632464
1757932194.3805351,-0.5071952602819758,0.8117120003506602,2.1332798041429974,-0.5011061898470903,0.791871566088033,-3.370277433017751,0.1774736581065089,7.924690635233108e-08,0.15342840000000002,0.26554689,9.780658290000002,0.00244,0.002604,0.004245,0.0642711293110826
1757932194.4012282,-0.5106009145753301,0.8167562246089887,2.133503389820703,-0.500980914646653,0.7913590347843542,-3.370277433017751,0.1774736581065089,7.440640073553049e-08,0.15133887000000001,0.26659656,9.78589683,0.004042,-0.001507,0.003889,0.06424349266102017
1757932194.422099,-0.5166022095615637,0.8259014654550627,2.1337224934395156,-0.5008160404009474,0.7907907060762647,-3.370277433017751,0.1774736581065089,6.979275784405866e-08,0.15268284000000001,0.26704782,9.77706783,0.004448,-0.000658,0.004148,0.0650652779375449
1757932194.4430916,-0.5176296640645278,0.8271964592789012,2.1339340533642748,-0.500685431523567,0.7902873430812201,-3.370277433017751,0.1774736581065089,6.553098710931238e-08,0.14954364,0.27393444,9.78934014,0.00216,0.000217,0.003381,0.06407990533463684
1757932194.4638226,-0.5211627123657739,0.8324506112179603,2.134139954574305,-0.5005530849477688,0.7897896923216133,-3.370277433017751,0.1774736581065089,6.152540002005305e-08,0.16270866,0.26105391,9.7954812,0.004417,-0.000822,0.003059,0.064140814155688
1757932194.485548,-0.5309034303893914,0.8474972282765815,2.134343993482485,-0.5003163419653492,0.7891302120052412,-3.370277433017751,0.1774736581065089,5.762343606961081e-08,0.14519781,0.26344755000000003,9.77781339,0.003257,-0.001524,0.004405,0.06619960561301212
1757932194.512282,-0.537768170168392,0.858006330050271,2.1345393917917033,-0.500159613402913,0.7886091302952809,-3.370277433017751,0.1774736581065089,5.408558561781415e-08,0.14639463000000003,0.25611948,9.7695828,0.003729,-0.000209,0.003474,0.06776794684228468
1757932194.5318294,-0.5342194744247708,0.8517985165873082,2.1349128038974916,-0.4998987163278713,0.7876759215613046,-3.370277433017751,0.1774736581065089,4.7702930500236315e-08,0.16615197,0.26748927,9.77781339,0.002329,0.000254,0.004142,0.06367395493756325
1757932194.5526617,-0.5378346563969361,0.8571961494711329,2.1350921763548882,-0.49976777470121947,0.7872195344326102,-3.370277433017751,0.1774736581065089,4.479245360646573e-08,0.15014205,0.25552107,9.7812567,0.005108,-0.001944,0.005523,0.0638606190918189
1757932194.5732782,-0.5407798332089048,0.8615413173189188,2.135266587476515,-0.4996413782204537,0.7867775600162205,-3.370277433017751,0.1774736581065089,4.206317336907636e-08,0.16346403,0.25566822,9.76044969,0.002389,0.000753,0.003144,0.06377951313999146
1757932194.5933554,-0.5436259960008314,0.8657338151476216,2.135436154048185,-0.499520101141771,0.7863507095551194,-3.370277433017751,0.1774736581065089,3.950437875504021e-08,0.15014205,0.27153099,9.79009551,0.003696,0.000353,0.004656,0.06368122889668408
1757932194.6136646,-0.5470695029513024,0.8708694850706094,2.135601332762157,-0.4993945342550726,0.7859235121684278,-3.370277433017751,0.1774736581065089,3.7095923476056996e-08,0.15342840000000002,0.26764623000000004,9.76180347,0.004958,-6.3e-05,0.003848,0.0637987884467015
1757932194.63424,-0.5500185620989096,0.8752298433137171,2.1357620095675394,-0.4992705699113547,0.785505337519063,-3.370277433017751,0.1774736581065089,3.483608377392965e-08,0.155979,0.26659656,9.80057259,0.002075,3.7e-05,0.005041,0.06372629666025566
1757932194.6546726,-0.5534026499385181,0.8802773508154467,2.1359185330439363,-0.49914129475105246,0.7850848187781315,-3.370277433017751,0.1774736581065089,3.270963414906475e-08,0.15208443,0.27049113,9.765246780000002,0.004656,-0.004322,0.0051,0.06381361950267397
1757932194.6747267,-0.5565280502872719,0.8849206197581594,2.1360709014973125,-0.49900960969708935,0.7846664857200949,-3.370277433017751,0.1774736581065089,3.071211789398597e-08,0.15358536,0.27453285,9.768533130000002,0.003118,0.000696,0.003676,0.0637977703502472
1757932194.694794,-0.5596789546444279,0.8896066844551402,2.136219252224735,-0.4988747213120313,0.7842488959344006,-3.370277433017751,0.1774736581065089,2.8835281254019232e-08,0.14624748,0.25237206,9.795029940000001,0.002282,-0.000182,0.003414,0.06379667867480071
1757932194.7151856,-0.5635222179347905,0.8953833795196273,2.136364003370293,-0.49872569852375903,0.7838142719755183,-3.370277433017751,0.1774736581065089,2.7064553247627013e-08,0.14115609,0.26779338,9.77317326,0.005371,-0.001604,0.005114,0.06402652761250507
1757932194.7354293,-0.5658557144609044,0.8987900747046785,2.136504599898993,-0.49858470627952445,0.783398187776572,-3.370277433017751,0.1774736581065089,2.5409783617351094e-08,0.15433092,0.26449722000000003,9.7695828,0.003418,0.000939,0.004321,0.06371400365763673
1757932194.7559752,-0.5693884436778489,0.904083702863867,2.13664168806433,-0.49843433785908425,0.7829724553656897,-3.370277433017751,0.1774736581065089,2.3851045997488472e-08,0.15043635,0.26853894,9.803260530000001,0.005515,-0.00318,0.003284,0.06387132986782398
1757932194.7768822,-0.5717741273811688,0.9075782742567969,2.136774896336286,-0.49829129110878184,0.7825637803635119,-3.370277433017751,0.1774736581065089,2.2393227807065824e-08,0.14414814,0.26135802,9.77661657,0.002773,0.001333,0.004019,0.06361929587160874
1757932194.7977269,-0.5746102804231106,0.9117832242750065,2.136904540244217,-0.49814923708961933,0.7821618216269327,-3.370277433017751,0.1774736581065089,2.102514220281429e-08,0.15148602000000003,0.27677934,9.77946147,0.004283,-0.000406,0.003729,0.06357540655361095
1757932194.8179505,-0.5776595265557725,0.9163253480769591,2.1370308121175317,-0.49800460947976605,0.7817606920568941,-3.370277433017751,0.1774736581065089,1.9739355088462142e-08,0.15163317,0.25611948,9.78290478,0.003695,-0.001329,0.003789,0.0636127204068447
1757932194.838973,-0.5805472822990262,0.9206165224682765,2.1371537490237085,-0.49785924805908327,0.78136319988702,-3.370277433017751,0.1774736581065089,1.8532083239769597e-08,0.15971661,0.25820901,9.7784118,0.000251,0.000506,0.003474,0.0635904472238707
1757932194.8596897,-0.5833175605353457,0.9247259506520628,2.137273409152895,-0.49771460092219927,0.7809715279256768,-3.370277433017751,0.1774736581065089,1.7399165348496518e-08,0.15297714,0.26165232000000005,9.78201207,0.005319,-0.00223,0.004106,0.06353733320559937
1757932194.8805277,-0.586565571504073,0.9295873763523432,2.137390062928426,-0.49756314587914424,0.7805734914773,-3.370277433017751,0.1774736581065089,1.6332772965183328e-08,0.14654178,0.26240768999999997,9.79877736,0.001917,-0.000353,0.003577,0.06365659866027637
1757932194.9013584,-0.5892532697319185,0.9335722535243537,2.1375035948679226,-0.4974127168381783,0.7801815121381998,-3.370277433017751,0.1774736581065089,1.5332584436371587e-08,0.14669874000000002,0.26944146,9.767493270000001,0.003065,-0.000554,0.004225,0.063568415105088
1757932194.9216607,-0.5922229387425264,0.9380018598691016,2.1376141981145134,-0.4972590418177544,0.7797886335406985,-3.370277433017751,0.1774736581065089,1.4392649391399084e-08,0.13936086,0.26090676,9.77826465,0.004512,-0.002662,0.004339,0.06359789457993592
1757932194.942317,-0.5953166169946593,0.942628212485875,2.1377219961547302,-0.4970997998827026,0.7793910307717317,-3.370277433017751,0.1774736581065089,1.3508707806634255e-08,0.1505835,0.27063828,9.783807300000001,0.002222,0.002173,0.004881,0.06366627532076691
1757932194.962636,-0.5977625914628041,0.9462415532033605,2.1378268570274095,-0.49694464647703596,0.7790040158712386,-3.370277433017751,0.1774736581065089,1.2680716035589289e-08,0.14938668000000002,0.26255484,9.76809168,0.003575,-0.001519,0.004376,0.0635113231262267
1757932194.983593,-0.5977625914628041,0.9462415532033605,2.1378268570274095,-0.49694464647703596,0.7790040158712386,-3.370277433017751,0.1774736581065089,1.2680716035589289e-08,0.14938668000000002,0.26284914,9.791586630000001,0.001839,-0.001312,0.004765,0.0635113231262267
1757932195.0049467,-0.6068531611031414,0.9600531108905366,2.1380320869904663,-0.4964077289649131,0.7778805470876201,-3.370277433017751,0.1774736581065089,1.1123671281135412e-08,0.14624748,0.26958861,9.771976440000001,0.004226,-0.00318,0.004954,0.06401665725272782
1757932195.0268073,-0.6153911903197344,0.9732177851570355,2.1381285234592067,-0.4962543987302909,0.7775080433869994,-3.370277433017751,0.1774736581065089,1.0448327002934936e-08,0.155979,0.27108954,9.784101600000001,0.002002,0.000465,0.004799,0.06689590641727883
1757932195.0510902,-0.6103852968723193,0.964959665225132,2.138313916712317,-0.495976897586856,0.7768203086174824,-3.370277433017751,0.1774736581065089,9.216936614299442e-09,0.14983794,0.2689902,9.77003406,0.003599,-0.00182,0.005079,0.06282821072009728
1757932195.0716984,-0.6129907985103041,0.9688378262339579,2.138402983264008,-0.4958488477380128,0.7764985421005215,-3.370277433017751,0.1774736581065089,8.656502630540226e-09,0.15612615,0.27872172,9.763893,0.003541,0.000826,0.004908,0.06294995278683849
1757932195.09185,-0.6158101886408383,0.9730531425555725,2.1384898107664494,-0.4957201212973065,0.7761789147145333,-3.370277433017751,0.1774736581065089,8.128900395054149e-09,0.15148602000000003,0.26121087000000004,9.7812567,0.00167,1.7e-05,0.003866,0.06311047797685333
1757932195.1138585,-0.6192927256392474,0.9783086466128562,2.1385746313406155,-0.4955784083745863,0.7758417721910423,-3.370277433017751,0.1774736581065089,7.630375357805553e-09,0.14833701000000002,0.26150517,9.74473407,0.00568,-0.00158,0.003695,0.06345423441720154
1757932195.1341112,-0.6209294593718505,0.9806768808569643,2.1386570081489396,-0.4954494632474908,0.7755279922262752,-3.370277433017751,0.1774736581065089,7.164872249387839e-09,0.15193728,0.26255484,9.783208890000001,0.001773,0.002701,0.003847,0.06311427390016755
1757932195.155012,-0.6233851849754047,0.9843295395384697,2.1387372382700836,-0.4953216621667105,0.7752190340528926,-3.370277433017751,0.1774736581065089,6.727648579511338e-09,0.15567489,0.26659656,9.755515260000001,0.001773,0.002701,0.003847,0.06312702186505144
1757932195.1759067,-0.6267352189965365,0.9893837666090325,2.138815602720836,-0.4951803912289046,0.7748916163658779,-3.370277433017751,0.1774736581065089,6.31476091235717e-09,0.14998509000000002,0.28081125,9.75745764,0.003196,0.000171,0.003789,0.0634355738857
1757932195.1968508,-0.6286608891965857,0.9922112499960535,2.138891797188913,-0.49504579283689504,0.7745776421306376,-3.370277433017751,0.1774736581065089,5.9284461317393404e-09,0.15478218000000002,0.2633004,9.77467419,0.004179,0.000679,0.002916,0.06320847277387942
1757932195.217682,-0.6304515282658745,0.9948299616516125,2.1389658651593297,-0.49492045790143435,0.7742811511208951,-3.370277433017751,0.1774736581065089,5.567051097460944e-09,0.15777423000000002,0.25222491,9.78634809,0.004573,-0.001046,0.004829,0.06299334890513544
1757932195.2423017,-0.6380459847757479,1.006528951966405,2.1390391979163645,-0.4947090074365933,0.7738509268562274,-3.370277433017751,0.1774736581065089,5.216974657863758e-09,0.14534496,0.25476570000000004,9.7695828,0.002703,0.000327,0.003884,0.06474402092910184
1757932195.262732,-0.6354061623754882,1.0022217342315716,2.139109447159594,-0.49457463335942636,0.7735454301781138,-3.370277433017751,0.1774736581065089,4.899235752477275e-09,0.16136469,0.27003987,9.77317326,0.003535,-0.001316,0.004357,0.06273179579786475
1757932195.2839572,-0.6376345138067477,1.0055317591036772,2.1391778590383694,-0.49444622115560827,0.7732520085844268,-3.370277433017751,0.1774736581065089,4.6008601868453106e-09,0.14969079000000002,0.26001405,9.79173378,0.002294,-1.7e-05,0.003532,0.06280192546498115
1757932195.3042693,-0.6397672372248945,1.008694406706946,2.1392444664150245,-0.4943235548028531,0.7729701899222233,-3.370277433017751,0.1774736581065089,4.320793274599325e-09,0.13816404,0.27243351000000005,9.77677353,0.003375,-0.000312,0.003218,0.06281789732076325
1757932195.326124,-0.6519819403257542,1.0276223982097334,2.1393095251014618,-0.49419054716887356,0.772674412393959,-3.370277433017751,0.1774736581065089,4.056314320734302e-09,0.15342840000000002,0.26195643,9.787996170000001,0.002738,0.001549,0.004485,0.06712279276694665
1757932195.346275,-0.6542851990700187,1.031054127558873,2.1393727420312203,-0.4940690831694619,0.7723992337854186,-3.370277433017751,0.1774736581065089,3.8091242079463845e-09,0.15732297,0.26435007,9.79009551,0.004398,-0.002831,0.005079,0.06719755673882054
1757932195.3712697,-0.6488537552542856,1.0222342714662775,2.139494328630118,-0.4938280564322572,0.7718586483691297,-3.370277433017751,0.1774736581065089,3.358671124151136e-09,0.15986376000000002,0.25536411,9.80521272,0.004474,0.001083,0.006067,0.06293658150144019
1757932195.3915057,-0.6512129155164014,1.025761017450363,2.139552803240628,-0.49370556723236586,0.7715884916556642,-3.370277433017751,0.1774736581065089,3.1535449846627668e-09,0.14459940000000002,0.26704782,9.78185511,0.004474,0.001083,0.006067,0.06300297017433433
1757932195.4124746,-0.6534153700707304,1.0290447816175126,2.1396097705823713,-0.49358214101392556,0.7713189526674838,-3.370277433017751,0.1774736581065089,2.9608720822523294e-09,0.14849397,0.2718351,9.79682517,0.00408,-0.003272,0.003577,0.06300605686509839
1757932195.4334068,-0.6534153700707304,1.0290447816175126,2.1396097705823713,-0.49358214101392556,0.7713189526674838,-3.370277433017751,0.1774736581065089,2.9608720822523294e-09,0.14849397,0.2718351,9.79682517,0.00408,-0.003272,0.003577,0.06300605686509839
1757932195.4533615,-0.657594246938092,1.035264262101724,2.139720110840443,-0.49324620850710715,0.77064533474583,-3.370277433017751,0.1774736581065089,2.6057001276079345e-09,0.16390548000000002,0.26150517,9.77302611,0.003746,-0.001777,0.004421,0.06259480652043041
1757932195.4741461,-0.6595488021263468,1.0381664866118459,2.139772678498102,-0.4931233548830935,0.770382729665145,-3.370277433017751,0.1774736581065089,2.4470537107874403e-09,0.15118191,0.25746345000000004,9.78021684,0.002992,-0.001738,0.003148,0.06264536535429119
1757932195.4943879,-0.6618168533032255,1.0415603207415036,2.139823923753731,-0.4930011365800945,0.7701230364419178,-3.370277433017751,0.1774736581065089,2.297820604841443e-09,0.15178032,0.2601612,9.791439480000001,0.001923,0.000487,0.003098,0.06278320765633721
1757932195.51843,-0.6673990257015862,1.0501320910329188,2.1398744166817094,-0.4928233883467705,0.7697776257997226,-3.370277433017751,0.1774736581065089,2.1546801580859e-09,0.14115609,0.26644941,9.7926363,0.00581,-0.00249,0.005334,0.06398895747851638
1757932195.5392764,-0.6656235169202336,1.0472136821316005,2.139922966994889,-0.4927038337590738,0.7695257190045689,-3.370277433017751,0.1774736581065089,2.023688312366837e-09,0.1502892,0.26944146,9.75805605,0.002161,0.001453,0.003914,0.06248594794164018
1757932195.559272,-0.6677713539920334,1.0504252083219436,2.1399702906668407,-0.4925871185866597,0.7692800617889954,-3.370277433017751,0.1774736581065089,1.9004788129634042e-09,0.15103476000000002,0.24833034,9.768533130000002,0.003227,-0.002676,0.004259,0.06263736900000576
1757932195.579298,-0.669665355610061,1.0532421182532188,2.1400163807473014,-0.4924749000779832,0.7690431787831565,-3.370277433017751,0.1774736581065089,1.7847816550835888e-09,0.15328125,0.2689902,9.77018121,0.00239,-0.001495,0.005293,0.06266512564813673
1757932195.599489,-0.6717861866441154,1.056414992604984,2.140061305796136,-0.492362509435526,0.7688076533774834,-3.370277433017751,0.1774736581065089,1.6759773640260904e-09,0.14938668000000002,0.26480133,9.759556980000001,0.003347,-0.000584,0.002233,0.06276112354625432
1757932195.6203735,-0.673804119567329,1.0594289133245491,2.140105081352683,-0.49225007415541755,0.7685736380260296,-3.370277433017751,0.1774736581065089,1.5737305713516917e-09,0.15672456,0.25342173,9.76180347,0.005023,-0.002194,0.004894,0.06280227440506078
1757932195.6406913,-0.6758882235052249,1.0625478378233142,2.1401477479720654,-0.49213566730725267,0.7683380598212013,-3.370277433017751,0.1774736581065089,1.4776088948772786e-09,0.14998509000000002,0.26255484,9.77797035,0.001943,0.000394,0.005441,0.0628593152779078
1757932195.6614323,-0.6777062665458936,1.0652530929931614,2.1401892985154394,-0.49202259266155124,0.7681060835530934,-3.370277433017751,0.1774736581065089,1.387396696608518e-09,0.14878827,0.27647523,9.767934720000001,0.004828,-0.001108,0.003808,0.06281889746343487
1757932195.6820388,-0.6797852850813519,1.068367420459413,2.1402298003664546,-0.4919066129668045,0.7678710072269506,-3.370277433017751,0.1774736581065089,1.30258262934192e-09,0.15897105,0.27049113,9.76733631,0.003317,-0.000107,0.003093,0.06287919476812552
1757932195.7029,-0.6817198838649291,1.0712579420937034,2.140269261967978,-0.4917893139056305,0.7676352902527004,-3.370277433017751,0.1774736581065089,1.2229204755998264e-09,0.14938668000000002,0.26180928000000003,9.77077962,0.003051,0.001204,0.003378,0.06288250448650598
1757932195.7231383,-0.6849438275176514,1.0761623538802962,2.1403078762023036,-0.491649657012897,0.767365815453525,-3.370277433017751,0.1774736581065089,1.147515512772151e-09,0.1417545,0.27468000000000004,9.791135370000001,0.005464,-0.003124,0.003583,0.0633208010965802
1757932195.7439096,-0.6854417831066875,1.0768138150355802,2.140345313325972,-0.49152947010912434,0.7671283177101158,-3.370277433017751,0.1774736581065089,1.0773773921712734e-09,0.16989939,0.265851,9.78141366,0.002359,0.001034,0.004512,0.06276002593624833
1757932195.7655358,-0.6942378862457599,1.090416451742445,2.140382629462861,-0.4912857321182888,0.7666980249867773,-3.370277433017751,0.1774736581065089,1.008765557382914e-09,0.14295132,0.25521696000000005,9.77781339,0.004256,-0.001068,0.002268,0.06508529855878938
1757932195.786289,-0.6908821253370464,1.0850568917997352,2.1404183156432453,-0.4911285031895871,0.766404920458031,-3.370277433017751,0.1774736581065089,9.466717811638184e-10,0.15612615,0.26689086,9.780511140000002,0.005273,-0.000844,0.003441,0.06287326320020128
1757932195.811311,-0.6925347065779328,1.0873961982396116,2.1404866954976347,-0.49086185788773207,0.7658978075415059,-3.370277433017751,0.1774736581065089,8.344284084645683e-10,0.14459940000000002,0.25506981,9.77751909,0.004256,-0.001521,0.002909,0.06228107530325675
1757932195.8315582,-0.693951620018345,1.0894900478036575,2.1405194292811354,-0.4907577740939887,0.7656920298751646,-3.370277433017751,0.1774736581065089,7.837479154240733e-10,0.14983794,0.27468000000000004,9.775723860000001,0.002459,0.001114,0.003318,0.06230658152599273
1757932195.8516827,-0.6958450644541826,1.0923289070952507,2.1405513397690905,-0.4906572967129724,0.765493061292965,-3.370277433017751,0.1774736581065089,7.360574287964691e-10,0.15328125,0.26225073,9.767934720000001,0.002047,-0.002489,0.003765,0.062478299462423184
1757932195.8721807,-0.6983121047601953,1.096063999026881,2.1405825073642077,-0.49054889474394164,0.7652827452002336,-3.370277433017751,0.1774736581065089,6.910347950099049e-10,0.15118191,0.26180928000000003,9.76943565,0.00512,-0.003647,0.003087,0.0628003245163541
1757932195.892676,-0.699719130863455,1.0981468755194663,2.1406128363594927,-0.4904459166952906,0.7650820045551823,-3.370277433017751,0.1774736581065089,6.488327844926824e-10,0.15538058999999999,0.25866027,9.77871591,0.003011,0.000859,0.005365,0.06269706756510982
1757932195.9136212,-0.7018169999881295,1.1013088544879182,2.1406424219351976,-0.4903375456466795,0.7648738472352569,-3.370277433017751,0.1774736581065089,6.09095743866785e-10,0.16002072,0.26509562999999997,9.77721498,0.003695,-0.001172,0.003208,0.06285305519652273
1757932195.9338605,-0.702684528864077,1.1025531761183922,2.1406711604320705,-0.4902414676785125,0.7646860029391804,-3.370277433017751,0.1774736581065089,5.719690167453905e-10,0.14295132,0.26061246,9.7897914,0.002051,-0.000141,0.002943,0.06256611722837417
1757932195.95385,-0.7048250736127416,1.105784564474405,2.1406992037344814,-0.4901390886223161,0.7644892816929991,-3.370277433017751,0.1774736581065089,5.369837751847054e-10,0.14998509000000002,0.26509562999999997,9.77826465,0.00415,-0.001446,0.004485,0.0627740831258396
1757932195.9747744,-0.7062714146939015,1.1079345696144218,2.140726501698852,-0.4900393586730691,0.7642976926335546,-3.370277433017751,0.1774736581065089,5.041693959494445e-10,0.16031502,0.25925868,9.763451550000001,0.004835,-0.001861,0.004642,0.06270565935250189
1757932195.9949489,-0.7090850168394192,1.1122182452687894,2.1407532010284376,-0.4899204714237682,0.7640770185609701,-3.370277433017751,0.1774736581065089,4.731296421179774e-10,0.14639463000000003,0.26180928000000003,9.76613949,0.000391,0.00046,0.004207,0.06311560024669978
1757932196.0149643,-0.7091525877532888,1.1122207496141354,2.140779064351703,-0.48982384280898195,0.7638921761701766,-3.370277433017751,0.1774736581065089,4.442806095647474e-10,0.14893542,0.27123669,9.77077962,0.003915,-0.002407,0.00523,0.06252011649198393
1757932196.0351365,-0.7108528438835799,1.1147709020116106,2.1408042687790054,-0.48972701358569676,0.763707946668169,-3.370277433017751,0.1774736581065089,4.171580269922216e-10,0.14265702,0.26794053,9.763451550000001,0.002827,-8e-05,0.003145,0.06261133968261481
1757932196.0555584,-0.7121918180219343,1.1167590075472875,2.1408288001791522,-0.4896343465387979,0.7635311316491293,-3.370277433017751,0.1774736581065089,3.917167921371246e-10,0.17394111,0.26853894,9.791292330000001,0.002655,-0.001875,0.00407,0.06256118192244063
1757932196.07588,-0.7143575803560541,1.120037633335623,2.1408527467956615,-0.4895326455542194,0.7633410219716558,-3.370277433017751,0.1774736581065089,3.677272970550716e-10,0.14010642,0.26375166,9.77601816,0.002445,-0.001342,0.004932,0.06280180409631134
1757932196.0959864,-0.7154517523111527,1.1216466205474307,2.1408760332074888,-0.48943695047457664,0.7631611598140274,-3.370277433017751,0.1774736581065089,3.4526537838515514e-10,0.15732297,0.26659656,9.771378030000001,0.003981,0.000702,0.005604,0.06263265424922036
1757932196.1167676,-0.7178428423966203,1.1252790236509336,2.140898783117354,-0.48932745302717245,0.7629604953798682,-3.370277433017751,0.1774736581065089,3.240579459357784e-10,0.15313410000000002,0.26884305000000003,9.77422293,0.004126,-0.001078,0.004081,0.0629417881030174
1757932196.13736,-0.7185857192081213,1.126342844783882,2.1409208779568747,-0.48922857032083894,0.762777255806641,-3.370277433017751,0.1774736581065089,3.042483915080935e-10,0.1474443,0.27393444,9.79233219,0.002888,0.001021,0.003006,0.06263410771670064
1757932196.1580594,-0.7199688089424698,1.1284061543622868,2.140942389136562,-0.48913186520826374,0.7625982155109552,-3.370277433017751,0.1774736581065089,2.8565691949577485e-10,0.15088761,0.26748927,9.77617512,0.003814,-0.000954,0.004738,0.06261594821595429
1757932196.178613,-0.7216190777315521,1.130887229358063,2.140963352622589,-0.489032859413064,0.7624163352773657,-3.370277433017751,0.1774736581065089,2.681777961294766e-10,0.15866694,0.26270199,9.77856876,0.002872,-0.002724,0.003257,0.06269416472230963
1757932196.199365,-0.7235295341748811,1.1337750856917599,2.140983800715608,-0.48892655346980096,0.7622237630401945,-3.370277433017751,0.1774736581065089,2.517208181296517e-10,0.14354973000000001,0.26389881000000004,9.780962400000002,0.002185,0.002247,0.00278,0.06284591230805571
1757932196.2194822,-0.7244750877242506,1.1351599205529403,2.1410036769238996,-0.48882742311634847,0.7620431442329944,-3.370277433017751,0.1774736581065089,2.3632166526084457e-10,0.15163317,0.26629245,9.771682140000001,0.004162,-0.00167,0.004903,0.06264502392512937
1757932196.2405381,-0.7257882705905546,1.1371190826405253,2.1410230250913385,-0.4887307029978472,0.7618670064202069,-3.370277433017751,0.1774736581065089,2.2187177423899317e-10,0.15342840000000002,0.2630061,9.77437008,0.00246,-0.000226,0.004215,0.06261765723813212
1757932196.2612228,-0.7271527078686616,1.1391593211225242,2.141041863439977,-0.4886354085560386,0.7616937864897368,-3.370277433017751,0.1774736581065089,2.0830612026045615e-10,0.15717582000000002,0.26061246,9.75326877,0.003507,0.000922,0.003008,0.06261642032139278
1757932196.2816195,-0.7291776597867824,1.1422302557261763,2.1410602490683432,-0.48853061362366657,0.7615063631571244,-3.370277433017751,0.1774736581065089,1.955185329531613e-10,0.1591182,0.25432425000000003,9.76464837,0.004555,-0.001631,0.004223,0.06284077284142513
1757932196.3019865,-0.7302363867536593,1.1437962118427851,2.1410781290151872,-0.4884303354782529,0.7613266523616788,-3.370277433017751,0.1774736581065089,1.8354102664828094e-10,0.15672456,0.25686504,9.77721498,0.002732,0.000492,0.003803,0.06269520935149765
1757932196.3231258,-0.7329699926070508,1.1479738066365774,2.1410956234310907,-0.48830799999581564,0.7611130644391736,-3.370277433017751,0.1774736581065089,1.7220388770168246e-10,0.15851979,0.2601612,9.78335604,0.004521,-0.002796,0.004876,0.06315151823037793
1757932196.3442686,-0.7327677498224328,1.1475765940814573,2.1411125568936473,-0.4882092694819879,0.7609370180410184,-3.370277433017751,0.1774736581065089,1.6167353563035242e-10,0.15133887000000001,0.27542556,9.7695828,0.001756,0.001508,0.004775,0.06252626112472785
1757932196.370336,-0.735087543224808,1.1510317451414551,2.1411450911685765,-0.4880197320403643,0.7605991428012133,-3.370277433017751,0.1774736581065089,1.425051094741268e-10,0.14160735,0.25581537,9.81014715,0.002591,-0.002506,0.005523,0.06245957395175589
1757932196.3911607,-0.7363311831903581,1.152891480774951,2.1411606973170283,-0.48793356500120094,0.7604445254667217,-3.370277433017751,0.1774736581065089,1.3380537461101007e-10,0.15148602000000003,0.2689902,9.75880161,0.001042,0.000566,0.003199,0.062484302004742504
1757932196.4121003,-0.7375642470585375,1.1547357911251264,2.1411758881737875,-0.4878499872301802,0.7602945071946332,-3.370277433017751,0.1774736581065089,1.25636420681908e-10,0.15282999000000003,0.27243351000000005,9.76659075,0.003809,-0.001544,0.003209,0.062500177551971
1757932196.4325693,-0.7390368482305208,1.1569544263379306,2.141190687859762,-0.487764483497667,0.7601420094589526,-3.370277433017751,0.1774736581065089,1.1795418559115235e-10,0.15387966,0.25956279,9.78620094,0.001367,0.001761,0.004644,0.06259475557957586
1757932196.453024,-0.7400897121813901,1.1585199690386878,2.1412050836660566,-0.48768256380364905,0.7599956323823318,-3.370277433017751,0.1774736581065089,1.1074925994302821e-10,0.16061913,0.26090676,9.764795520000002,0.002675,0.000322,0.00431,0.06252944843611584
1757932196.4733658,-0.741369050858474,1.1604394570779428,2.141219098977242,-0.48760068902716525,0.7598498326796965,-3.370277433017751,0.1774736581065089,1.0398103660917958e-10,0.14265702,0.26539974000000005,9.76599234,0.004927,-0.001875,0.00187,0.06255839238943756
1757932196.4935615,-0.7427787887978807,1.16256312569242,2.1412327503064343,-0.48751620025254555,0.7597004403374631,-3.370277433017751,0.1774736581065089,9.761804765468467e-11,0.14579622,0.2633004,9.77392863,0.001685,0.000754,0.00507,0.06262796443475763
1757932196.5145435,-0.7450237248807492,1.1659891599248775,2.141246087714988,-0.487414685708923,0.7595249152720414,-3.370277433017751,0.1774736581065089,9.160664617137071e-11,0.15103476000000002,0.26135802,9.77781339,0.005704,-0.002762,0.00365,0.06296773284555032
1757932196.5346034,-0.7451744501936607,1.1661528752181292,2.1412590150483677,-0.48732834062534774,0.7593735674027616,-3.370277433017751,0.1774736581065089,8.600389699518573e-11,0.15163317,0.26525259,9.763294590000001,0.003765,-0.000629,0.002959,0.06253328919943643
1757932196.555348,-0.7462474968811207,1.167754787877737,2.1412715911219022,-0.48724506405123835,0.7592274878601972,-3.370277433017751,0.1774736581065089,8.074662535704844e-11,0.1651023,0.25746345000000004,9.787397760000001,0.004836,-0.000427,0.003631,0.06251326114872335
1757932196.5757067,-0.7476040352325579,1.169799366085273,2.141283838580108,-0.4871601021058593,0.759079229196907,-3.370277433017751,0.1774736581065089,7.580424575447495e-11,0.1502892,0.26869590000000004,9.77452704,0.005042,-0.000786,0.004765,0.06259502634667426
1757932196.5963936,-0.76277261811418,1.1934346271668324,2.141283838580108,-0.4871601021058593,0.759079229196907,-3.370277433017751,0.1774736581065089,7.580424575447495e-11,0.14789556,0.27991854,9.77452704,0.002353,0.001317,0.005184,0.06931976536952597
1757932196.6166441,-0.750221615784332,1.1737420982784112,2.1413075901340317,-0.4868816672840933,0.7586144071006243,-3.370277433017751,0.1774736581065089,6.667308117941406e-11,0.15208443,0.26075961000000003,9.77781339,0.002573,-0.00394,0.003575,0.06230501237800423
1757932196.6366975,-0.750852054849757,1.1746580645161053,2.1413188533020335,-0.4867967760268136,0.7584675476641234,-3.370277433017751,0.1774736581065089,6.260771381687466e-11,0.14295132,0.27408159,9.77781339,0.002454,0.000823,0.0044,0.06222736926418551
1757932196.6575303,-0.7518994934220942,1.1762246631636677,2.1413298106431737,-0.4867190168699357,0.7583322617130286,-3.370277433017751,0.1774736581065089,5.878990719823318e-11,0.15373251000000002,0.26270199,9.76988691,0.003514,-0.001127,0.004188,0.06230081599927835
1757932196.6779795,-0.7530915951112122,1.1780175295067203,2.1413404757803125,-0.4866443785573894,0.7582022486517078,-3.370277433017751,0.1774736581065089,5.520125558951028e-11,0.14309847,0.25985709,9.791292330000001,0.004787,-0.001414,0.004361,0.06240186603859435
1757932196.6983745,-0.7540057419261921,1.179378217248827,2.141350844780984,-0.4865754046650437,0.7580814588982613,-3.370277433017751,0.1774736581065089,5.183403996822908e-11,0.1502892,0.25372584000000004,9.787849020000001,0.001306,0.001141,0.005243,0.06238442944088168
1757932196.718618,-0.7552248971966776,1.1812149558786138,2.141360937731701,-0.4865065674319738,0.7579612460482588,-3.370277433017751,0.1774736581065089,4.866817259989057e-11,0.15387966,0.26150517,9.783208890000001,0.005791,-0.003047,0.003492,0.062474098763525616
1757932196.7388113,-0.7562500597154462,1.1827503039307532,2.141370754045089,-0.4864395216775483,0.7578441826889649,-3.370277433017751,0.1774736581065089,4.56955444460001e-11,0.14639463000000003,0.26405577,9.780511140000002,0.003355,-0.001275,0.004472,0.062479384316080175
1757932196.759734,-0.7584862450224501,1.1861730923140053,2.141380345918069,-0.4863541091981762,0.7576987799704328,-3.370277433017751,0.1774736581065089,4.2883655761340986e-11,0.16361118,0.25806186000000003,9.763294590000001,0.003736,-0.00163,0.004473,0.06289548298052737
1757932196.7807524,-0.7583182337239762,1.1858512296325294,2.1413896291531707,-0.48628630493491865,0.7575812062219575,-3.370277433017751,0.1774736581065089,4.026519177800768e-11,0.14354973000000001,0.27468000000000004,9.767787570000001,0.005916,-0.000851,0.005366,0.06241229905572871
1757932196.8016005,-0.7597168988915747,1.1879708892995589,2.14139867103418,-0.4862142309711131,0.7574573083980017,-3.370277433017751,0.1774736581065089,3.7800322331492275e-11,0.13816404,0.26150517,9.7784118,0.00118,0.000683,0.003889,0.06257245550468421
1757932196.8218849,-0.7608825601090345,1.1897283373797942,2.141407468762786,-0.4861400436878217,0.7573304372388391,-3.370277433017751,0.1774736581065089,3.5484119701481e-11,0.15193728,0.25641378000000004,9.77467419,0.004066,-0.002082,0.00347,0.06261998534465416
1757932196.8429153,-0.761605073060327,1.1907962338457472,2.141416013592832,-0.4860703736239136,0.757210937176472,-3.370277433017751,0.1774736581065089,3.331364124263124e-11,0.15118191,0.25387299,9.78215922,0.003162,-0.000993,0.004233,0.06251094439537615
1757932196.8639457,-0.7623517144225499,1.191902518681229,2.1414243138654907,-0.48600534788717314,0.7570990016332785,-3.370277433017751,0.1774736581065089,3.1278714498365115e-11,0.15118191,0.25387299,9.78215922,0.003162,-0.000993,0.004233,0.06243752960235878
1757932196.8853781,-0.773425198504976,1.2090964763210437,2.141432406585219,-0.48593015857089333,0.7569715046652546,-3.370277433017751,0.1774736581065089,2.935947087260178e-11,0.15208443,0.26869590000000004,9.760155390000001,0.002999,-0.001921,0.003805,0.0668668842455932
1757932196.9062133,-0.7646876651667658,1.1954300203455746,2.1414402633391063,-0.48585935545324443,0.7568511454831011,-3.370277433017751,0.1774736581065089,2.7561755614544516e-11,0.15208443,0.26869590000000004,9.760155390000001,0.002999,-0.001921,0.003805,0.06255795836501017
1757932196.9305527,-0.7664981284430653,1.1981418496467309,2.141455361496268,-0.4856946891016996,0.7565752836938423,-3.370277433017751,0.1774736581065089,2.4278429152215528e-11,0.1505835,0.25147935000000005,9.77886306,0.002267,-0.000627,0.003631,0.06242038799820682
1757932196.9534197,-0.768708177309873,1.201531343244451,2.1414626088491016,-0.4856051847130057,0.7564265868166654,-3.370277433017751,0.1774736581065089,2.2782064641599973e-11,0.14474655,0.27123669,9.76120506,0.002258,-0.00189,0.003667,0.0628871346776021
1757932196.973981,-0.7679026278391793,1.2002242456202343,2.1414696012419663,-0.48554284832926853,0.7563205539255353,-3.370277433017751,0.1774736581065089,2.139339128531296e-11,0.14070483,0.25836597,9.763451550000001,0.004026,-0.000633,0.004186,0.06223093786733205
1757932196.9949665,-0.7689603821351615,1.2018203069654774,2.141476401241876,-0.48548217171787483,0.7562173861240744,-3.370277433017751,0.1774736581065089,2.0087587562307117e-11,0.14070483,0.26090676,9.787544910000001,0.001825,-9e-05,0.003368,0.0623550110466953
1757932197.0156233,-0.7697658767231895,1.2030241309264582,2.1414830064437105,-0.4854253005590232,0.7561204103011762,-3.370277433017751,0.1774736581065089,1.886180087466206e-11,0.15074046,0.26135802,9.77422293,0.005352,-0.001536,0.004597,0.06236311883237913
1757932197.0361078,-0.7697658767231895,1.2030241309264582,2.1414830064437105,-0.4854253005590232,0.7561204103011762,-3.370277433017751,0.1774736581065089,1.886180087466206e-11,0.15074046,0.26135802,9.77422293,0.005352,-0.001536,0.004597,0.06236311883237913
1757932197.056988,-0.7739639290642909,1.2094629828549157,2.1414959132378257,-0.4851186253537701,0.7556260414447249,-3.370277433017751,0.1774736581065089,1.6567509192706478e-11,0.15103476000000002,0.265851,9.767787570000001,0.003157,-0.00068,0.002232,0.06267283052852207
1757932197.0774302,-0.7723681488626263,1.2069285631734887,2.1415019569790843,-0.48505320992233975,0.755516427178692,-3.370277433017751,0.1774736581065089,1.556118723249925e-11,0.15956946,0.25671789,9.75685923,0.003554,-0.002861,0.003105,0.06184487626579861
1757932197.0984883,-0.7748119897987199,1.2106868409600189,2.1415078685071673,-0.48497386577477986,0.7553853606405019,-3.370277433017751,0.1774736581065089,1.4605924126706584e-11,0.15418377,0.26210358,9.78964425,0.002194,0.001501,0.005053,0.06256770384759781
1757932197.1192439,-0.776120617660377,1.2126775299023556,2.141513620100783,-0.48489100954892944,0.7552490367144479,-3.370277433017751,0.1774736581065089,1.3706884252826609e-11,0.15462522000000004,0.26210358,9.78679935,0.004438,0.000195,0.0033,0.06273665384519649
1757932197.1393747,-0.7754041496040496,1.211514721379454,2.1415191676070346,-0.4848351671605767,0.7551550642825886,-3.370277433017751,0.1774736581065089,1.287141099687312e-11,0.1332198,0.27003987,9.76613949,0.003901,-0.001496,0.004892,0.06218174572835707
1757932197.1603544,-0.7762121930903073,1.212727070335541,2.141524554278517,-0.4847854355673228,0.7550708413003122,-3.370277433017751,0.1774736581065089,1.2086498356021891e-11,0.16286562,0.26913735,9.77512545,0.001731,0.001506,0.004144,0.0622676380347336
1757932197.1811326,-0.7773614772677983,1.2144715175492429,2.1415297916733635,-0.48473449596563795,0.7549849324959247,-3.370277433017751,0.1774736581065089,1.1347573728305671e-11,0.15297714,0.26420292,9.7667379,0.005739,-0.002392,0.004293,0.06244622551472176
1757932197.202639,-0.7805049861804269,1.2193224940940302,2.1415349264576804,-0.4846465169658188,0.7548414293617643,-3.370277433017751,0.1774736581065089,1.0643769763640483e-11,0.15297714,0.25641378000000004,9.807155100000001,0.002576,-3e-05,0.002548,0.06325989720951057
1757932197.2227345,-0.7784832835272361,1.2161293266233608,2.1415398477152436,-0.4846009214306254,0.754764208985872,-3.370277433017751,0.1774736581065089,9.995520994276127e-12,0.16555356,0.25836597,9.783954450000001,0.003425,-0.000954,0.00502,0.062148620291431575
1757932197.2441301,-0.7802160145296492,1.218784258458357,2.1415446442461867,-0.48454520695382175,0.7546714101389026,-3.370277433017751,0.1774736581065089,9.382839300352583e-12,0.13981212,0.26539974000000005,9.78170796,0.003338,-0.000798,0.004567,0.06256687846663755
1757932197.2650695,-0.781280201507869,1.2203985029438462,2.1415493039762996,-0.4844857494697553,0.7545729526393781,-3.370277433017751,0.1774736581065089,8.806699729357606e-12,0.14804271000000002,0.27228636,9.75640797,0.001867,0.000577,0.004931,0.0626631933984152
1757932197.2854047,-0.7818472932838031,1.2212391196123715,2.141553820342361,-0.48442969810113967,0.7544799823700193,-3.370277433017751,0.1774736581065089,8.266677420951233e-12,0.15297714,0.2573163,9.768238830000001,0.002165,-0.000126,0.004354,0.06257315324872634
1757932197.3074708,-0.7916806811828254,1.2365121007310653,2.141558197282297,-0.48437777463513515,0.7543936247263261,-3.370277433017751,0.1774736581065089,7.760414656284984e-12,0.14025357000000002,0.26629245,9.76030254,0.001633,-0.001199,0.005415,0.06663315590540395
1757932197.3294969,-0.78254417566461,1.2222002016251527,2.141566527588026,-0.48430514697357724,0.7542701071069065,-3.370277433017751,0.1774736581065089,6.843519440107918e-12,0.15567489,0.26240768999999997,9.763147440000001,0.004156,-0.002658,0.004126,0.062094165392228465
1757932197.3512602,-0.7841388499774289,1.2246434785294262,2.141570512302531,-0.48426663199010567,0.7542051650671475,-3.370277433017751,0.1774736581065089,6.4251291856717326e-12,0.14654178,0.26719497000000003,9.76044969,0.001597,-0.000717,0.003717,0.062482069928657465
1757932197.3717577,-0.7840964297559269,1.224537680845004,2.1415743620048477,-0.4842394781514693,0.7541580877510757,-3.370277433017751,0.1774736581065089,6.03406827095264e-12,0.15478218000000002,0.27617112,9.77692068,0.003864,-0.001345,0.005296,0.06222531623301795
1757932197.392334,-0.7851060454456068,1.2260708565753695,2.1415780992548337,-0.48420871514871083,0.7541055343016496,-3.370277433017751,0.1774736581065089,5.665914627123993e-12,0.15792138000000003,0.26180928000000003,9.76898439,0.003385,0.001398,0.004026,0.062384105829266456
1757932197.412726,-0.7855400714584139,1.2267081423031647,2.1415817169863374,-0.48418148450985954,0.7540586322881028,-3.370277433017751,0.1774736581065089,5.32066859064784e-12,0.15642045000000002,0.25686504,9.752670360000002,0.002484,-0.001898,0.004122,0.06231145067245807
1757932197.4330604,-0.786905281154459,1.2287961309956517,2.141585233810688,-0.4841432126105594,0.7539946559944888,-3.370277433017751,0.1774736581065089,4.99497826026446e-12,0.14325543000000002,0.25896438000000005,9.749227050000002,0.002878,-0.002246,0.004379,0.06257266522283186
1757932197.4537919,-0.7885100534459918,1.2312576702489404,2.141588655399958,-0.4840874484358735,0.7539035391833688,-3.370277433017751,0.1774736581065089,4.6875070480719656e-12,0.15268284000000001,0.26240768999999997,9.75431844,0.001084,0.002398,0.003905,0.06285988397999764
1757932197.4740973,-0.7877512996253387,1.2300388757485619,2.141591946889619,-0.48405124005605027,0.7538430463819292,-3.370277433017751,0.1774736581065089,4.4016222992497505e-12,0.15837263999999998,0.26794053,9.787093650000001,0.002734,-0.00152,0.004219,0.06228752701672421
1757932197.4949007,-0.7883874563589311,1.2309929691775918,2.1415951346546453,-0.48401643451541426,0.7537848866216454,-3.370277433017751,0.1774736581065089,4.133128765323312e-12,0.14639463000000003,0.26869590000000004,9.77632227,0.001858,0.00068,0.005307,0.062320935991986584
1757932197.517026,-0.7926783138858882,1.2376390597075533,2.1415982751195033,-0.48391974936168514,0.7536303799103363,-3.370277433017751,0.1774736581065089,3.8753320054659285e-12,0.1502892,0.26779338,9.73920123,0.002616,-0.001032,0.003293,0.06358375308893296
1757932197.5379248,-0.789582848509749,1.2327826908550992,2.1416012595838696,-0.48387883675289234,0.753562937487598,-3.370277433017751,0.1774736581065089,3.639458836949939e-12,0.14654178,0.25641378000000004,9.796678020000002,0.004093,-0.002853,0.00462,0.06206878315839673
1757932197.5586243,-0.7900452198226284,1.2334675861161581,2.141604146700888,-0.4838452987727675,0.7535071446060848,-3.370277433017751,0.1774736581065089,3.4180601463336534e-12,0.16450389,0.25776756,9.77991273,0.00121,0.000856,0.003307,0.0621096965242195
1757932197.579483,-0.7910465292819423,1.2349922400828834,2.1416069462070055,-0.4838094330423516,0.7534478551147856,-3.370277433017751,0.1774736581065089,3.2095368595136876e-12,0.15687171,0.28396026,9.755064,0.003813,-0.002151,0.003514,0.06231805820994174
1757932197.6027813,-0.7977678671152741,1.2454250448002298,2.141609736198487,-0.483664351058083,0.7532184049066752,-3.370277433017751,0.1774736581065089,3.006379624905373e-12,0.15253569,0.26569404,9.763451550000001,0.004728,0.00082,0.003334,0.06440669226253595
1757932197.6249206,-0.802037369910126,1.2520401005224453,2.1416123677723125,-0.4835973465354403,0.7531107589572231,-3.370277433017751,0.1774736581065089,2.822177199739327e-12,0.15282999000000003,0.26030835,9.78170796,0.003939,-0.002111,0.00405,0.06613614339301595
1757932197.6488087,-0.7931173439634266,1.238082598701772,2.141617341665059,-0.48352294806804547,0.7529888148190942,-3.370277433017751,0.1774736581065089,2.489478579014095e-12,0.14414814,0.25476570000000004,9.77422293,0.002061,0.000222,0.003097,0.061967011931993006
1757932197.6692605,-0.793867091330583,1.2392177131670459,2.141619704726338,-0.4834965949712049,0.7529449304043182,-3.370277433017751,0.1774736581065089,2.3380531488694884e-12,0.16046217000000002,0.26494848000000004,9.775419750000001,0.003217,-0.00191,0.004378,0.06213779017176913
1757932197.6893697,-0.7945919818038907,1.2403145409755985,2.1416219899444773,-0.4834714105984024,0.7529029657463425,-3.370277433017751,0.1774736581065089,2.1956301001684464e-12,0.14639463000000003,0.27093258000000003,9.77407578,0.003721,-0.001849,0.004582,0.06225583694702326
1757932197.7094338,-0.7951493768014081,1.2411509524342437,2.141624197255261,-0.48344802826143557,0.7528639005734645,-3.370277433017751,0.1774736581065089,2.061840323313587e-12,0.16046217000000002,0.26808768000000005,9.78185511,0.002522,-5.6e-05,0.004751,0.06228821220089678
1757932197.7319896,-0.7970400034128607,1.2440639490297787,2.141626343662047,-0.4834039684415783,0.7527926929862159,-3.370277433017751,0.1774736581065089,1.9351363231177163e-12,0.15447807000000002,0.2633004,9.77317326,0.004273,-0.001638,0.006172,0.06276708901436061
1757932197.7527964,-0.7979222669267797,1.2454070373874029,2.1416284188413206,-0.48335171997152876,0.7527088026866451,-3.370277433017751,0.1774736581065089,1.8160370283856774e-12,0.15837263999999998,0.27333603,9.75416148,0.00092,0.002199,0.004838,0.0628014883778667
1757932197.77362,-0.7969189555312409,1.2438142300585868,2.141630404650309,-0.4833222813159627,0.7526605513478863,-3.370277433017751,0.1774736581065089,1.7053874726921227e-12,0.15717582000000002,0.25956279,9.79443153,0.002852,-0.001181,0.004008,0.06219466433465891
1757932197.7944195,-0.7989752805213243,1.2469864417952807,2.141632336615076,-0.48327086265654223,0.7525781412204402,-3.370277433017751,0.1774736581065089,1.600476517317819e-12,0.14115609,0.26405577,9.787996170000001,0.003292,-0.001162,0.004724,0.062767880503969
1757932197.8145163,-0.7980779062844641,1.2455594070876694,2.141634185059438,-0.48324073853674865,0.752529001841006,-3.370277433017751,0.1774736581065089,1.502930780878312e-12,0.13921371000000002,0.26569404,9.77302611,0.002231,0.000558,0.00421,0.06220880253107701
1757932197.8350513,-0.7988685048645321,1.2467613616843654,2.141635970082433,-0.4832090089247328,0.7524774536536055,-3.370277433017751,0.1774736581065089,1.4111526967651111e-12,0.15657741,0.26659656,9.77991273,0.003642,-0.000737,0.005824,0.06235153764838802
1757932197.8557816,-0.7988030871082301,1.2466306825880353,2.1416376848528067,-0.4831874040222768,0.7524417676137777,-3.370277433017751,0.1774736581065089,1.325277796979197e-12,0.15297714,0.25356888,9.76030254,0.001629,-0.000644,0.003835,0.06216817015694013
1757932197.8758192,-0.8003313027278333,1.2489820307302455,2.141639346575727,-0.4831516036199017,0.7523840401629445,-3.370277433017751,0.1774736581065089,1.2440907705316188e-12,0.15507648,0.25701219000000003,9.76464837,0.003733,-0.001313,0.003548,0.06256747654590274
1757932197.8963356,-0.8001696845531243,1.2487022839555557,2.141640940530827,-0.48312516950189427,0.7523409807607891,-3.370277433017751,0.1774736581065089,1.1682042019391929e-12,0.155979,0.27303192,9.77617512,0.003439,0.000623,0.005115,0.062302973584076785
1757932197.917799,-0.8047638369866407,1.2558286490608788,2.141642511553025,-0.4830282711957121,0.752188177347194,-3.370277433017751,0.1774736581065089,1.0951455497170746e-12,0.15552774,0.26719497000000003,9.775419750000001,0.001748,0.001823,0.002948,0.06371382334386275
1757932197.9387536,-0.8011933075695205,1.2502411509024538,2.1416439867439507,-0.48299284126184544,0.7521312236669749,-3.370277433017751,0.1774736581065089,1.0284662494532676e-12,0.16211025,0.26360451,9.77108373,0.003771,-0.001522,0.004202,0.06204732900423117
1757932197.9590566,-0.8024082140366366,1.2521060292114945,2.1416454123716884,-0.48295140187121177,0.7520650034453242,-3.370277433017751,0.1774736581065089,9.655404088785865e-13,0.15297714,0.26509562999999997,9.76809168,0.00232,0.002283,0.005069,0.06239376660707217
1757932197.9791462,-0.8024524111950607,1.2521482063353857,2.141646779363473,-0.48291900174475283,0.7520129451137006,-3.370277433017751,0.1774736581065089,9.066256923341231e-13,0.1414602,0.26644941,9.76913154,0.003247,-0.001758,0.003793,0.06225827191105262
1757932197.9997828,-0.8031037638158283,1.2531362016815255,2.141648094399917,-0.48288656363809895,0.7519609000578649,-3.370277433017751,0.1774736581065089,8.512351033562111e-13,0.155979,0.25671789,9.77362452,0.002974,0.000209,0.00309,0.06235825521916457
1757932198.0205026,-0.803266552137756,1.2533637419599777,2.141649354885857,-0.482860468399241,0.7519188040217372,-3.370277433017751,0.1774736581065089,7.993228373890514e-13,0.1474443,0.26748927,9.779314320000001,0.001863,-0.000244,0.003111,0.06226763470099202
1757932198.0414019,-0.8044342183923401,1.2551564126856372,2.141650570155278,-0.48282489759354486,0.751862005996814,-3.370277433017751,0.1774736581065089,7.503546502222657e-13,0.15522363,0.27767205,9.76269618,0.001863,-0.000244,0.003111,0.06253934383273818
1757932198.0613337,-0.8045123565054723,1.2552527914436633,2.141651732952134,-0.48279496721125087,0.7518140538792114,-3.370277433017751,0.1774736581065089,7.045025153591334e-13,0.14385384,0.26824464000000003,9.784405710000001,0.002114,-0.001166,0.004653,0.06238041413390681
1757932198.0822127,-0.8054412885779303,1.2566743501818098,2.1416528511840376,-0.4827580934379302,0.7517553424568507,-3.370277433017751,0.1774736581065089,6.613252491640331e-13,0.15552774,0.26509562999999997,9.76988691,0.003642,-0.003307,0.003876,0.06254954669608945
1757932198.103092,-0.805330741249232,1.2564775547905487,2.141653918507896,-0.4827296879773755,0.7517098824934674,-3.370277433017751,0.1774736581065089,6.209422614481059e-13,0.15552774,0.26509562999999997,9.76988691,0.003642,-0.003307,0.003876,0.062328671597767143
1757932198.123721,-0.8153304665107235,1.2720247939331224,2.141654953314175,-0.4826715936277018,0.7516182195868384,-3.370277433017751,0.1774736581065089,5.825896848465023e-13,0.1474443,0.26748927,9.77512545,0.00518,-0.002013,0.002899,0.066420690273408
1757932198.1457756,-0.8168067145414113,1.274299566127213,2.1416559303356637,-0.48264161955111856,0.7515704209439635,-3.370277433017751,0.1774736581065089,5.470553282885474e-13,0.15687171,0.27348318,9.775871010000001,0.002336,0.00169,0.004725,0.06696287243902889
1757932198.1689637,-0.8071597132800331,1.2592300838131212,2.1416577645930737,-0.4825691070366239,0.751455426524281,-3.370277433017751,0.1774736581065089,4.821325641934791e-13,0.15074046,0.27033417000000004,9.775566900000001,0.004327,-0.00055,0.002871,0.06226822565761454
1757932198.1893039,-0.807806237169831,1.2602137273281682,2.1416586187330875,-0.4825386947818223,0.7514071168023921,-3.370277433017751,0.1774736581065089,4.5265976735651235e-13,0.16406244,0.25492266,9.77751909,0.003343,-0.003277,0.004578,0.06238084601104843
1757932198.210147,-0.8081480721665109,1.260723205620236,2.1416594328314495,-0.482510632992516,0.7513625188026037,-3.370277433017751,0.1774736581065089,4.250008738365573e-13,0.14265702,0.26210358,9.76044969,0.000467,0.001178,0.002919,0.062363231153259
1757932198.2305062,-0.8092629024273087,1.2624366607155049,2.141660212604868,-0.4824722171781702,0.7513018359132874,-3.370277433017751,0.1774736581065089,3.9891869619193116e-13,0.15552774,0.25851312000000004,9.76554108,0.006102,-0.001586,0.003019,0.06261375474680354
1757932198.250716,-0.8088257955625772,1.26173375431284,2.1416609498411514,-0.48244662916135994,0.7512611822415418,-3.370277433017751,0.1774736581065089,3.7457197898186563e-13,0.14624748,0.27273762,9.780511140000002,0.002122,0.000574,0.003051,0.062281376639073925
1757932198.2715328,-0.8096180339942735,1.2629454466185999,2.1416616530092476,-0.482416584574262,0.7512136338795954,-3.370277433017751,0.1774736581065089,3.5165259625289743e-13,0.15897105,0.25252902000000005,9.75776175,0.002843,0.001359,0.005217,0.062444394949588644
1757932198.2915819,-0.8105963547987048,1.2644471678516052,2.1416623239151873,-0.4823773287623939,0.7511517767436178,-3.370277433017751,0.1774736581065089,3.3006076710600933e-13,0.1588239,0.2633004,9.77347737,0.003762,-0.000369,0.004298,0.06263482130514486
1757932198.3119714,-0.8105963547987048,1.2644471678516052,2.1416623239151873,-0.4823773287623939,0.7511517767436178,-3.370277433017751,0.1774736581065089,3.3006076710600933e-13,0.1588239,0.2633004,9.77347737,0.003762,-0.000369,0.004298,0.06263482130514486
1757932198.3367538,-0.8140645950355527,1.2698050261059557,2.1416636175772803,-0.48208007216202503,0.7506873089974795,-3.370277433017751,0.1774736581065089,2.8966644436316665e-13,0.15074046,0.27049113,9.775871010000001,0.003314,-0.00115,0.002875,0.0628800337694354
1757932198.356808,-0.8120158618975832,1.2665938511440298,2.1416641881839924,-0.4820216930775616,0.7505957670694731,-3.370277433017751,0.1774736581065089,2.7196905353189613e-13,0.15253569,0.25222491,9.76090095,0.002965,-0.000285,0.004169,0.06200407428046297
1757932198.377265,-0.8110825892395879,1.2651199445802686,2.1416647213317166,-0.48199476532441166,0.7505532958049579,-3.370277433017751,0.1774736581065089,2.5548170201154776e-13,0.14699304000000002,0.26435007,9.779314320000001,0.002061,-0.000113,0.003437,0.06169338818177412
1757932198.3974016,-0.8115820282814863,1.2658772893538364,2.141665224974661,-0.4819782670659686,0.7505271329779962,-3.370277433017751,0.1774736581065089,2.399660535408609e-13,0.15762708,0.26435007,9.78993855,0.003061,-0.001257,0.004926,0.06192681946777322
1757932198.4179037,-0.8117731773843837,1.2661548307073982,2.141665698070099,-0.48197242177678135,0.7505176052213137,-3.370277433017751,0.1774736581065089,2.2539687821147556e-13,0.14445225,0.27078543,9.764795520000002,0.000912,0.000955,0.004548,0.061989225367689416
1757932198.438924,-0.81310841229975,1.2682141528219883,2.1416661465429225,-0.48195720409598813,0.7504935065558729,-3.370277433017751,0.1774736581065089,2.11619110760551e-13,0.15043635,0.26150517,9.771829290000001,0.00416,-0.00317,0.004482,0.06242143275226254
1757932198.459667,-0.8133503859923089,1.2685713209116725,2.141666565952292,-0.4819447244236029,0.7504736944888195,-3.370277433017751,0.1774736581065089,1.9869101575511413e-13,0.15447807000000002,0.25012557,9.7897914,0.002697,0.000946,0.002814,0.06238193748689996
1757932198.48073,-0.8136974295705581,1.2690923458872911,2.1416669577111946,-0.4819330651328145,0.750455185686129,-3.370277433017751,0.1774736581065089,1.8655102466245635e-13,0.1502892,0.27542556,9.772133400000001,0.003839,0.000831,0.003841,0.06238909436134342
1757932198.5012677,-0.813849917194907,1.2693106570697423,2.141667321867744,-0.48192475619010955,0.7504419232035279,-3.370277433017751,0.1774736581065089,1.7516476446896805e-13,0.13636881,0.2689902,9.79189074,0.003941,-0.001692,0.00427,0.06232936288642103
1757932198.521377,-0.8155888355131093,1.2719995324124096,2.141667665762723,-0.4818940476554401,0.7503937926583253,-3.370277433017751,0.1774736581065089,1.6437927872439594e-13,0.16002072,0.26465418,9.78290478,0.002573,-0.000446,0.005193,0.06282542262119772
1757932198.5418494,-0.8144287552109328,1.2701744160635504,2.14166797825618,-0.48188434434451255,0.7503784082214141,-3.370277433017751,0.1774736581065089,1.5435628153484887e-13,0.14998509000000002,0.2604555,9.783503190000001,0.004796,-0.002064,0.00472,0.06222556976767696
1757932198.56339,-0.8144287552109328,1.2701744160635504,2.14166797825618,-0.48188434434451255,0.7503784082214141,-3.370277433017751,0.1774736581065089,1.5435628153484887e-13,0.14998509000000002,0.2604555,9.783503190000001,0.004796,-0.002064,0.00472,0.06222556976767696
1757932198.5835123,-0.8203016903389954,1.2792826596531073,2.141668590374433,-0.4815497982931022,0.7498567128721361,-3.370277433017751,0.1774736581065089,1.3530692904737262e-13,0.14893542,0.25536411,9.77751909,0.004546,-0.003993,0.005413,0.06329615596472112
1757932198.603907,-0.8246778708029898,1.2860791207695381,2.1416688324005424,-0.48151317199301064,0.7497994470170113,-3.370277433017751,0.1774736581065089,1.2710557606741978e-13,0.14699304000000002,0.25342173,9.75176784,0.000643,0.001144,0.003698,0.06550283634775933
1757932198.624397,-0.8154062460550372,1.2716238193472442,2.141669051102131,-0.48150216605720303,0.7497821691206618,-3.370277433017751,0.1774736581065089,1.194199966446668e-13,0.14699304000000002,0.25342173,9.75176784,0.000643,0.001144,0.003698,0.06154059931417242
1757932198.6452215,-0.8201503378443724,1.2789935610686318,2.14166926410205,-0.4814338466465237,0.7496756599680889,-3.370277433017751,0.1774736581065089,1.1199101197198271e-13,0.15806852999999998,0.26764623000000004,9.772280550000001,0.003655,-0.001267,0.00468,0.06328653775991158
1757932198.669988,-0.8167021371783201,1.2735896039668348,2.141669604229909,-0.4814063238193609,0.7496326614643741,-3.370277433017751,0.1774736581065089,9.876304106417227e-14,0.15971661,0.28081125,9.76374585,0.002502,0.000974,0.003904,0.06179603465760714
1757932198.6906123,-0.8162732288219192,1.2729048052148317,2.1416697393240387,-0.48142753815061656,0.749665690040607,-3.370277433017751,0.1774736581065089,9.279765301160164e-14,0.15582204,0.26525259,9.783650340000001,0.005292,-0.00292,0.003994,0.06170575954147173
1757932198.711065,-0.8169185223581247,1.2738929269449424,2.141669856263876,-0.4814510740945005,0.7497023591843578,-3.370277433017751,0.1774736581065089,8.717276862474504e-14,0.14354973000000001,0.25641378000000004,9.76434426,0.000965,0.002339,0.003226,0.06199138200768815
1757932198.7317913,-0.8170657688629721,1.2741057105131952,2.141669953901763,-0.48147956753715493,0.749746764417653,-3.370277433017751,0.1774736581065089,8.188840720674477e-14,0.15792138000000003,0.26989272000000003,9.74473407,0.002648,-0.000328,0.003504,0.06203394437016768
1757932198.7528515,-0.8184734776315964,1.2762814357823358,2.1416700364687102,-0.4814918090355615,0.7497658656961635,-3.370277433017751,0.1774736581065089,7.688533107521808e-14,0.15447807000000002,0.26001405,9.764795520000002,0.003813,0.000684,0.00517,0.0624941863099643
1757932198.7731545,-0.8179344517549159,1.2754259692263077,2.141670098857663,-0.4815133697875953,0.7497994926202175,-3.370277433017751,0.1774736581065089,7.221093758114972e-14,0.15074046,0.25956279,9.78275763,0.001894,0.001225,0.003225,0.06218696812223811
1757932198.7933035,-0.8183307818978317,1.276027207156078,2.1416701444752206,-0.4815319727460374,0.7498285295016106,-3.370277433017751,0.1774736581065089,6.781493580143125e-14,0.14818986,0.26210358,9.78141366,0.004422,-0.002602,0.003972,0.06226975937423966
1757932198.8136344,-0.8183269677991061,1.2760055478732726,2.141670172793365,-0.48155266354433257,0.74986083524549,-3.370277433017751,0.1774736581065089,6.369182521682387e-14,0.15777423000000002,0.26764623000000004,9.78934014,0.002172,0.001679,0.003645,0.06219620888218642
1757932198.8346224,-0.8204522442635029,1.2792994137503557,2.141670189893788,-0.4815413905299434,0.7498433672119628,-3.370277433017751,0.1774736581065089,5.977299115995609e-14,0.15163317,0.27018702,9.77347737,0.002612,-0.000429,0.003728,0.06286589185087965
1757932198.8554285,-0.8191837808740574,1.2773088467014293,2.1416701875057154,-0.48154838802013494,0.7498543710272654,-3.370277433017751,0.1774736581065089,5.61319238750475e-14,0.15237873000000002,0.26569404,9.78620094,0.004328,-0.000528,0.002793,0.06223224508645593
1757932198.8755033,-0.8200204493533841,1.27859651104382,2.141670171673532,-0.4815453082918193,0.749849701381754,-3.370277433017751,0.1774736581065089,5.269939261926872e-14,0.14490351,0.26180928000000003,9.787397760000001,0.001586,0.000786,0.003218,0.06246409131915075
1757932198.8961437,-0.8196191470031124,1.2779566303596908,2.141670139819361,-0.4815500316387989,0.7498572047238554,-3.370277433017751,0.1774736581065089,4.9489958589972714e-14,0.15193728,0.25851312000000004,9.792783450000002,0.004375,-0.00109,0.004853,0.06222040149098872
1757932198.916631,-0.8232753277140492,1.2836350885562158,2.1416701018762136,-0.4814961267462671,0.7497734013488313,-3.370277433017751,0.1774736581065089,4.641183353746247e-14,0.14983794,0.26689086,9.80026848,0.00256,0.000824,0.004464,0.06341465048866832
1757932198.9370444,-0.8201412205354968,1.2787401061824695,2.141670042580535,-0.4814906489238378,0.7497650392200566,-3.370277433017751,0.1774736581065089,4.3588846906716895e-14,0.1562733,0.27108954,9.79038981,0.003635,-0.002826,0.003246,0.06203362953276033
1757932198.9577732,-0.8208632648748215,1.2798499924703068,2.141669971516075,-0.48148112371046536,0.7497504037213522,-3.370277433017751,0.1774736581065089,4.0928533295493867e-14,0.15657741,0.25880742,9.774968490000001,0.003048,-0.000659,0.00458,0.06228571915544049
1757932198.9783177,-0.820845010399519,1.2798072793796171,2.1416698873130375,-0.48147654143420704,0.7497434870391139,-3.370277433017751,0.1774736581065089,3.843427402714535e-14,0.15418377,0.26435007,9.76628664,0.003107,0.001171,0.005817,0.062222312348123074
1757932198.9992523,-0.8226504922943424,1.282604593061426,2.1416697941036835,-0.48144735920326,0.7496982691958975,-3.370277433017751,0.1774736581065089,3.6068829786178974e-14,0.15358536,0.26105391,9.76704201,0.004917,-0.001855,0.004607,0.06279406980013558
1757932199.0201051,-0.8218049635924726,1.2812739973120821,2.1416696868103493,-0.48143281849786174,0.7496758667458282,-3.370277433017751,0.1774736581065089,3.3865112085128594e-14,0.14893542,0.26075961000000003,9.771976440000001,0.000705,0.001689,0.00244,0.062335208590692644
1757932199.0412323,-0.8221888701783245,1.2818580115635592,2.141669568432274,-0.4814167661044205,0.7496511269629382,-3.370277433017751,0.1774736581065089,3.179408053305161e-14,0.14459940000000002,0.26284914,9.775272600000001,0.004181,-0.001389,0.004015,0.06240240922667645
1757932199.0614321,-0.8217396854875118,1.2811449260550727,2.141669437746386,-0.4814117814210861,0.7496436404683506,-3.370277433017751,0.1774736581065089,2.985796410145346e-14,0.14459940000000002,0.26284914,9.775272600000001,0.004181,-0.001389,0.004015,0.06216814636899878
1757932199.0832596,-0.8318105633359603,1.2968136080393897,2.141669297037076,-0.48140330180788904,0.7496307259616042,-3.370277433017751,0.1774736581065089,2.803533650201765e-14,0.14684589,0.26973576,9.768690090000002,0.003179,-0.002784,0.003812,0.066587295092927
1757932199.1035926,-0.8224721549298574,1.2822587316644836,2.1416691458719654,-0.4813959895158523,0.7496196407608607,-3.370277433017751,0.1774736581065089,2.6324492711575843e-14,0.14684589,0.26973576,9.768690090000002,0.003179,-0.002784,0.003812,0.06231925543536214
1757932199.1283755,-0.8229662070621205,1.2830018719623173,2.1416688179351677,-0.48133681264295525,0.7495280973382921,-3.370277433017751,0.1774736581065089,2.318958853372995e-14,0.16585766999999998,0.26509562999999997,9.75850731,0.002886,-0.001496,0.002898,0.06218637273993329
1757932199.1514537,-0.8246892400667275,1.2856720748818078,2.1416686405592325,-0.4813012930440231,0.7494731078670123,-3.370277433017751,0.1774736581065089,2.176219741303731e-14,0.14385384,0.27093258000000003,9.76943565,0.002978,-0.000727,0.003601,0.06275203391366382
1757932199.171998,-0.8237496101473825,1.2841961931939259,2.1416684524448115,-0.48128314753091844,0.7494451884240682,-3.370277433017751,0.1774736581065089,2.0433010821308015e-14,0.16046217000000002,0.2604555,9.7781175,0.002158,0.000635,0.004266,0.06228153528909023
1757932199.192686,-0.825193114864398,1.286431417331871,2.1416682576543753,-0.481247128795644,0.7493894448026973,-3.370277433017751,0.1774736581065089,1.9175486535168443e-14,0.15148602000000003,0.26824464000000003,9.768690090000002,0.003471,-0.002458,0.003528,0.0627331474664431
1757932199.2130082,-0.8241501120662271,1.284794855788326,2.1416680527143974,-0.48123054897182804,0.7493639859266122,-3.370277433017751,0.1774736581065089,1.8005144932706183e-14,0.14505066000000003,0.26734212,9.76972995,0.003471,-0.002458,0.003528,0.06223458150909189
1757932199.2340047,-0.8243934814864825,1.2851615534598415,2.141667839886958,-0.48121641482797994,0.7493423503829838,-3.370277433017751,0.1774736581065089,1.690583479305107e-14,0.15672456,0.2689902,9.7692885,0.002975,-0.001463,0.005069,0.06228807093502955
1757932199.2546272,-0.8244485278151046,1.285235140827569,2.141667619138137,-0.4812067251295668,0.7493276473772582,-3.370277433017751,0.1774736581065089,1.587449425469503e-14,0.1414602,0.26839179,9.77287896,0.00371,0.000874,0.004383,0.06226174202178477
1757932199.275396,-0.8259074063618412,1.2874948802178983,2.1416673925868324,-0.4811783118155699,0.7492837895611928,-3.370277433017751,0.1774736581065089,1.4898416970278683e-14,0.15522363,0.27662238,9.79233219,0.000323,-0.00013,0.003659,0.06271966028984569
1757932199.2963145,-0.8252022831533671,1.2863850154394623,2.141667157663651,-0.481163010558144,0.7492603578242485,-3.370277433017751,0.1774736581065089,1.3987945221568566e-14,0.15268284000000001,0.26659656,9.77422293,0.004191,-0.002849,0.005985,0.06233786297197001
1757932199.317285,-0.8283219175523424,1.2912311143138608,2.1416669195216205,-0.4810989537250725,0.7491609940923886,-3.370277433017751,0.1774736581065089,1.3117758497943058e-14,0.14833701000000002,0.27841761000000004,9.75042387,0.003306,0.003301,0.005526,0.06335016367185012
1757932199.3375533,-0.8252167758900448,1.2863842418051856,2.141666670753507,-0.4810850630692376,0.7491397660623843,-3.370277433017751,0.1774736581065089,1.2319302210512704e-14,0.16466085000000003,0.27243351000000005,9.76434426,0.001708,0.001827,0.00389,0.062017032126401625
1757932199.358026,-0.8266310886615251,1.2885751260752163,2.141666417219703,-0.4810575143817958,0.7490972845067707,-3.370277433017751,0.1774736581065089,1.1563464942860553e-14,0.15582204,0.25940583,9.78201207,0.003818,-0.001118,0.003785,0.06253368506244622
1757932199.378833,-0.8268471428405194,1.2889002265764076,2.1416661576169282,-0.48103063625875614,0.7490558542032358,-3.370277433017751,0.1774736581065089,1.0854116465501676e-14,0.15223158,0.26734212,9.77018121,0.002178,0.000684,0.003989,0.06252113138116282
1757932199.3994703,-0.8262781361282245,1.288002974345717,2.1416658913323223,-0.48101717771596875,0.7490353318066489,-3.370277433017751,0.1774736581065089,1.0191567927284099e-14,0.15986376000000002,0.27108954,9.76180347,0.004554,-0.001274,0.003948,0.0622435028180726
1757932199.4201732,-0.8264115430935819,1.288199641010158,2.1416656193639625,-0.4810077249911705,0.7490210575355453,-3.370277433017751,0.1774736581065089,9.56955788180456e-15,0.14250006,0.26913735,9.771976440000001,0.001702,0.000484,0.004737,0.06226671138150154
1757932199.4408133,-0.8286186769477791,1.2916256031151652,2.141665343992752,-0.480966936572931,0.7489579825197065,-3.370277433017751,0.1774736581065089,8.978133054013057e-15,0.15822549000000002,0.27527841000000003,9.75416148,0.001957,-0.000134,0.003717,0.06299098232379449
1757932199.460771,-0.8266042208671303,1.2884778832033064,2.141665061237374,-0.4809591433699915,0.7489462969528748,-3.370277433017751,0.1774736581065089,8.431221149315393e-15,0.16375833,0.26839179,9.76254903,0.003535,-0.002025,0.003689,0.06211361784836669
1757932199.4823022,-0.8294526965359825,1.2929027826661432,2.1416647760857366,-0.48091104498181314,0.7488718457851107,-3.370277433017751,0.1774736581065089,7.90897616661619e-15,0.15163317,0.27273762,9.75431844,0.004525,-0.001054,0.005514,0.06309878278967715
1757932199.5035162,-0.8274934818552518,1.2898413162550104,2.1416644842113994,-0.48089522130335316,0.7488476618630994,-3.370277433017751,0.1774736581065089,7.426009420514726e-15,0.15163317,0.27273762,9.75431844,0.004525,-0.001054,0.005514,0.062222938498569996
1757932199.5280502,-0.8273973458873229,1.2896707794226072,2.1416638880706973,-0.48085521221081323,0.7487862949511798,-3.370277433017751,0.1774736581065089,6.544405861519975e-15,0.14969079000000002,0.25012557,9.77617512,0.002184,-0.000284,0.005282,0.062059711497056455
1757932199.5505273,-0.8286531944037425,1.291616139406122,2.141663583794921,-0.48083752953989684,0.7487592394725853,-3.370277433017751,0.1774736581065089,6.143185856955161e-15,0.14969079000000002,0.27198225000000004,9.75401433,0.00237,-0.000989,0.004813,0.06251916503903227
1757932199.5710893,-0.827656302118015,1.2900536610108835,2.1416632745783684,-0.4808388816808234,0.748761832183703,-3.370277433017751,0.1774736581065089,5.769331715758556e-15,0.16165899,0.26405577,9.755809560000001,0.001525,0.001995,0.004229,0.06210060057851106
1757932199.5914896,-0.827656302118015,1.2900536610108835,2.1416632745783684,-0.4808388816808234,0.748761832183703,-3.370277433017751,0.1774736581065089,5.769331715758556e-15,0.16165899,0.26405577,9.755809560000001,0.001525,0.001995,0.004229,0.06210060057851106
1757932199.615019,-0.8312706556944537,1.295661911162993,2.1416626541070904,-0.4806176608792508,0.748418226480801,-3.370277433017751,0.1774736581065089,5.0659344359232645e-15,0.14654178,0.26794053,9.76434426,0.002683,0.001153,0.004322,0.06271685052509676
1757932199.6356306,-0.8295399736601992,1.2929570854436774,2.141662335820458,-0.4805859058173392,0.7483692547561603,-3.370277433017751,0.1774736581065089,4.756486714516064e-15,0.14998509000000002,0.27557271000000005,9.77377167,0.002682,0.000616,0.00429,0.06205219754017706
1757932199.6559372,-0.8295129773225742,1.2929053505505947,2.141662014385009,-0.4805670610838223,0.7483404100940344,-3.370277433017751,0.1774736581065089,4.46618305225494e-15,0.16076628,0.27602397,9.763294590000001,0.00394,-0.000295,0.0047,0.062111469835099256
1757932199.676889,-0.8286067168454015,1.291484538787238,2.141661689169169,-0.48057217926448315,0.7483488958421847,-3.370277433017751,0.1774736581065089,4.1952818634193644e-15,0.14490351,0.265851,9.78470001,0.002177,0.001501,0.002904,0.06184201888675966
1757932199.6974642,-0.828541870439431,1.2913740875578437,2.141661360752245,-0.480589005029868,0.7483756231416657,-3.370277433017751,0.1774736581065089,3.940921019074482e-15,0.14610033,0.26794053,9.77976558,0.003359,-0.00197,0.00401,0.06190979366574122
1757932199.7176864,-0.8322992014139619,1.2972156263081625,2.1416610314490914,-0.48055264143193066,0.748319509274483,-3.370277433017751,0.1774736581065089,3.6964148563993244e-15,0.16226721000000002,0.27513126000000004,9.77601816,0.003648,-0.00012,0.004126,0.0632603907618177
1757932199.7381287,-0.8286680516608991,1.2915519126929895,2.141660697157856,-0.480571659481554,0.7483496391679902,-3.370277433017751,0.1774736581065089,3.4726192153409182e-15,0.15657741,0.27018702,9.76943565,0.000863,-0.000613,0.004262,0.0617833199736649
1757932199.758907,-0.8296843328956234,1.293125303856809,2.141660360737326,-0.4805842831803744,0.7483698198668596,-3.370277433017751,0.1774736581065089,3.2610122535645454e-15,0.16315992,0.27692649,9.768533130000002,0.003756,-0.00141,0.004143,0.06223237289079931
1757932199.7795131,-0.8295072878512987,1.2928405413982005,2.1416600216040713,-0.48060326158884226,0.7483998976762589,-3.370277433017751,0.1774736581065089,3.062610355720418e-15,0.13801689,0.26210358,9.76149936,0.003376,0.00048,0.004312,0.062164269888819436
1757932199.8004262,-0.8301565640044148,1.2938426292304448,2.141659680304249,-0.4806154697582436,0.7484194314557922,-3.370277433017751,0.1774736581065089,2.8755932974136206e-15,0.14564907000000002,0.27123669,9.77482134,0.002776,-0.000501,0.004341,0.06239176222028919
1757932199.8206983,-0.8301237761088209,1.293782699285036,2.1416593366660734,-0.48062912168110755,0.7484412120731584,-3.370277433017751,0.1774736581065089,2.700151972979249e-15,0.15268284000000001,0.26375166,9.772280550000001,0.003464,-0.000226,0.003598,0.062333821811252674
1757932199.8412116,-0.8308846692593007,1.2949587902763295,2.141658991215503,-0.48063176183202205,0.7484458421637139,-3.370277433017751,0.1774736581065089,2.5347408200810244e-15,0.16091343000000002,0.26973576,9.77392863,0.001799,0.000225,0.003387,0.0625614516078414
1757932199.8615267,-0.8306472090558714,1.294580331009346,2.141658643692396,-0.4806376565367169,0.748455540024977,-3.370277433017751,0.1774736581065089,2.3798412794019636e-15,0.1386153,0.27647523,9.756564930000001,0.003556,-0.002295,0.004077,0.0623985222707361
1757932199.8814201,-0.8318490375732144,1.2964432374954609,2.1416582948538565,-0.48062477075160254,0.7484359894544805,-3.370277433017751,0.1774736581065089,2.233440320422235e-15,0.15522363,0.2601612,9.7664436,0.004526,-0.00175,0.005107,0.06276710953006126
1757932199.902032,-0.8304984344584178,1.2943315634331676,2.1416579438546863,-0.4806322416784098,0.7484481426388301,-3.370277433017751,0.1774736581065089,2.0973655351556087e-15,0.15522363,0.2601612,9.7664436,0.004526,-0.00175,0.005107,0.062182615347781696
1757932199.9270973,-0.8301746877112304,1.2938106785248513,2.1416572387120194,-0.48059675719455014,0.7483939141509478,-3.370277433017751,0.1774736581065089,1.847737690818343e-15,0.15223158,0.26808768000000005,9.772280550000001,0.002853,-0.000376,0.004224,0.061837017633601984
1757932199.9508438,-0.8321604419399674,1.296894696579633,2.141656884270958,-0.4805832160396825,0.7483733526688594,-3.370277433017751,0.1774736581065089,1.734311131698549e-15,0.15253569,0.27587682,9.77826465,0.004226,-0.000541,0.003364,0.06261352146872136
1757932199.9717488,-0.8306777891824306,1.2945777455898761,2.141656528183068,-0.48059393813052226,0.7483905788877105,-3.370277433017751,0.1774736581065089,1.6289319340474864e-15,0.16016787000000002,0.26554689,9.75312162,0.002935,0.001584,0.002553,0.06202215341297232
1757932199.9917936,-0.8319654744056612,1.296574898774079,2.1416561713685196,-0.4805896351334871,0.7483844093976237,-3.370277433017751,0.1774736581065089,1.5291803654834805e-15,0.14429529,0.26764623000000004,9.78036399,0.004286,-0.000491,0.005915,0.06251054441190196
1757932200.012411,-0.8314290150129053,1.2957315463612307,2.141655813386885,-0.48059471151127964,0.7483928458331007,-3.370277433017751,0.1774736581065089,1.435927855086189e-15,0.15492933000000003,0.26284914,9.77617512,0.001844,-0.001218,0.003862,0.0622621661717026
1757932200.032923,-0.832263268076185,1.2970227776036025,2.141655454710861,-0.48058908142810247,0.7483846085514719,-3.370277433017751,0.1774736581065089,1.3479535124443726e-15,0.15657741,0.26090676,9.76883724,0.000351,0.001841,0.004182,0.0625390024009603
1757932200.053275,-0.8316531456985968,1.2960648823370542,2.1416550950864455,-0.4805936116154718,0.748392193486621,-3.370277433017751,0.1774736581065089,1.2657538787750862e-15,0.15074046,0.25626663,9.76539393,0.005165,-0.002253,0.00628,0.06225928190798496
1757932200.0734382,-0.8333495278584653,1.2986988045228922,2.1416547351591237,-0.48057287108854874,0.7483604217406583,-3.370277433017751,0.1774736581065089,1.1877956950175745e-15,0.14309847,0.26030835,9.76659075,0.001515,0.000425,0.003703,0.06283229508304224
1757932200.0936592,-0.8321021241880662,1.2967486789213865,2.1416543744057925,-0.4805710044511335,0.748358041518068,-3.370277433017751,0.1774736581065089,1.1152978870799191e-15,0.15837263999999998,0.26824464000000003,9.77946147,0.004154,-0.000662,0.00287,0.06227252484241969
1757932200.1139557,-0.8334352399899227,1.2988170788988629,2.1416540134669297,-0.48055053338437104,0.7483266889428358,-3.370277433017751,0.1774736581065089,1.0467017171551774e-15,0.16346403,0.26929431000000004,9.76195062,0.003822,-0.001309,0.003388,0.0627244937986133
1757932200.1340318,-0.8319248640108742,1.2964576044279934,2.1416536518769522,-0.48055418723711824,0.7483329072192633,-3.370277433017751,0.1774736581065089,9.82998731707775e-16,0.14773860000000003,0.26794053,9.77960862,0.000621,0.001868,0.003499,0.06210171914997845
1757932200.1550899,-0.8347113738496377,1.3007894258333697,2.141653290483273,-0.4805163070476076,0.7482744422127281,-3.370277433017751,0.1774736581065089,9.221569603182112e-16,0.14205861,0.27468000000000004,9.78500412,0.004408,-0.000325,0.003002,0.06308915060012737
1757932200.175974,-0.8322115370193646,1.296889284303091,2.1416529285052563,-0.48051696645689546,0.7482759946150304,-3.370277433017751,0.1774736581065089,8.660506782972851e-16,0.16256151,0.25701219000000003,9.79517709,0.00373,0.000977,0.004043,0.062048811606853015
1757932200.196872,-0.8362542790741996,1.3031775009486515,2.141652567067643,-0.48045462924910776,0.7481794380411381,-3.370277433017751,0.1774736581065089,8.120508305146993e-16,0.14519781,0.27408159,9.76419711,0.0021,-0.000168,0.004131,0.06348208504229734
1757932200.217582,-0.8322495161213227,1.2969339858077094,2.1416522050924307,-0.48045477128413655,0.7481801807997535,-3.370277433017751,0.1774736581065089,7.627646145235985e-16,0.15447807000000002,0.27093258000000003,9.76704201,0.005026,-0.001354,0.004346,0.061845292067771264
1757932200.2381625,-0.8341477162471934,1.2998828220771224,2.141651843439041,-0.480433932410766,0.7481482576374903,-3.370277433017751,0.1774736581065089,7.159197773228667e-16,0.15687171,0.26629245,9.78829047,0.002225,0.00115,0.004957,0.06260256829781198
1757932200.258194,-0.8332995937056625,1.298555070988936,2.141651481772456,-0.48042883856054625,0.7481408541920191,-3.370277433017751,0.1774736581065089,6.722243173270978e-16,0.15447807000000002,0.26884305000000003,9.775419750000001,0.00364,-0.001654,0.004893,0.06224353329088436
1757932200.2783847,-0.8349195846679217,1.301070817331113,2.1416511204116677,-0.48040189780764686,0.7480994269191058,-3.370277433017751,0.1774736581065089,6.308028228758282e-16,0.15986376000000002,0.27932013,9.787397760000001,0.00364,-0.001654,0.004893,0.06280985045979019
1757932200.2989657,-0.8334414136749435,1.2987620742645452,2.1416507591309735,-0.48039919436605005,0.7480957430076601,-3.370277433017751,0.1774736581065089,5.923345986318955e-16,0.16794720000000002,0.26958861,9.78141366,0.003903,-0.001153,0.004777,0.062189105254038736
1757932200.3200028,-0.8344353408080343,1.300303040340713,2.141650398190988,-0.4803856790258902,0.7480752224722617,-3.370277433017751,0.1774736581065089,5.560017515771779e-16,0.14818986,0.26435007,9.775871010000001,0.00334,-0.000296,0.003468,0.06255532128253921
1757932200.3407247,-0.8335128375027916,1.298859743081086,2.141650037493296,-0.4803886295401645,0.7480803433755895,-3.370277433017751,0.1774736581065089,5.221194484208059e-16,0.14954364,0.27542556,9.7724277,0.001982,0.000521,0.002428,0.06218047744132413
1757932200.3621392,-0.842843797794472,1.313383607718295,2.1416496773479547,-0.48034476055132064,0.7480125460305791,-3.370277433017751,0.1774736581065089,4.897109059756642e-16,0.14669874000000002,0.26973576,9.791586630000001,0.002902,-0.000592,0.005122,0.06606840445565482
1757932200.3836286,-0.8333869034096132,1.298650343089454,2.1416493175321616,-0.4803497111295899,0.7480207735910559,-3.370277433017751,0.1774736581065089,4.599573146416836e-16,0.14669874000000002,0.26973576,9.791586630000001,0.002902,-0.000592,0.005122,0.06194981262565709
1757932200.407212,-0.8336030567630811,1.298973935344083,2.1416485995759658,-0.480341903203174,0.748009655980545,-3.370277433017751,0.1774736581065089,4.054496579243178e-16,0.14564907000000002,0.27692649,9.75865446,0.003649,-0.001454,0.004172,0.06202726909295033
1757932200.4282384,-0.8337363433946706,1.2991750945634073,2.141648241386984,-0.4803549289774211,0.748030463933744,-3.370277433017751,0.1774736581065089,3.8078344242057316e-16,0.15103476000000002,0.25896438000000005,9.76613949,0.00146,8.1e-05,0.002605,0.06213276934406587
1757932200.4492164,-0.8338596804682457,1.2993608254337847,2.1416478837388,-0.48036969960121995,0.7480539881197779,-3.370277433017751,0.1774736581065089,3.576013533062327e-16,0.15237873000000002,0.2630061,9.77452704,0.004095,-0.001084,0.002814,0.06220470739854058
1757932200.4715846,-0.8481163725382671,1.3215620079172523,2.1416478837388,-0.48036969960121995,0.7480539881197779,-3.370277433017751,0.1774736581065089,3.576013533062327e-16,0.13965516,0.2573163,9.79457868,0.003056,-0.000772,0.004741,0.06861029174509323
1757932200.4918993,-0.8343115415869722,1.3000519753079496,2.14164717060323,-0.4803043984412597,0.7479533046504899,-3.370277433017751,0.1774736581065089,3.148006388498395e-16,0.15538058999999999,0.27348318,9.77422293,0.002184,-0.000548,0.003749,0.062027388681890214
1757932200.5126128,-0.8342293353307554,1.2999178130960591,2.1416468153399713,-0.4803116758094329,0.7479651492239255,-3.370277433017751,0.1774736581065089,2.9564933189032634e-16,0.15178032,0.26165232000000005,9.78170796,0.003099,-0.000547,0.003875,0.06207127072333636
1757932200.533575,-0.8341931134707711,1.2998553230484446,2.1416464608801675,-0.4803246229098719,0.7479858260262356,-3.370277433017751,0.1774736581065089,2.77667229975882e-16,0.15732297,0.27587682,9.7667379,0.001179,0.002222,0.004231,0.06211162466142128
1757932200.5551395,-0.8380695742281233,1.3058859037142798,2.1416461071407946,-0.48027539851050277,0.7479096736975884,-3.370277433017751,0.1774736581065089,2.603738702063925e-16,0.15088761,0.26764623000000004,9.76943565,0.003931,-0.000668,0.004188,0.06347428468346065
1757932200.5753975,-0.8348665644124047,1.3008920459340507,2.141645754514755,-0.4802743711092597,0.7479085752905666,-3.370277433017751,0.1774736581065089,2.4450683297593825e-16,0.15986376000000002,0.26344755000000003,9.78844743,0.001839,0.001212,0.005556,0.06211871752074861
1757932200.5960839,-0.835739141524427,1.3022449601374493,2.141645402863336,-0.4802649525213578,0.7478944127134264,-3.370277433017751,0.1774736581065089,2.2952823371380364e-16,0.16270866,0.27602397,9.767493270000001,0.002151,0.001678,0.004075,0.06247008065479012
1757932200.6166713,-0.834659584291697,1.3005579710812556,2.1416450522673305,-0.48027463102369666,0.7479099904159624,-3.370277433017751,0.1774736581065089,2.1556922310663454e-16,0.15223158,0.27138384000000004,9.76269618,0.005063,0.00031,0.00401,0.0620680642183523
1757932200.6370528,-0.8363843147791257,1.3032380228648035,2.1416447025643066,-0.48026144358673567,0.7478899574236509,-3.370277433017751,0.1774736581065089,2.0231837870804263e-16,0.15103476000000002,0.26569404,9.76613949,0.001487,0.001764,0.003748,0.06271424007716882
1757932200.6577191,-0.834929800918567,1.3009672438358413,2.1416443540070533,-0.48027090475061573,0.7479051923823701,-3.370277433017751,0.1774736581065089,1.9000452875736096e-16,0.15986376000000002,0.27018702,9.77063247,0.003241,-0.000317,0.003472,0.06212510168352868
1757932200.6790037,-0.8364643941398856,1.3033513219182864,2.141644006403748,-0.48025962416256085,0.7478881242182676,-3.370277433017751,0.1774736581065089,1.7833047899343007e-16,0.15163317,0.26554689,9.77617512,0.002715,0.000595,0.004261,0.06269266240257956
1757932200.6999583,-0.8355362638126598,1.3019003662699438,2.1416436599997795,-0.4802625951594101,0.7478932469433389,-3.370277433017751,0.1774736581065089,1.6744577451299944e-16,0.14818986,0.26494848000000004,9.78470001,0.002245,0.000684,0.004301,0.06228926056783191
1757932200.7206995,-0.8353909434477519,1.301668504386089,2.1416433147468137,-0.48027039353996936,0.7479058870217247,-3.370277433017751,0.1774736581065089,1.5723733191739701e-16,0.14369688,0.26435007,9.77018121,0.001863,0.00161,0.003586,0.06224501255717588
1757932200.74143,-0.8356414510135518,1.302053103934341,2.1416429706144777,-0.4802766487385052,0.7479161223661283,-3.370277433017751,0.1774736581065089,1.4763800471702493e-16,0.14369688,0.26435007,9.77018121,0.001863,0.00161,0.003586,0.06234327188336691
1757932200.761736,-0.8449235751359231,1.3165023327174243,2.1416426273627174,-0.48021968166620665,0.7478278901643806,-3.370277433017751,0.1774736581065089,1.384220933804275e-16,0.14055768000000002,0.25836597,9.77976558,0.002926,-0.000521,0.004515,0.06610343810650861
1757932200.7823184,-0.8354450599621739,1.301736402854788,2.1416422858642274,-0.4802217310229985,0.7478315622710616,-3.370277433017751,0.1774736581065089,1.3000451979755405e-16,0.14055768000000002,0.25836597,9.77976558,0.002926,-0.000521,0.004515,0.06197993775751774
1757932200.8065164,-0.8355489412613287,1.3018875286610367,2.141641606736078,-0.4802101604863459,0.7478145115555785,-3.370277433017751,0.1774736581065089,1.1459395580689573e-16,0.15582204,0.2630061,9.77108373,0.005793,-0.002921,0.003336,0.06203418527557181
1757932200.8297637,-0.8371779304190027,1.3044190507249893,2.141641269062002,-0.4801970963027836,0.7477946501371557,-3.370277433017751,0.1774736581065089,1.0755488785274288e-16,0.15478218000000002,0.26704782,9.78305193,0.002626,0.001212,0.003127,0.06266183182703394
1757932200.8503687,-0.8360004887279566,1.3025802709994598,2.141640932875454,-0.48020288538982675,0.7478041462881809,-3.370277433017751,0.1774736581065089,1.0100124347382818e-16,0.15268284000000001,0.27333603,9.77632227,0.003797,-0.001093,0.004287,0.06218468185162187
1757932200.8707194,-0.8360004887279566,1.3025802709994598,2.141640932875454,-0.48020288538982675,0.7478041462881809,-3.370277433017751,0.1774736581065089,1.0100124347382818e-16,0.15268284000000001,0.27333603,9.77632227,0.003797,-0.001093,0.004287,0.06218468185162187
1757932200.8959355,-0.8400898750670331,1.3089382467132462,2.1416402638550203,-0.47995618160784076,0.7474208569264271,-3.370277433017751,0.1774736581065089,8.862874290241262e-17,0.16256151,0.26375166,9.784101600000001,0.002782,-0.000887,0.003713,0.06295205886115895
1757932200.9162972,-0.837227413240625,1.3044755752961166,2.141639932654005,-0.4799294528073862,0.7473796946602072,-3.370277433017751,0.1774736581065089,8.322596042091553e-17,0.15897105,0.27453285,9.77032836,0.003425,-0.002033,0.002818,0.06188855927507296
1757932200.9363801,-0.8358983101611019,1.3024008093447363,2.1416396032025755,-0.47993597303043495,0.7473903230213125,-3.370277433017751,0.1774736581065089,7.819349160339128e-17,0.13785993,0.27647523,9.77422293,0.002613,8.6e-05,0.004744,0.06157527954819269
1757932200.95739,-0.8389059022496107,1.3070794894753308,2.141639274802948,-0.47990958327529865,0.7473497047157893,-3.370277433017751,0.1774736581065089,7.3372533759584e-17,0.14639463000000003,0.2749743,9.752219100000001,0.003988,-0.000734,0.004699,0.06280630856237011
1757932200.978225,-0.8363556450212272,1.3031031475491464,2.1416389481615736,-0.47992518749475827,0.747374479664614,-3.370277433017751,0.1774736581065089,6.892362284348031e-17,0.14983794,0.26389881000000004,9.771525180000001,0.003988,-0.000734,0.004699,0.06184542738400663
1757932200.9985037,-0.8375826201546465,1.305009028457743,2.141638622712791,-0.4799311854843755,0.7473842947651582,-3.370277433017751,0.1774736581065089,6.471004014136948e-17,0.15478218000000002,0.27348318,9.79457868,0.001489,0.001472,0.003224,0.06239355671473261
1757932201.0190518,-0.8384625605415184,1.3063745264172608,2.141638298523744,-0.47992583132003364,0.747376424611953,-3.370277433017751,0.1774736581065089,6.073330558843458e-17,0.14624748,0.26270199,9.75685923,0.003375,-0.001302,0.003063,0.06269408489923267
1757932201.0399113,-0.8376522036887056,1.3051078172188355,2.141637975900581,-0.4799336283947796,0.7473890299079177,-3.370277433017751,0.1774736581065089,5.702197695718e-17,0.15657741,0.27003987,9.767934720000001,0.002385,-0.00057,0.002981,0.06235000456579481
1757932201.0600512,-0.8369202622536417,1.3039632705192956,2.1416376548323255,-0.47995546358981067,0.7474234950896262,-3.370277433017751,0.1774736581065089,5.3553624472490047e-17,0.15507648,0.26030835,9.78634809,0.001524,-0.001484,0.004181,0.062109529724557036
1757932201.0799413,-0.8377834578955882,1.3053028359109375,2.141637335050283,-0.4799676624947133,0.7474429510433159,-3.370277433017751,0.1774736581065089,5.0277857206314053e-17,0.15971661,0.26315325,9.755211150000001,0.003627,0.002057,0.002828,0.06246616433797258
1757932201.1007195,-0.8365349050429991,1.30335387270435,2.141637016916122,-0.4799993035834051,0.7474926813162516,-3.370277433017751,0.1774736581065089,4.722688043925534e-17,0.15971661,0.26315325,9.755211150000001,0.003627,0.002057,0.002828,0.06201463847875082
1757932201.121837,-0.8461972767739893,1.318396292642585,2.141636699526714,-0.47995976138758994,0.7474315474768728,-3.370277433017751,0.1774736581065089,4.4281388333366957e-17,0.15237873000000002,0.26180928000000003,9.784101600000001,0.003012,0.002625,0.003597,0.06595881920689917
1757932201.1421857,-0.8367024840286484,1.3036057129189706,2.141636384461372,-0.4799820366388712,0.747466678864602,-3.370277433017751,0.1774736581065089,4.159590724013559e-17,0.15237873000000002,0.26180928000000003,9.784101600000001,0.003012,0.002625,0.003597,0.06187216918880943
1757932201.1662114,-0.8365476788658676,1.3033556921702434,2.1416357586824546,-0.47999650137393496,0.7474900889704486,-3.370277433017751,0.1774736581065089,3.666729405623954e-17,0.16046217000000002,0.26674371,9.76764042,0.002625,-0.000206,0.00413,0.06183148625881218
1757932201.1869504,-0.8489135021242581,1.3226127707138353,2.1416357586824546,-0.47999650137393496,0.7474900889704486,-3.370277433017751,0.1774736581065089,3.666729405623954e-17,0.14893542,0.25851312000000004,9.759704130000001,0.002625,-0.000206,0.00413,0.06738615800373596
1757932201.2078047,-0.8369554177094654,1.3039818803391836,2.1416351391182475,-0.48000898388693125,0.7475104052773197,-3.370277433017751,0.1774736581065089,3.2317922713717554e-17,0.155979,0.25836597,9.77601816,0.0025,0.002267,0.004232,0.06197661162870898
1757932201.2302487,-0.8385807159652446,1.3065086061212445,2.141634831619431,-0.4800114094258335,0.7475146188031555,-3.370277433017751,0.1774736581065089,3.033556233719723e-17,0.15447807000000002,0.27901602,9.78470001,5.4e-05,-0.000306,0.00353,0.06262583861865642
1757932201.250923,-0.838077270547646,1.3057203152140324,2.1416345258137683,-0.4800204525150882,0.7475291341918973,-3.370277433017751,0.1774736581065089,2.8481500254003804e-17,0.14429529,0.27168795,9.775871010000001,0.002561,0.000732,0.003545,0.0623975584277556
1757932201.2737932,-0.8405359666574627,1.309544958030721,2.141634221203976,-0.47998817880022077,0.7474793000981262,-3.370277433017751,0.1774736581065089,2.6714686263951006e-17,0.14669874000000002,0.26375166,9.787996170000001,0.00334,-0.002079,0.005747,0.06323611824502834
1757932201.294301,-0.8405359666574627,1.309544958030721,2.141634221203976,-0.47998817880022077,0.7474793000981262,-3.370277433017751,0.1774736581065089,2.6714686263951006e-17,0.14669874000000002,0.26375166,9.787996170000001,0.00334,-0.002079,0.005747,0.06323611824502834
1757932201.3147163,-0.8405359666574627,1.309544958030721,2.141634221203976,-0.47998817880022077,0.7474793000981262,-3.370277433017751,0.1774736581065089,2.6714686263951006e-17,0.14669874000000002,0.26375166,9.787996170000001,0.00334,-0.002079,0.005747,0.06323611824502834
1757932201.3350146,-0.8405359666574627,1.309544958030721,2.141634221203976,-0.47998817880022077,0.7474793000981262,-3.370277433017751,0.1774736581065089,2.6714686263951006e-17,0.14669874000000002,0.26375166,9.787996170000001,0.00334,-0.002079,0.005747,0.06323611824502834
1757932201.355302,-0.8405359666574627,1.309544958030721,2.141634221203976,-0.47998817880022077,0.7474793000981262,-3.370277433017751,0.1774736581065089,2.6714686263951006e-17,0.14669874000000002,0.26375166,9.787996170000001,0.00334,-0.002079,0.005747,0.06323611824502834
1757932201.375588,-0.8405359666574627,1.309544958030721,2.141634221203976,-0.47998817880022077,0.7474793000981262,-3.370277433017751,0.1774736581065089,2.6714686263951006e-17,0.14669874000000002,0.26375166,9.787996170000001,0.00334,-0.002079,0.005747,0.06323611824502834
1757932201.3958714,-0.8405359666574627,1.309544958030721,2.141634221203976,-0.47998817880022077,0.7474793000981262,-3.370277433017751,0.1774736581065089,2.6714686263951006e-17,0.14669874000000002,0.26375166,9.787996170000001,0.00334,-0.002079,0.005747,0.06323611824502834
1757932201.4199116,-0.8877813156846854,1.3831105784283064,2.1416336217611853,-0.47613484835086195,0.7414785011798419,-3.370277433017751,0.1774736581065089,2.2627586553891097e-17,0.15762708,0.26150517,9.783208890000001,0.003863,-0.001785,0.002864,0.07389026101771409
1757932201.4406285,-0.8752685999956104,1.3636159998043595,2.141633048459502,-0.47403525759817255,0.7382094247390831,-3.370277433017751,0.1774736581065089,1.949440146746803e-17,0.14954364,0.27153099,9.75372003,0.003421,-0.000498,0.003417,0.06671403689046923
1757932201.460997,-0.8634583950831666,1.3452156434198033,2.1416324886543805,-0.4730129172373482,0.7366181596750068,-3.370277433017751,0.1774736581065089,1.7006997428646005e-17,0.15163317,0.26629245,9.77362452,0.000948,0.00188,0.003785,0.06266312522817657
1757932201.482416,-0.8567595265600559,1.3347753318688513,2.1416319374247266,-0.4727400827040436,0.7361942056276268,-3.370277433017751,0.1774736581065089,1.497954803925317e-17,0.15762708,0.26509562999999997,9.767493270000001,0.002927,-0.000113,0.004609,0.06213450692974601
1757932201.506667,-0.8363820870693862,1.3030297639886022,2.1416311204550125,-0.4733226934758668,0.7371029830844489,-3.370277433017751,0.1774736581065089,1.2550702751679095e-17,0.15612615,0.26315325,9.771976440000001,0.001974,0.002311,0.003395,0.057593778542312644
1757932201.5270212,-0.8270063270246601,1.2884212543987539,2.1416305797155104,-0.4741908967996729,0.7384560312190861,-3.370277433017751,0.1774736581065089,1.122857359335656e-17,0.15612615,0.27662238,9.775566900000001,0.003333,-1.1e-05,0.004147,0.05668371823463256
1757932201.5484045,-0.8396209935042502,1.3080660358708156,2.1416305797155104,-0.4741908967996729,0.7384560312190861,-3.370277433017751,0.1774736581065089,1.122857359335656e-17,0.16106057999999998,0.27333603,9.77797035,0.001907,-0.001336,0.005805,0.06237619260789147
1757932201.568575,-0.8268348765239297,1.2881467467639258,2.1416300359442886,-0.4753562525264014,0.7402718566301314,-3.370277433017751,0.1774736581065089,1.0018981819703868e-17,0.15387966,0.26944146,9.78335604,0.003792,-0.00028,0.005097,0.0586253405711098
1757932201.5891767,-0.8277294093537457,1.2895361135415693,2.1416297627117142,-0.47597728187206245,0.7412394641440166,-3.370277433017751,0.1774736581065089,9.457037490546552e-18,0.13785993,0.27827046,9.7781175,0.001499,0.000258,0.004315,0.05972330385008873
1757932201.6093154,-0.8273276164580244,1.2889067536774237,2.141629488769259,-0.47659504902199296,0.7422019668081126,-3.370277433017751,0.1774736581065089,8.922832995398512e-18,0.15402681000000001,0.26180928000000003,9.775566900000001,0.002212,-0.001091,0.003481,0.06010618069485557
