timestamp,time_rel,x,y,theta,vx,vy,accel_x,accel_y,accel_z,gyro_x,gyro_y,gyro_z
0.0,0.0,0.0,0.0,2.873498864889334,0.0,0.0,-9.44715753,-0.16930098,-2.76924528,-0.004538,0.001869,0.002634
0.059954000054858625,0.059954000054858625,0.0,0.0,2.774095639775375,0.0,0.0,-9.43697475,-0.16525926,-2.75202873,-0.001473,0.003288,0.002229
0.079939000075683,0.079939000075683,0.0,0.0,2.6936239686965964,0.0,0.0,-9.38578617,-0.12169305,-2.85351318,0.007921,-0.006021,0.0056
0.09992399998009205,0.09992399998009205,0.0,0.0,2.6269398856519626,0.0,0.0,-9.43458111,-0.11975067,-2.7849609,0.000197,0.005352,0.00347
0.11990799999330193,0.11990799999330193,0.0,0.0,2.5715105451127034,0.0,0.0,-9.45089514,-0.14265702,-2.79228897,0.004341,-0.005573,0.00401
0.1398930000141263,0.1398930000141263,0.0,0.0,2.5247892904669325,0.0,0.0,-9.38832696,-0.12020193,-2.83181346,0.005331,0.001739,0.005246
0.17986300005577505,0.17986300005577505,0.0,0.0,2.5249603066148776,0.0,0.0,-9.44924706,-0.11480643,-2.7937899,0.007948,-0.00132,0.004951
0.19984700006898493,0.19984700006898493,0.0,0.0,2.52507446217715,0.0,0.0,-9.39820563,-0.15492933,-2.8171377,-0.000941,0.001639,0.005543
0.2198320000898093,0.2198320000898093,0.0,0.0,2.5251561397493623,0.0,0.0,-9.42410403,-0.13082616,-2.80217745,0.005563,-0.002731,0.004083
0.23981699999421835,0.23981699999421835,0.0,0.0,2.5252287253532177,0.0,0.0,-9.4425174,-0.12469491,-2.8003724100000005,0.004266,0.002085,0.003645
0.25980100000742823,0.25980100000742823,0.0,0.0,2.5253079811770487,0.0,0.0,-9.40074642,-0.15387966,-2.82387717,0.000652,0.001477,0.003966
0.2797860000282526,0.2797860000282526,0.0,0.0,2.5254035556455285,0.0,0.0,-9.41527503,-0.13053186,-2.82686922,0.007166,-0.004393,0.004788
0.299771000049077,0.299771000049077,0.0,0.0,2.5254821495553816,0.0,0.0,-9.45718335,-0.13247424,-2.78914977,-0.001578,0.005257,0.003929
0.31975600006990135,0.31975600006990135,0.0,0.0,2.5255336774616666,0.0,0.0,-9.42425118,-0.14490351,-2.8129488300000003,0.005548,-0.005091,0.002521
0.3397400000831112,0.3397400000831112,0.0,0.0,2.525634289599431,0.0,0.0,-9.418414230000002,-0.13262139,-2.8089071100000003,0.003657,0.002843,0.005096
0.3397400000831112,0.3397400000831112,0.0,0.0,2.5256522561797308,0.0,0.0,-9.418414230000002,-0.13262139,-2.8089071100000003,0.003657,0.002843,0.005096
0.37971000000834465,0.37971000000834465,0.0,0.0,2.525811832589212,0.0,0.0,-9.40703463,-0.12783411,-2.8130959800000004,0.007536,-0.001822,0.00381
0.399695000029169,0.399695000029169,0.0,0.0,2.525911753767419,0.0,0.0,-9.42680178,-0.14309847,-2.81235042,3.8e-05,0.003306,0.005077
0.4196790000423789,0.4196790000423789,0.0,0.0,2.5259814436648593,0.0,0.0,-9.43922124,-0.14519781,-2.79124911,0.004955,-0.002672,0.003417
0.4396640000632033,0.4396640000632033,0.0,0.0,2.526096397406617,0.0,0.0,-9.41751171,-0.11810259,-2.81789307,0.00347,0.001459,0.005916
0.45964900008402765,0.45964900008402765,0.0,0.0,2.526209685388756,0.0,0.0,-9.41602059,-0.14669874,-2.81354724,0.001614,0.001142,0.005808
0.4796339999884367,0.4796339999884367,0.0,0.0,2.5263073542512835,0.0,0.0,-9.44132058,-0.13785993,-2.7970860600000003,0.007923,-0.003773,0.004924
0.4996180000016466,0.4996180000016466,0.0,0.0,2.526377975710532,0.0,0.0,-9.41571648,-0.12888378,-2.8053166500000004,-0.001916,0.004473,0.003408
0.519603000022471,0.519603000022471,0.0,0.0,2.526481480814393,0.0,0.0,-9.41257728,-0.13965516,-2.82193479,0.007136,-0.004133,0.005268
0.5395880000432953,0.5395880000432953,0.0,0.0,2.52656500485619,0.0,0.0,-9.44969832,-0.1417545,-2.80471824,0.002525,0.001298,0.004132
0.5595730000641197,0.5595730000641197,0.0,0.0,2.526631637019147,0.0,0.0,-9.42455529,-0.12513636,-2.8080144,0.001865,0.000575,0.003184
0.5795570000773296,0.5795570000773296,0.0,0.0,2.5266919510944845,0.0,0.0,-9.4137741,-0.11960352,-2.82717333,0.008396,-0.004957,0.002846
0.5995419999817386,0.5995419999817386,0.0,0.0,2.5267431789892036,0.0,0.0,-9.42410403,-0.13397517,-2.80217745,-0.002995,0.003573,0.002353
0.619527000002563,0.619527000002563,0.0,0.0,2.526824927811523,0.0,0.0,-9.42589926,-0.12618603,-2.80307016,0.006215,-0.002497,0.004117
0.6395120000233874,0.6395120000233874,0.0,0.0,2.5268809862145254,0.0,0.0,-9.42320151,-0.13172868,-2.81624499,0.002914,-0.000206,0.00265
0.6594950000289828,0.6594950000289828,0.0,0.0,2.526936658008717,0.0,0.0,-9.43772031,-0.13801689,-2.79678195,0.002914,-0.000206,0.00265
0.6794810000574216,0.6794810000574216,0.0,0.0,2.527021887681334,0.0,0.0,-9.425448,-0.14295132,-2.8231316100000003,0.001875,0.000675,0.004357
0.699466000078246,0.699466000078246,0.0,0.0,2.5270971324834015,0.0,0.0,-9.42276006,-0.13412232,-2.8116048600000005,0.000289,0.003318,0.003773
0.7194500000914559,0.7194500000914559,0.0,0.0,2.5271799748864368,0.0,0.0,-9.43188336,-0.13501503,-2.80785744,0.006202,-0.003368,0.004207
0.7394349999958649,0.7394349999958649,0.0,0.0,2.5272567982298035,0.0,0.0,-9.41931675,-0.13097331,-2.80965267,0.002508,0.001192,0.003853
0.7794050000375137,0.7794050000375137,0.0,0.0,2.527406767426365,0.0,0.0,-9.43204032,-0.12813822,-2.8083087000000004,0.006926,-0.002735,0.00371
0.7993890000507236,0.7993890000507236,0.0,0.0,2.527472931713712,0.0,0.0,-9.41736456,-0.14923953,-2.79124911,-0.001062,0.003515,0.00329
0.8193740000715479,0.8193740000715479,0.0,0.0,2.5275618432900604,0.0,0.0,-9.40554351,-0.14235291,-2.80980963,0.006139,-0.003944,0.004491
0.8393590000923723,0.8393590000923723,0.0,0.0,2.5276576646440976,0.0,0.0,-9.43532667,-0.13337676,-2.80441413,0.003007,0.000524,0.004861
0.8393590000923723,0.8393590000923723,0.0,0.0,2.527672435318138,0.0,0.0,-9.43532667,-0.13337676,-2.80441413,0.003007,0.000524,0.004861
0.8593439999967813,0.8593439999967813,0.0,0.0,2.5277423227744844,0.0,0.0,-9.42410403,-0.14235291,-2.8089071100000003,-0.000155,0.000522,0.003377
0.8793280000099912,0.8793280000099912,0.0,0.0,2.5278098807379425,0.0,0.0,-9.41183172,-0.13546629,-2.8196883,0.007641,-0.00275,0.003258
0.91929800005164,0.91929800005164,0.0,0.0,2.5279594780511214,0.0,0.0,-9.43068654,-0.1332198,-2.80486539,0.00642,-0.004038,0.003568
0.91929800005164,0.91929800005164,0.0,0.0,2.527954927791148,0.0,0.0,-9.43068654,-0.1332198,-2.80486539,0.00642,-0.004038,0.003568
0.9392830000724643,0.9392830000724643,0.0,0.0,2.5280353397706694,0.0,0.0,-9.42155343,-0.14160735,-2.82672207,0.0035,-0.0003,0.00407
0.9792519999900833,0.9792519999900833,0.0,0.0,2.5281625268320607,0.0,0.0,-9.43907409,-0.13202298,-2.8116048600000005,0.007319,-0.003869,0.002402
0.9992370000109076,0.9992370000109076,0.0,0.0,2.528266899824132,0.0,0.0,-9.418414230000002,-0.14369688,-2.8080144,-0.000325,0.00342,0.005373
1.019222000031732,1.019222000031732,0.0,0.0,2.528383384332039,0.0,0.0,-9.42724323,-0.13337676,-2.80816155,0.007504,-0.002166,0.006026
1.039206000044942,1.039206000044942,0.0,0.0,2.528469403321248,0.0,0.0,-9.42111198,-0.13636881,-2.799774,0.001878,0.000187,0.004318
1.0591910000657663,1.0591910000657663,0.0,0.0,2.5285651192689365,0.0,0.0,-9.41766867,-0.13831119,-2.81878578,0.002519,0.00033,0.004856
1.0791760000865906,1.0791760000865906,0.0,0.0,2.528654280965375,0.0,0.0,-9.42484959,-0.13666311,-2.81280168,0.008358,-0.003052,0.004482
1.0991609999909997,1.0991609999909997,0.0,0.0,2.52871895883116,0.0,0.0,-9.43128495,-0.14280417,-2.81579373,-0.001389,0.003728,0.003106
1.1191450000042096,1.1191450000042096,0.0,0.0,2.5287828306065787,0.0,0.0,-9.41826708,-0.14070483,-2.81354724,0.007923,-0.00393,0.003077
1.139130000025034,1.139130000025034,0.0,0.0,2.528895791314369,0.0,0.0,-9.42365277,-0.12065319,-2.81653929,0.00253,-0.000369,0.005863
1.1591150000458583,1.1591150000458583,0.0,0.0,2.528979058733409,0.0,0.0,-9.43532667,-0.13501503,-2.80875996,-6.8e-05,0.001748,0.004155
1.1791000000666827,1.1791000000666827,0.0,0.0,2.529062457814481,0.0,0.0,-9.41243013,-0.1502892,-2.82073797,0.007588,-0.005139,0.004164
1.1990840000798926,1.1990840000798926,0.0,0.0,2.529175001829902,0.0,0.0,-9.43367859,-0.12484206,-2.79483957,-0.000632,0.002983,0.005822
1.2190689999843016,1.2190689999843016,0.0,0.0,2.52925843406555,0.0,0.0,-9.4226031,-0.13741848,-2.79857718,0.00451,-0.001965,0.004138
1.239054000005126,1.239054000005126,0.0,0.0,2.5293458623422396,0.0,0.0,-9.42305436,-0.13756563,-2.8279188900000003,0.003178,-0.000199,0.004371
1.2590390000259504,1.2590390000259504,0.0,0.0,2.5294566256293844,0.0,0.0,-9.42709608,-0.13726152,-2.80606221,0.001427,0.000676,0.005704
1.2790230000391603,1.2790230000391603,0.0,0.0,2.5295545808220083,0.0,0.0,-9.43068654,-0.12334113,-2.8071118800000003,0.006661,-0.003776,0.004949
1.2990080000599846,1.2990080000599846,0.0,0.0,2.529653777718459,0.0,0.0,-9.416619,-0.13666311,-2.8180402200000003,-0.001198,0.004145,0.005013
1.318993000080809,1.318993000080809,0.0,0.0,2.5297345940466744,0.0,0.0,-9.42379992,-0.12080034,-2.8205810100000006,0.006516,-0.003205,0.003953
1.338977999985218,1.338977999985218,0.0,0.0,2.529807364587624,0.0,0.0,-9.42874416,-0.13936086,-2.81849148,0.002029,-0.00104,0.003505
1.358961999998428,1.358961999998428,0.0,0.0,2.5298866164448413,0.0,0.0,-9.4106349,-0.13801689,-2.8175889600000006,-0.001522,0.001054,0.003897
1.3789470000192523,1.3789470000192523,0.0,0.0,2.529954772985496,0.0,0.0,-9.43323714,-0.11616021,-2.81369439,0.006666,-0.004258,0.00327
1.3989320000400767,1.3989320000400767,0.0,0.0,2.530007489040514,0.0,0.0,-9.43577793,-0.13097331,-2.7993325500000004,-0.001288,0.003353,0.002404
1.418917000060901,1.418917000060901,0.0,0.0,2.5300621952762175,0.0,0.0,-9.4223088,-0.13142457,-2.8142928000000005,0.005851,-0.002145,0.002553
1.438901000074111,1.438901000074111,0.0,0.0,2.530149320304324,0.0,0.0,-9.41751171,-0.13067901,-2.8134000900000005,0.002052,0.000564,0.004444
1.45888599997852,1.45888599997852,0.0,0.0,2.530240876525311,0.0,0.0,-9.4279986,-0.13845834,-2.81280168,0.001244,0.001408,0.004686
1.4988560000201687,1.4988560000201687,0.0,0.0,2.5304086077584227,0.0,0.0,-9.41766867,-0.13426947,-2.8168434,-0.001103,0.002441,0.004422
1.5188400000333786,1.5188400000333786,0.0,0.0,2.530489084022502,0.0,0.0,-9.43608204,-0.14010642,-2.81414565,0.005955,-0.003386,0.004026
1.5188400000333786,1.5188400000333786,0.0,0.0,2.5304887538594496,0.0,0.0,-9.43608204,-0.14010642,-2.81414565,0.005955,-0.003386,0.004026
1.538825000054203,1.538825000054203,0.0,0.0,2.5305856694806383,0.0,0.0,-9.42379992,-0.13517199,-2.81624499,0.003289,0.000527,0.005004
1.5787949999794364,1.5787949999794364,0.0,0.0,2.5307469028688683,0.0,0.0,-9.42814575,-0.12139875,-2.80845585,0.006887,-0.004157,0.003885
1.5987789999926463,1.5987789999926463,0.0,0.0,2.530814684998953,0.0,0.0,-9.42724323,-0.13831119,-2.78735454,0.000115,0.004551,0.003335
1.6187640000134706,1.6187640000134706,0.0,0.0,2.530900407146893,0.0,0.0,-9.42530085,-0.13936086,-2.81249757,0.005283,-0.003565,0.004313
1.638749000034295,1.638749000034295,0.0,0.0,2.5310106454068855,0.0,0.0,-9.42784164,-0.12484206,-2.8142928000000005,0.00303,-0.000493,0.005653
1.6587340000551194,1.6587340000551194,0.0,0.0,2.5310818969594537,0.0,0.0,-9.4311378,-0.14519781,-2.8118991600000003,0.000864,0.001506,0.003494
1.6587340000551194,1.6587340000551194,0.0,0.0,2.5310711161841644,0.0,0.0,-9.4311378,-0.14519781,-2.8118991600000003,0.000864,0.001506,0.003494
1.6987030000891536,1.6987030000891536,0.0,0.0,2.531256708203707,0.0,0.0,-9.42649767,-0.13696722,-2.80725903,-0.000976,0.004103,0.005328
1.7186879999935627,1.7186879999935627,0.0,0.0,2.531359648504706,0.0,0.0,-9.414823770000002,-0.13621185,-2.81414565,0.00492,-0.004924,0.005258
1.738673000014387,1.738673000014387,0.0,0.0,2.531395896500765,0.0,0.0,-9.42185754,-0.22797459,-2.8104080400000004,0.003351,0.001401,0.001495
1.758657000027597,1.758657000027597,0.0,0.0,2.5316078486205242,0.0,0.0,-9.33054606,0.08547453,-2.8758211200000003,0.000315,0.00053,0.011443
1.7786420000484213,1.7786420000484213,0.0,0.0,2.531770132348461,0.0,0.0,-9.47260467,-0.19250163,-2.8253781,0.015387,-0.003179,0.008525
1.7986270000692457,1.7986270000692457,0.0,0.0,2.5318578496449557,0.0,0.0,-9.45404415,-0.28186092,-2.71445643,-0.003395,0.00217,0.004246
1.81861200009007,1.81861200009007,0.0,0.0,2.5319100168098885,0.0,0.0,-9.44745183,-0.11975067,-2.8026189,0.00266,-0.003232,0.002247
1.8385959999868646,1.8385959999868646,0.0,0.0,2.53199426470119,0.0,0.0,-9.41078205,-0.04955031,-2.8488730500000004,0.004799,0.002021,0.004122
1.858581000007689,1.858581000007689,0.0,0.0,2.5321130765879127,0.0,0.0,-9.41212602,-0.17992521,-2.81325294,0.004324,-0.00324,0.006104
1.8785660000285134,1.8785660000285134,0.0,0.0,2.532105437635491,0.0,0.0,-9.47589102,-0.10148445,-2.72912238,0.002932,0.013471,-0.001133
1.8985510000493377,1.8985510000493377,0.0,0.0,2.532214966025223,0.0,0.0,-9.4889187,0.01332198,-2.8615966200000003,-0.0034,-0.01073,0.005667
1.9185350000625476,1.9185350000625476,0.0,0.0,2.5323832180666956,0.0,0.0,-9.3762018,-0.20297871,-2.87926443,0.014979,0.00744,0.008999
1.938520000083372,1.938520000083372,0.0,0.0,2.532447566019692,0.0,0.0,-9.39236868,-0.18845991,-2.76116184,0.001885,0.005292,0.002967
1.958504999987781,1.958504999987781,0.0,0.0,2.532613376540815,0.0,0.0,-9.56615283,-0.13831119,-2.84348736,0.003206,-0.014161,0.008817
1.9784900000086054,1.9784900000086054,0.0,0.0,2.5326328952530393,0.0,0.0,-9.30540303,-0.1764819,-2.94587433,0.008063,-0.005553,0.000353
1.9984750000294298,1.9984750000294298,0.0,0.0,2.5329615108267536,0.0,0.0,-9.41647185,-0.29099403,-3.0009574800000003,0.053232,-0.010694,0.018179
2.0184590000426397,2.0184590000426397,0.0,0.0,2.5332925014938485,0.0,0.0,-9.21753486,-0.60982884,-2.97041895,0.05748,-0.055701,0.01806
2.038444000063464,2.038444000063464,0.0,0.0,2.5332121513653654,0.0,0.0,-9.617645520000002,-0.26853894,-2.73796119,0.031617,-0.014412,-0.005788
2.0584290000842884,2.0584290000842884,0.0,0.0,2.5339467561541937,0.0,0.0,-9.76254903,-0.1658576699999999,-2.8488730500000004,0.075873,0.004441,0.041303
2.0784139999886975,2.0784139999886975,0.0,0.0,2.5342118248307273,0.0,0.0,-8.83717173,-0.59949891,-3.1904670600000005,0.123048,-0.002556,0.013636
2.0983980000019073,2.0983980000019073,0.0,0.0,2.53430917860911,0.0,0.0,-9.27935748,-0.49906413,-3.7857771,0.108115,-0.204867,0.003937
2.1183830000227317,2.1183830000227317,0.0,0.0,2.534811820732811,0.0,0.0,-9.24028425,0.06436341,-3.2787864900000003,0.124699,-0.117534,0.027388
2.138368000043556,2.138368000043556,0.0,0.0,2.5359657903046067,0.0,0.0,-9.79562835,0.36613863,-3.00994344,0.141113,-0.113165,0.064526
2.1583530000643805,2.1583530000643805,0.0,0.0,2.5362774427999826,0.0,0.0,-9.44745183,0.02274939,-3.08748168,0.107762,-0.098173,0.015036
2.1783370000775903,2.1783370000775903,0.0,0.0,2.536587619170451,0.0,0.0,-9.37006074,-0.19429686,-2.58736788,0.107762,-0.098173,0.015036
2.1783370000775903,2.1783370000775903,0.0,0.0,2.536538095786123,0.0,0.0,-9.37006074,-0.19429686,-2.58736788,0.107762,-0.098173,0.015036
2.2183070000028238,2.2183070000028238,0.0,0.0,2.537501770465255,0.0,0.0,-9.40733874,-0.04819653,-2.50518951,0.068886,-0.110731,0.032266
2.258276000036858,2.258276000036858,0.0,0.0,2.538174922975754,0.0,0.0,-9.44341011,-0.32602554,-2.64081276,0.013364,-0.201625,0.013647
2.258276000036858,2.258276000036858,0.0,0.0,2.5380864530429132,0.0,0.0,-9.44341011,-0.32602554,-2.64081276,0.013364,-0.201625,0.013647
2.2982460000785068,2.2982460000785068,0.0,0.0,2.538437989774552,0.0,0.0,-9.327102750000002,-0.32901759,-2.5828749,-0.055205,-0.327756,-0.001818
2.2982460000785068,2.2982460000785068,0.0,0.0,2.538156544936518,0.0,0.0,-9.327102750000002,-0.32901759,-2.5828749,-0.055205,-0.327756,-0.001818
2.33821600000374,2.33821600000374,0.0,0.0,2.5385127109903074,0.0,0.0,-9.4371219,-0.29668383,-2.56177359,-0.073102,-0.456334,0.003954
2.33821600000374,2.33821600000374,0.0,0.0,2.538385721114258,0.0,0.0,-9.4371219,-0.29668383,-2.56177359,-0.073102,-0.456334,0.003954
2.3781850000377744,2.3781850000377744,0.0,0.0,2.538737334171783,0.0,0.0,-9.29835945,-0.37841094,-2.70233127,-0.063073,-0.605901,0.006324
2.3781850000377744,2.3781850000377744,0.0,0.0,2.538675677649077,0.0,0.0,-9.29835945,-0.37841094,-2.70233127,-0.063073,-0.605901,0.006324
2.418155000079423,2.418155000079423,0.0,0.0,2.5392635904622285,0.0,0.0,-9.31692978,-0.21824307,-2.4234624,-0.025432,-0.729692,0.020854
2.418155000079423,2.418155000079423,0.0,0.0,2.539413554736938,0.0,0.0,-9.31692978,-0.21824307,-2.4234624,-0.025432,-0.729692,0.020854
2.458123999997042,2.458123999997042,0.0,0.0,2.5402733212853725,0.0,0.0,-9.34821387,-0.08277678,-2.13411645,0.004141,-0.87162,0.03285
2.458123999997042,2.458123999997042,0.0,0.0,2.5405454966422463,0.0,0.0,-9.34821387,-0.08277678,-2.13411645,0.004141,-0.87162,0.03285
2.498094000038691,2.498094000038691,0.0,0.0,2.5418961927679584,0.0,0.0,-9.25076133,0.30117681,-1.86467499,0.057213,-1.049488,0.054518
2.498094000038691,2.498094000038691,0.0,0.0,2.5423873390193794,0.0,0.0,-9.25076133,0.30117681,-1.86467499,0.057213,-1.049488,0.054518
2.538063000072725,2.538063000072725,0.0,0.0,2.5440096684349456,0.0,0.0,-9.30136131,0.02649681,-1.1906200800000002,0.040302,-1.249359,0.058554
2.5580480000935495,2.5580480000935495,0.0,0.0,2.5451284735203847,0.0,0.0,-9.37650591,0.09504909,-0.8961827400000001,0.031734,-1.34781,0.059526
2.5780329999979585,2.5780329999979585,0.0,0.0,2.5463570578564454,0.0,0.0,-9.3357846,0.16750575,-0.7625116800000001,0.028801,-1.441565,0.065251
2.598018000018783,2.598018000018783,0.0,0.0,2.547300529914799,0.0,0.0,-9.79009551,0.6709059,-0.2633004,0.048824,-1.469072,0.048365
2.618002000031993,2.618002000031993,0.0,0.0,2.547629072577733,0.0,0.0,-15.98092164,1.13912739,-0.2297698199999999,0.162125,-0.536678,0.012999
2.637987000052817,2.637987000052817,0.0,0.0,2.5479652363783565,0.0,0.0,-10.936256670000002,-0.09176274,-0.1360647,0.157194,-0.35946,0.013949
2.6579720000736415,2.6579720000736415,0.0,0.0,2.548774951543285,0.0,0.0,-10.17883638,0.26480133,0.5688132300000001,0.119199,-0.408517,0.041511
2.677957000094466,2.677957000094466,0.0,0.0,2.549930712651576,0.0,0.0,-9.85011309,0.5140341900000001,0.75667473,0.080904,-0.263838,0.061202
2.6979409999912605,2.6979409999912605,0.0,0.0,2.5503003002732196,0.0,0.0,-10.477315440000002,0.25970994,0.8948387700000001,0.032644,-0.142942,0.015607
2.717926000012085,2.717926000012085,0.0,0.0,2.550338367314893,0.0,0.0,-10.11910329,0.33470739,0.92327796,0.00079,-0.094324,-0.002992
2.7379100000252947,2.7379100000252947,0.0,0.0,2.550700969888653,0.0,0.0,-9.677074500000002,0.210915,0.77838426,-0.010855,-0.168486,0.016372
2.7578960000537336,2.7578960000537336,0.0,0.0,2.551149054531731,0.0,0.0,-9.75865446,-0.09924777,0.7536826799999999,-0.026117,-0.23484,0.021543
2.7778800000669435,2.7778800000669435,0.0,0.0,2.551661233679866,0.0,0.0,-9.72003249,-0.27812331,0.8069706000000001,-0.065132,-0.348732,0.02536
2.797865000087768,2.797865000087768,0.0,0.0,2.5523230098316265,0.0,0.0,-9.74997261,-0.14490351,0.69590178,-0.054139,-0.526121,0.033998
2.817849999992177,2.817849999992177,0.0,0.0,2.552862131556042,0.0,0.0,-9.70776018,0.03907323,0.51911577,0.002524,-0.636395,0.026813
2.857819000026211,2.857819000026211,0.0,0.0,2.553928874756073,0.0,0.0,-9.599085,-0.30386475,1.07296875,0.030182,-0.681809,0.025392
2.857819000026211,2.857819000026211,0.0,0.0,2.553892702390944,0.0,0.0,-9.599085,-0.30386475,1.07296875,0.030182,-0.681809,0.025392
2.89778900006786,2.89778900006786,0.0,0.0,2.554859319608589,0.0,0.0,-9.62932923,0.01796211,0.96878655,0.038788,-0.85231,0.020723
2.89778900006786,2.89778900006786,0.0,0.0,2.5547671881471983,0.0,0.0,-9.62932923,0.01796211,0.96878655,0.038788,-0.85231,0.020723
2.9377589999930933,2.9377589999930933,0.0,0.0,2.555895735465511,0.0,0.0,-9.55747098,-0.15088761,1.49898762,0.01465,-1.022789,0.031294
2.9577440000139177,2.9577440000139177,0.0,0.0,2.556397031931742,0.0,0.0,-9.52125246,-0.19190322,1.7092944,-0.001702,-1.052909,0.02496
2.9777280000271276,2.9777280000271276,0.0,0.0,2.556806150917751,0.0,0.0,-9.50508558,-0.30311919,1.92365271,-0.017875,-1.077951,0.019904
2.9777280000271276,2.9777280000271276,0.0,0.0,2.556719050685359,0.0,0.0,-9.50508558,-0.30311919,1.92365271,-0.017875,-1.077951,0.019904
3.0176980000687763,3.0176980000687763,0.0,0.0,2.557767285359575,0.0,0.0,-9.34701705,-0.11750418,2.19369258,0.007367,-1.253687,0.028108
3.0176980000687763,3.0176980000687763,0.0,0.0,2.5578136175319592,0.0,0.0,-9.34701705,-0.11750418,2.19369258,0.007367,-1.253687,0.028108
3.0176980000687763,3.0176980000687763,0.0,0.0,2.5578498949940354,0.0,0.0,-9.34701705,-0.11750418,2.19369258,0.007367,-1.253687,0.028108
3.0576669999863952,3.0576669999863952,0.0,0.0,2.558715354395469,0.0,0.0,-11.78110368,0.79305021,3.07999665,0.075941,-0.920346,0.015436
3.097637000028044,3.097637000028044,0.0,0.0,2.5590443535347394,0.0,0.0,-8.96904756,0.5843817,3.78053856,0.050739,-0.954587,-0.011371
3.097637000028044,3.097637000028044,0.0,0.0,2.5585595997122397,0.0,0.0,-8.96904756,0.5843817,3.78053856,0.050739,-0.954587,-0.011371
3.1376070000696927,3.1376070000696927,0.0,0.0,2.559135883976821,0.0,0.0,-7.844438970000001,-0.5667237,4.27974984,0.151613,-0.853749,0.013204
3.1575910000829026,3.1575910000829026,0.0,0.0,2.5590367756374928,0.0,0.0,-8.905135410000002,-0.96654006,4.28229063,0.123161,-0.992258,-0.007366
3.1775759999873117,3.1775759999873117,0.0,0.0,2.5593813343224703,0.0,0.0,-8.82624339,-0.20911977,4.47823557,0.105967,-1.150431,0.017893
3.197561000008136,3.197561000008136,0.0,0.0,2.559590499178851,0.0,0.0,-8.39679102,-0.08067744,4.48722153,0.095713,-1.076806,0.010176
3.2175460000289604,3.2175460000289604,0.0,0.0,2.560228152883459,0.0,0.0,-8.62790481,-0.07739109,4.8121974,0.053689,-1.216566,0.034418
3.2375300000421703,3.2375300000421703,0.0,0.0,2.5616793270782203,0.0,0.0,-8.164176300000001,-0.11810259,5.08327713,-0.019132,-1.262809,0.080131
3.2575150000629947,3.2575150000629947,0.0,0.0,2.562878437318931,0.0,0.0,-8.32494258,0.02155257,5.10977394,-0.037989,-1.287919,0.064801
3.277500000083819,3.277500000083819,0.0,0.0,2.5640083395719007,0.0,0.0,-8.45636715,0.25372584,4.86532836,-0.009121,-1.270926,0.060204
3.297484999988228,3.297484999988228,0.0,0.0,2.5648427336550776,0.0,0.0,-8.04217914,0.38110869,5.02520193,0.011577,-1.29236,0.042871
3.3174700000090525,3.3174700000090525,0.0,0.0,2.5651333555058713,0.0,0.0,-8.232581430000002,0.52510968,5.10917553,0.067834,-1.304341,0.011714
3.3374540000222623,3.3374540000222623,0.0,0.0,2.5653119154409305,0.0,0.0,-7.81165395,0.62629983,5.18386887,0.138055,-1.266125,0.00572
3.3574390000430867,3.3574390000430867,0.0,0.0,2.5649355727692225,0.0,0.0,-7.763310270000001,0.32272938,5.64177024,0.212879,-1.224872,-0.025535
3.377424000063911,3.377424000063911,0.0,0.0,2.564467727559583,0.0,0.0,-7.297472610000001,-0.02006145,6.10954047,0.239465,-1.216526,-0.029805
3.3974090000847355,3.3974090000847355,0.0,0.0,2.5643471781510634,0.0,0.0,-7.367084370000001,0.10882233,6.18812838,0.235043,-1.208615,-0.008992
3.4173939999891445,3.4173939999891445,0.0,0.0,2.5642743693943686,0.0,0.0,-7.16530248,0.38544471,6.384073320000001,0.218403,-1.238521,-0.005825
3.4373780000023544,3.4373780000023544,0.0,0.0,2.564224215357731,0.0,0.0,-6.89151519,0.32063004,6.51640041,0.210048,-1.279391,-0.004206
3.4573630000231788,3.4573630000231788,0.0,0.0,2.5647540608899515,0.0,0.0,-6.689439,0.13517199,6.68853648,0.20612,-1.275187,0.029326
3.4573630000231788,3.4573630000231788,0.0,0.0,2.5650478233463367,0.0,0.0,-6.689439,0.13517199,6.68853648,0.20612,-1.275187,0.029326
3.4573630000231788,3.4573630000231788,0.0,0.0,2.5652802882554067,0.0,0.0,-6.689439,0.13517199,6.68853648,0.20612,-1.275187,0.029326
3.517318000085652,3.517318000085652,0.0,0.0,2.5664187874556603,0.0,0.0,-6.42239118,0.47046798,7.12668051,0.202844,-1.269162,0.03081
3.557287000003271,3.557287000003271,0.0,0.0,2.5675551692631657,0.0,0.0,-5.72439987,0.66072312,7.477849079999999,0.211089,-1.319082,0.041071
3.577272000024095,3.577272000024095,0.0,0.0,2.5686195258870033,0.0,0.0,-5.620207860000001,0.55864026,7.68756726,0.212527,-1.320338,0.054774
3.577272000024095,3.577272000024095,0.0,0.0,2.5691083005176765,0.0,0.0,-5.620207860000001,0.55864026,7.68756726,0.212527,-1.320338,0.054774
3.6172410000581294,3.6172410000581294,0.0,0.0,2.5710432896181494,0.0,0.0,-5.06606058,0.80187921,7.84084851,0.237034,-1.348479,0.070394
3.6172410000581294,3.6172410000581294,0.0,0.0,2.571617761663582,0.0,0.0,-5.06606058,0.80187921,7.84084851,0.237034,-1.348479,0.070394
3.657210999983363,3.657210999983363,0.0,0.0,2.573549884867967,0.0,0.0,-4.42674288,0.9398961,7.951014810000001,0.283149,-1.47062,0.058711
3.657210999983363,3.657210999983363,0.0,0.0,2.573812576868991,0.0,0.0,-4.42674288,0.9398961,7.951014810000001,0.283149,-1.47062,0.058711
3.6971810000250116,3.6971810000250116,0.0,0.0,2.5775818738825063,0.0,0.0,-3.92229306,1.00380825,8.37672957,0.323032,-1.517974,0.155086
3.6971810000250116,3.6971810000250116,0.0,0.0,2.579083800973299,0.0,0.0,-3.92229306,1.00380825,8.37672957,0.323032,-1.517974,0.155086
3.737150000059046,3.737150000059046,0.0,0.0,2.5819821322152876,0.0,0.0,-3.69221913,0.8481333600000001,9.25480305,0.262558,-1.614825,0.073422
3.7571350000798702,3.7571350000798702,0.0,0.0,2.5829308829107642,0.0,0.0,-3.14286894,1.05500664,9.58097574,0.17077,-1.665675,0.044432
3.7771199999842793,3.7771199999842793,0.0,0.0,2.583855803134112,0.0,0.0,-2.8518651000000004,1.3973462100000005,9.27261801,0.098091,-1.704567,0.043505
3.7971050000051036,3.7971050000051036,0.0,0.0,2.585387945161308,0.0,0.0,-2.70292968,1.43760645,9.32800527,0.06374,-1.738586,0.078196
3.8170890000183135,3.8170890000183135,0.0,0.0,2.5868352560923658,0.0,0.0,-2.33679105,1.31037075,9.51047127,0.049276,-1.720102,0.073186
3.837074000039138,3.837074000039138,0.0,0.0,2.58755980377061,0.0,0.0,-2.2296168,1.7335447200000005,9.56855628,0.066929,-1.61572,0.032069
3.8570590000599623,3.8570590000599623,0.0,0.0,2.588165161351405,0.0,0.0,-2.00103399,2.1802136400000003,9.69369264,0.120562,-1.515357,0.025876
3.8770440000807866,3.8770440000807866,0.0,0.0,2.587252114712654,0.0,0.0,-1.37130066,1.84760559,9.52574544,0.155702,-1.470099,-0.05995
3.8970289999851957,3.8970289999851957,0.0,0.0,2.5803859768093105,0.0,0.0,-4.6328706,-0.96953211,15.44892534,-0.443057,-0.991847,-0.397344
3.9170129999984056,3.9170129999984056,0.0,0.0,2.5729567515925957,0.0,0.0,-0.8753757300000001,1.93637628,14.225814540000002,-0.434951,-1.175778,-0.421848
3.93699800001923,3.93699800001923,0.0,0.0,2.5655326062580164,0.0,0.0,-1.55541474,0.23276187,22.87333935,-0.597247,-1.78322,-0.414384
3.9569830000400543,3.9569830000400543,0.0,0.0,2.559403104796467,0.0,0.0,-0.91280088,0.85487283,10.40800779,-0.695919,-1.3073,-0.334134
3.9769680000608787,3.9769680000608787,0.0,0.0,2.5552002917405154,0.0,0.0,0.7276371300000001,2.0941407,3.0211660800000004,-0.410576,-0.901041,-0.219829
3.996953000081703,3.996953000081703,0.0,0.0,2.552029702001172,0.0,0.0,0.1850166,1.18224234,7.73846154,-0.380523,-0.746263,-0.159284
4.016936999978498,4.016936999978498,0.0,0.0,2.5490312106291917,0.0,0.0,-0.40550616,1.49419053,8.25353559,-0.320479,-0.657715,-0.14933
4.036921999999322,4.036921999999322,0.0,0.0,2.5467601381995664,0.0,0.0,-0.32272938,1.39749336,8.88357303,-0.281815,-0.566002,-0.107683
4.056907000020146,4.056907000020146,0.0,0.0,2.54559725479886,0.0,0.0,0.0202086,1.22565159,9.77766624,-0.262991,-0.50713,-0.044934
4.076892000040971,4.076892000040971,0.0,0.0,2.5456337965911597,0.0,0.0,0.0577809,1.2307429799999998,9.03835521,-0.216122,-0.458469,0.022002
4.096877000061795,4.096877000061795,0.0,0.0,2.546694751078328,0.0,0.0,0.17693316,0.90201969,9.51706359,-0.221368,-0.465322,0.077875
4.1168620000826195,4.1168620000826195,0.0,0.0,2.466092882724456,0.0,0.0,-1.77530589,2.73720582,11.1577959,-0.052097,-0.244629,0.259413
4.136845999979414,4.136845999979414,0.0,0.0,2.3540364575690678,0.0,0.0,0.5665765500000001,0.04221243,9.68501079,-0.087163,-0.314723,0.288844
4.176816000021063,4.176816000021063,0.0,0.0,2.365126924221671,0.0,0.0,0.92777094,0.02350476,9.48143367,-0.00973,-0.042058,0.590827
4.176816000021063,4.176816000021063,0.0,0.0,2.373362434050094,0.0,0.0,0.92777094,0.02350476,9.48143367,-0.00973,-0.042058,0.590827
4.2167860000627115,4.2167860000627115,0.0,0.0,2.3872366616727687,0.0,0.0,0.02155257,-0.04699971,9.59520024,-0.034057,0.00175,0.57693
4.2167860000627115,4.2167860000627115,0.0,0.0,2.3930897118446115,0.0,0.0,0.02155257,-0.04699971,9.59520024,-0.034057,0.00175,0.57693
4.2567549999803305,4.2567549999803305,0.0,0.0,2.4078944897729855,0.0,0.0,-0.36853227,0.23560677,9.67123755,-0.001609,0.036781,0.505801
4.2567549999803305,4.2567549999803305,0.0,0.0,2.4112567057456094,0.0,0.0,-0.36853227,0.23560677,9.67123755,-0.001609,0.036781,0.505801
4.296725000021979,4.296725000021979,0.0,0.0,2.4258060341563468,0.0,0.0,-0.25925868,-0.10148445,9.63546048,-0.020825,0.026625,0.418429
4.296725000021979,4.296725000021979,0.0,0.0,2.427130625096366,0.0,0.0,-0.25925868,-0.10148445,9.63546048,-0.020825,0.026625,0.418429
4.3366940000560135,4.3366940000560135,0.0,0.0,2.4399422664486234,0.0,0.0,-0.2803698,-0.10253412,9.73306017,-0.002896,0.071244,0.290638
4.3366940000560135,4.3366940000560135,0.0,0.0,2.4392258495447443,0.0,0.0,-0.2803698,-0.10253412,9.73306017,-0.002896,0.071244,0.290638
4.376663999981247,4.376663999981247,0.0,0.0,2.3190061606828216,0.0,0.0,-0.5095412100000001,-0.24249339,10.12988448,0.011432,-0.021772,0.173402
4.376663999981247,4.376663999981247,0.0,0.0,2.316963079691954,0.0,0.0,-0.5095412100000001,-0.24249339,10.12988448,0.011432,-0.021772,0.173402
4.416634000022896,4.416634000022896,0.0,0.0,2.3259117838566397,0.0,0.0,0.28485297,-0.12544047,9.67198311,-0.010723,-0.000429,0.133689
4.416634000022896,4.416634000022896,0.0,0.0,2.3238562226238084,0.0,0.0,0.28485297,-0.12544047,9.67198311,-0.010723,-0.000429,0.133689
4.45660300005693,4.45660300005693,0.0,0.0,2.3307595011211877,0.0,0.0,0.29084688,-0.37347651,9.55762794,0.000133,-0.007026,0.066314
4.45660300005693,4.45660300005693,0.0,0.0,2.3283352648110096,0.0,0.0,0.29084688,-0.37347651,9.55762794,0.000133,-0.007026,0.066314
4.496572999982163,4.496572999982163,0.0,0.0,2.333003519141151,0.0,0.0,0.07110288,-0.65967345,9.813139200000002,0.008753,0.004911,-0.002901
4.496572999982163,4.496572999982163,0.0,0.0,2.3302772221762336,0.0,0.0,0.07110288,-0.65967345,9.813139200000002,0.008753,0.004911,-0.002901
4.536543000023812,4.536543000023812,0.0,0.0,2.3346396125186164,0.0,0.0,0.34248672,-0.769104,9.84967164,0.004922,-0.005024,0.047632
4.556527000037022,4.556527000037022,0.0,0.0,2.3370531073747474,0.0,0.0,0.2402469,-0.59306355,9.75296466,0.011881,-0.012531,0.117632
4.576512000057846,4.576512000057846,0.0,0.0,2.340215932638335,0.0,0.0,0.17408826,-0.48708612,9.77302611,0.007863,-0.006179,0.161554
4.596497000078671,4.596497000078671,0.0,0.0,2.3437867256175817,0.0,0.0,0.03577707,-0.31734369,9.76749327,0.00585,-0.010855,0.184604
4.61648199998308,4.61648199998308,0.0,0.0,2.34762508888422,0.0,0.0,-0.01676529,-0.25193061,9.73994679,0.004126,-0.007717,0.199103
4.61648199998308,4.61648199998308,0.0,0.0,2.348318775227913,0.0,0.0,-0.01676529,-0.25193061,9.73994679,0.004126,-0.007717,0.199103
4.656451000017114,4.656451000017114,0.0,0.0,2.355041119025797,0.0,0.0,0.09205704,0.02544714,9.72722322,0.003976,0.009261,0.180257
4.676436000037938,4.676436000037938,0.0,0.0,2.3586963397474197,0.0,0.0,0.2112093,0.21435831,9.61585029,0.000793,-0.003095,0.18618
4.696421000058763,4.696421000058763,0.0,0.0,2.3622171061105313,0.0,0.0,0.27977139,0.29938158,9.59145282,0.004796,-0.003886,0.177872
4.716405000071973,4.716405000071973,0.0,0.0,2.365105631972309,0.0,0.0,0.10717425,0.23905008,9.696988800000002,-0.002479,-0.001702,0.14109
4.736390000092797,4.736390000092797,0.0,0.0,2.3673674557999114,0.0,0.0,0.19429686,0.16750575,9.66809835,0.000288,-0.005961,0.105449
4.756374999997206,4.756374999997206,0.0,0.0,2.368765996640704,0.0,0.0,0.35895771,0.15297714,9.78245352,0.000695,-0.000913,0.056846
4.776359000010416,4.776359000010416,0.0,0.0,2.369025987105905,0.0,0.0,0.34892208,0.21330864,9.75057102,-0.003504,0.001472,-0.006781
4.79634400003124,4.79634400003124,0.0,0.0,2.3691226703376564,0.0,0.0,0.13801689,0.32602554,9.67527927,-0.004004,0.008737,-0.013149
4.816329000052065,4.816329000052065,0.0,0.0,2.3695162739872684,0.0,0.0,0.12424365,0.34398765,9.75236625,0.001333,-0.003245,0.006737
4.856299000093713,4.856299000093713,0.0,0.0,2.3714804827056177,0.0,0.0,0.19429686,0.26779338,9.76809168,0.005263,-0.002813,0.00347
4.856299000093713,4.856299000093713,0.0,0.0,2.3702120482878204,0.0,0.0,0.19429686,0.26779338,9.76809168,0.005263,-0.002813,0.00347
4.896268000011332,4.896268000011332,0.0,0.0,2.371702652869855,0.0,0.0,0.1155618,0.27707364,9.73904427,0.000932,0.003528,0.00137
4.896268000011332,4.896268000011332,0.0,0.0,2.3707489306519456,0.0,0.0,0.1155618,0.27707364,9.73904427,0.000932,0.003528,0.00137
4.936238000052981,4.936238000052981,0.0,0.0,2.3718628670551896,0.0,0.0,0.16061913,0.24369021,9.74428281,0.000682,-0.000652,-0.00054
4.9562230000738055,4.9562230000738055,0.0,0.0,2.372023875164384,0.0,0.0,0.18381978,0.25657074,9.75671208,0.000304,-0.001567,0.004651
4.97620800009463,4.97620800009463,0.0,0.0,2.3721331846449605,0.0,0.0,0.118701,0.25057683,9.67857543,0.001826,-0.001914,0.00212
4.996192999999039,4.996192999999039,0.0,0.0,2.3723008140266817,0.0,0.0,0.20821725,0.21015963,9.74248758,-9.4e-05,0.00395,0.005683
5.016177000012249,5.016177000012249,0.0,0.0,2.3725008411990114,0.0,0.0,0.19279593,0.19025514,9.74248758,0.002422,-0.003054,0.007776
5.036162000033073,5.036162000033073,0.0,0.0,2.3725942698786717,0.0,0.0,0.1038879,0.20387142,9.72198468,0.002585,0.002043,0.002075
5.0561470000538975,5.0561470000538975,0.0,0.0,2.37264894192678,0.0,0.0,0.13247424,0.22063671,9.74413566,0.002083,-0.000371,0.00021
5.0561470000538975,5.0561470000538975,0.0,0.0,2.372328039577635,0.0,0.0,0.13247424,0.22063671,9.74413566,0.002083,-0.000371,0.00021
5.096116999979131,5.096116999979131,0.0,0.0,2.372602398554954,0.0,0.0,0.13067901,0.21015963,9.74129076,-0.000274,0.000445,-0.007452
5.116101999999955,5.116101999999955,0.0,0.0,2.3724090723729434,0.0,0.0,0.13831119,0.25012557,9.74219328,0.00173,0.001053,-0.01293
5.136086000013165,5.136086000013165,0.0,0.0,2.3722409610258435,0.0,0.0,0.19893699,0.31569561,9.75461274,0.001346,-0.001985,-0.011037
5.1560710000339895,5.1560710000339895,0.0,0.0,2.3721057124696596,0.0,0.0,0.1935513,0.37541889,9.73246176,0.00152,0.001035,-0.008796
5.176056000054814,5.176056000054814,0.0,0.0,2.3718878282984086,0.0,0.0,0.1386153,0.40176855,9.73650348,0.000221,-0.00048,-0.013217
5.196041000075638,5.196041000075638,0.0,0.0,2.3714370793152204,0.0,0.0,0.14354973,0.45489951,9.72901845,0.000777,0.002635,-0.026174
5.216025999980047,5.216025999980047,0.0,0.0,2.3707200593725304,0.0,0.0,0.11331531,0.47630493,9.76224492,0.001621,-0.000425,-0.040866
5.236009999993257,5.236009999993257,0.0,0.0,2.3700624297942294,0.0,0.0,0.15043635,0.5215192200000001,9.74683341,-0.001488,0.001019,-0.036751
5.255995000014082,5.255995000014082,0.0,0.0,2.3697570789790827,0.0,0.0,0.19609209,0.5878250100000001,9.73351143,0.001531,-0.004594,-0.016029
5.275980000034906,5.275980000034906,0.0,0.0,2.3696161925121784,0.0,0.0,0.18367263,0.55983708,9.72572229,0.001525,8e-05,-0.006498
5.29596500005573,5.29596500005573,0.0,0.0,2.3692198838596816,0.0,0.0,0.1038879,0.51193485,9.72737037,0.001467,0.001164,-0.021222
5.315950000076555,5.315950000076555,0.0,0.0,2.3683266102548295,0.0,0.0,0.13651596,0.46582785,9.71599077,0.004203,-4.2e-05,-0.049527
5.335934999980964,5.335934999980964,0.0,0.0,2.367138595267823,0.0,0.0,0.22737618,0.38036313,9.75671208,0.003037,-0.000273,-0.065733
5.355920000001788,5.355920000001788,0.0,0.0,2.365598540516645,0.0,0.0,0.29474145,0.27228636,9.76224492,0.004071,-0.000334,-0.08502
5.375904000014998,5.375904000014998,0.0,0.0,2.363648212931164,0.0,0.0,0.21809592,0.16959528,9.80550702,0.001569,-0.006607,-0.107413
5.395889000035822,5.395889000035822,0.0,0.0,2.3612107270257336,0.0,0.0,0.23830452,0.1679472,9.78305193,-0.001568,-0.003845,-0.13395
5.435859000077471,5.435859000077471,0.0,0.0,2.3561331507792422,0.0,0.0,0.14309847,0.07304526,9.7582032,-0.003311,-0.010556,-0.20538
5.45584399998188,5.45584399998188,0.0,0.0,2.3520485391075887,0.0,0.0,0.11855385,0.08547453,9.6856092,0.002526,0.007681,-0.210392
5.45584399998188,5.45584399998188,0.0,0.0,2.3501211943396623,0.0,0.0,0.11855385,0.08547453,9.6856092,0.002526,0.007681,-0.210392
5.495813000015914,5.495813000015914,0.0,0.0,2.3442508101306334,0.0,0.0,0.15387966,0.15522363,9.73920123,0.008081,0.008576,-0.189748
5.495813000015914,5.495813000015914,0.0,0.0,2.3431258915424706,0.0,0.0,0.15387966,0.15522363,9.73920123,0.008081,0.008576,-0.189748
5.535783000057563,5.535783000057563,0.0,0.0,2.338531171874587,0.0,0.0,0.0480493799999999,0.21735036,9.68979807,0.003535,0.004855,-0.097855
5.555768000078388,5.555768000078388,0.0,0.0,2.3377998475397206,0.0,0.0,-0.09415638,0.14235291,9.7929306,0.004368,0.003509,-0.027774
5.575752999982797,5.575752999982797,0.0,0.0,2.338381686993527,0.0,0.0,0.06615864,0.09864936,9.80311338,0.000839,-0.003511,0.043975
5.595738000003621,5.595738000003621,0.0,0.0,2.339120540688077,0.0,0.0,0.13367106,0.13457358,9.73619937,0.000152,-0.001637,0.051087
5.595738000003621,5.595738000003621,0.0,0.0,2.3410549996338723,0.0,0.0,0.13367106,0.13457358,9.73619937,0.000152,-0.001637,0.051087
5.635707000037655,5.635707000037655,0.0,0.0,2.340327229994333,0.0,0.0,0.21061089,0.22632651,9.74308599,-0.002061,-0.004789,0.029526
5.65569200005848,5.65569200005848,0.0,0.0,2.340392962619961,0.0,0.0,0.14325543,0.23201631,9.72064071,0.001352,-0.005803,0.009372
5.675677000079304,5.675677000079304,0.0,0.0,2.3403743840350337,0.0,0.0,0.10807677,0.25042968,9.75536811,0.001829,-0.001168,0.003782
5.695661999983713,5.695661999983713,0.0,0.0,2.340367154096276,0.0,0.0,0.25552107,0.34069149,9.73979964,0.001829,-0.001168,0.003782
5.695661999983713,5.695661999983713,0.0,0.0,2.3408459961416472,0.0,0.0,0.25552107,0.34069149,9.73979964,0.001829,-0.001168,0.003782
5.735631000017747,5.735631000017747,0.0,0.0,2.340523092139998,0.0,0.0,0.10792962,0.25312743,9.77960862,-0.000179,-0.000442,0.011476
5.755616000038572,5.755616000038572,0.0,0.0,2.340785121496845,0.0,0.0,0.14519781,0.29608542,9.73380573,0.002409,-0.004116,0.017593
5.775601000059396,5.775601000059396,0.0,0.0,2.3413589121154406,0.0,0.0,0.1329255,0.27018702,9.74174202,0.001751,-0.003311,0.034741
5.79558600008022,5.79558600008022,0.0,0.0,2.342166141694861,0.0,0.0,0.08038314,0.1959449399999999,9.77826465,0.000176,0.001921,0.047197
5.8155709999846295,5.8155709999846295,0.0,0.0,2.3431404852063746,0.0,0.0,0.10088604,0.17887554,9.78859458,-0.003071,0.002721,0.055755
5.835556000005454,5.835556000005454,0.0,0.0,2.344095688176142,0.0,0.0,0.23052519,0.27003987,9.7926363,-0.00436,0.000397,0.053624
5.855541000026278,5.855541000026278,0.0,0.0,2.344887779087629,0.0,0.0,0.1679472,0.36329373,9.66929517,-0.000636,-6.2e-05,0.043414
5.875525000039488,5.875525000039488,0.0,0.0,2.345425221411219,0.0,0.0,0.21869433,0.34219242,9.6448977,0.003675,-0.000945,0.028252
5.8955100000603124,5.8955100000603124,0.0,0.0,2.345578593662008,0.0,0.0,0.20866851,0.2576106,9.77273181,0.004471,0.010317,0.006011
5.915495000081137,5.915495000081137,0.0,0.0,2.345528820990747,0.0,0.0,0.12993345,0.30117681,9.80700795,0.005518,0.003894,-0.005405
5.935479999985546,5.935479999985546,0.0,0.0,2.345626461032242,0.0,0.0,0.17767872,0.32377905,9.8387433,0.001288,0.004777,0.003495
5.95546500000637,5.95546500000637,0.0,0.0,2.3458374142228706,0.0,0.0,0.14086179,0.29623257,9.8652303,0.001393,-0.001852,0.010213
5.975450000027195,5.975450000027195,0.0,0.0,2.345978237494326,0.0,0.0,0.15223158,0.29637972,9.80655669,0.003312,0.000253,0.006233
5.995435000048019,5.995435000048019,0.0,0.0,2.3460330841417987,0.0,0.0,0.16031502,0.29683098,9.78261048,0.001912,-1.2e-05,0.001411
6.015419000061229,6.015419000061229,0.0,0.0,2.3461155562845804,0.0,0.0,0.15433092,0.29159244,9.79248915,0.003078,-0.002453,0.0032
6.035404000082053,6.035404000082053,0.0,0.0,2.346245318972585,0.0,0.0,0.14474655,0.3005784,9.77422293,1e-05,-0.000659,0.006059
6.035404000082053,6.035404000082053,0.0,0.0,2.3462008815828606,0.0,0.0,0.14474655,0.3005784,9.77422293,1e-05,-0.000659,0.006059
6.035404000082053,6.035404000082053,0.0,0.0,2.3461657141531997,0.0,0.0,0.14474655,0.3005784,9.77422293,1e-05,-0.000659,0.006059
6.115344000048935,6.115344000048935,0.0,0.0,2.346759165830708,0.0,0.0,0.15133887,0.27317907,9.76195062,0.002668,-0.001071,0.004385
6.13532900006976,6.13532900006976,0.0,0.0,2.3468497745449284,0.0,0.0,0.14923953,0.29503575,9.749227050000002,0.001334,0.000559,0.00428
6.15531300008297,6.15531300008297,0.0,0.0,2.3469488040793003,0.0,0.0,0.16151184,0.29278926,9.76823883,0.001615,-0.003433,0.004759
6.15531300008297,6.15531300008297,0.0,0.0,2.3469150490511517,0.0,0.0,0.16151184,0.29278926,9.76823883,0.001615,-0.003433,0.004759
6.195283000008203,6.195283000008203,0.0,0.0,2.3471451206672267,0.0,0.0,0.15732297,0.28725642,9.75955698,0.002842,-0.000872,0.004743
6.2152680000290275,6.2152680000290275,0.0,0.0,2.3472454754272523,0.0,0.0,0.14414814,0.27348318,9.764795520000002,0.001409,-0.001352,0.004879
6.2152680000290275,6.2152680000290275,0.0,0.0,2.347225736351924,0.0,0.0,0.14414814,0.27348318,9.764795520000002,0.001409,-0.001352,0.004879
6.2152680000290275,6.2152680000290275,0.0,0.0,2.347210313427434,0.0,0.0,0.14414814,0.27348318,9.764795520000002,0.001409,-0.001352,0.004879
6.275222000083886,6.275222000083886,0.0,0.0,2.347530276956605,0.0,0.0,0.15358536,0.25356888,9.77946147,0.002075,-1.2e-05,0.004096
6.295206999988295,6.295206999988295,0.0,0.0,2.3476114696019668,0.0,0.0,0.14639463,0.26989272,9.74967831,0.002541,-0.001309,0.003858
6.3151920000091195,6.3151920000091195,0.0,0.0,2.347712653748273,0.0,0.0,0.16002072,0.26121087,9.755064,0.004413,-0.003247,0.005024
6.335177000029944,6.335177000029944,0.0,0.0,2.347826089828457,0.0,0.0,0.14490351,0.24608385,9.79607961,0.002434,0.001264,0.005726
6.355162000050768,6.355162000050768,0.0,0.0,2.3479139737180894,0.0,0.0,0.15701886,0.2624076899999999,9.76718916,0.00523,-0.002764,0.004265
6.375147000071593,6.375147000071593,0.0,0.0,2.347993406754089,0.0,0.0,0.16301277,0.27812331,9.7579089,0.002347,0.001366,0.003803
6.395132000092417,6.395132000092417,0.0,0.0,2.348088272897063,0.0,0.0,0.15657741,0.25866027,9.77077962,0.002357,-0.000684,0.004708
6.415115999989212,6.415115999989212,0.0,0.0,2.348134775678023,0.0,0.0,0.15163317,0.25102809,9.75551526,0.003714,-0.001216,0.001953
6.435101000010036,6.435101000010036,0.0,0.0,2.3482107636518164,0.0,0.0,0.15612615,0.28021284,9.752817510000002,0.00122,-0.000528,0.003692
6.45508600003086,6.45508600003086,0.0,0.0,2.3482723976341777,0.0,0.0,0.17244018,0.2689902,9.78290478,0.001105,-0.002478,0.002887
6.475071000051685,6.475071000051685,0.0,0.0,2.34834909324327,0.0,0.0,0.14759145,0.2718351,9.764942670000002,0.001883,0.001172,0.003778
6.495056000072509,6.495056000072509,0.0,0.0,2.3484451327076723,0.0,0.0,0.16361118,0.28814913,9.75207195,0.002729,-0.000362,0.004895
6.515041000093333,6.515041000093333,0.0,0.0,2.3485301685248547,0.0,0.0,0.13801689,0.26001405,9.77692068,0.002078,-0.001211,0.004251
6.5350259999977425,6.5350259999977425,0.0,0.0,2.3485920979445982,0.0,0.0,0.16076628,0.2721294,9.75865446,0.001461,0.001026,0.002926
6.555010000010952,6.555010000010952,0.0,0.0,2.348689797643038,0.0,0.0,0.1534284,0.28650105,9.764491410000002,0.003541,-0.001615,0.005005
6.574995000031777,6.574995000031777,0.0,0.0,2.348790151761225,0.0,0.0,0.14969079,0.26839179,9.76913154,0.001104,0.002974,0.00514
6.594980000052601,6.594980000052601,0.0,0.0,2.348864982953776,0.0,0.0,0.15282999,0.27243351,9.76508982,0.002856,-0.000462,0.003656
6.594980000052601,6.594980000052601,0.0,0.0,2.3488558441407434,0.0,0.0,0.15282999,0.27243351,9.76508982,0.002856,-0.000462,0.003656
6.63495000009425,6.63495000009425,0.0,0.0,2.3490119250785018,0.0,0.0,0.15447807,0.27078543,9.79189074,0.00067,0.001701,0.003544
6.654934999998659,6.654934999998659,0.0,0.0,2.349103003102857,0.0,0.0,0.15373251,0.26808768,9.765246780000002,0.002986,-0.001348,0.004628
6.694905000040308,6.694905000040308,0.0,0.0,2.349222290955998,0.0,0.0,0.15163317,0.26135802,9.77063247,0.0015,-0.000297,0.001723
6.714890000061132,6.714890000061132,0.0,0.0,2.3493190429981503,0.0,0.0,0.16346403,0.2604555,9.76135221,0.003847,-0.002019,0.00489
6.734875000081956,6.734875000081956,0.0,0.0,2.349393598233357,0.0,0.0,0.16375833,0.26284914,9.7894971,0.00097,0.000733,0.003717
6.754859999986365,6.754859999986365,0.0,0.0,2.3494522567462672,0.0,0.0,0.15237873,0.26569404,9.76434426,0.004364,-0.002456,0.002866
6.77484500000719,6.77484500000719,0.0,0.0,2.3495649776306236,0.0,0.0,0.1553805899999999,0.26794053,9.77976558,0.0009,-0.001264,0.005788
6.794830000028014,6.794830000028014,0.0,0.0,2.349656265576189,0.0,0.0,0.1303749,0.26539974,9.77601816,0.001365,-0.002072,0.004613
6.8148150000488386,6.8148150000488386,0.0,0.0,2.3497615506026888,0.0,0.0,0.15373251,0.26884305,9.76988691,0.004021,-0.00057,0.005377
6.834800000069663,6.834800000069663,0.0,0.0,2.3498458686260797,0.0,0.0,0.15822549,0.26779338,9.77392863,0.001136,0.000528,0.004211
6.854784000082873,6.854784000082873,0.0,0.0,2.349928707731234,0.0,0.0,0.13666311,0.2686959,9.77152518,0.003788,-0.002743,0.00413
6.874768999987282,6.874768999987282,0.0,0.0,2.3499858620873457,0.0,0.0,0.15373251,0.28261629,9.74982546,0.002925,0.001531,0.0027
6.894754000008106,6.894754000008106,0.0,0.0,2.3500733921944184,0.0,0.0,0.14414814,0.25416729,9.76659075,0.002815,-0.000961,0.004418
6.914739000028931,6.914739000028931,0.0,0.0,2.3501693165388637,0.0,0.0,0.15268284,0.26704782,9.7490799,0.003451,-0.000869,0.004885
6.934724000049755,6.934724000049755,0.0,0.0,2.350246476216107,0.0,0.0,0.15612615,0.27587682,9.74817738,0.001785,0.000524,0.003817
6.954709000070579,6.954709000070579,0.0,0.0,2.3503348080210973,0.0,0.0,0.15612615,0.26569404,9.76060665,0.003958,-0.002682,0.004454
6.974694000091404,6.974694000091404,0.0,0.0,2.3504229360684628,0.0,0.0,0.13965516,0.25866027,9.76718916,0.002342,0.000932,0.004438
6.994677999988198,6.994677999988198,0.0,0.0,2.350533545226318,0.0,0.0,0.14010642,0.2686959,9.74952135,0.00218,-0.000272,0.005711
7.014663000009023,7.014663000009023,0.0,0.0,2.3506287427312103,0.0,0.0,0.15552774,0.2604555,9.75116943,0.00365,-0.000915,0.00481
7.034648000029847,7.034648000029847,0.0,0.0,2.350688658533274,0.0,0.0,0.14789556,0.26748927,9.76030254,0.001247,0.00043,0.002793
7.054633000050671,7.054633000050671,0.0,0.0,2.3507994125664764,0.0,0.0,0.15328125,0.26748927,9.74683341,0.002825,-0.000123,0.005723
7.074618000071496,7.074618000071496,0.0,0.0,2.3508992052014914,0.0,0.0,0.15956946,0.26150517,9.7841016,0.001996,0.001161,0.005071
7.09460300009232,7.09460300009232,0.0,0.0,2.350958932889675,0.0,0.0,0.15148602,0.25806186,9.75700638,0.003032,-0.000125,0.002768
7.114587999996729,7.114587999996729,0.0,0.0,2.3510406515924887,0.0,0.0,0.15328125,0.28845324,9.7547697,0.005494,-0.00078,0.004059
7.134573000017554,7.134573000017554,0.0,0.0,2.3511294661015105,0.0,0.0,0.14130324,0.26255484,9.78589683,0.001237,0.001425,0.00447
7.1545570000307634,7.1545570000307634,0.0,0.0,2.3511840790837226,0.0,0.0,0.14534496,0.28021284,9.76793472,0.002846,-0.00383,0.002505
7.174542000051588,7.174542000051588,0.0,0.0,2.3512711002947357,0.0,0.0,0.14864112,0.26344755,9.7721334,0.003368,0.000325,0.004398
7.194527000072412,7.194527000072412,0.0,0.0,2.3513487767082815,0.0,0.0,0.14759145,0.27482715,9.7781175,0.001382,-0.000639,0.003855
7.234496999997646,7.234496999997646,0.0,0.0,2.351500213968272,0.0,0.0,0.15522363,0.28096821,9.77781339,0.001292,0.002461,0.00349
7.25448200001847,7.25448200001847,0.0,0.0,2.3515971437355248,0.0,0.0,0.15253569,0.25701219,9.7752726,0.004371,-0.002259,0.00489
7.25448200001847,7.25448200001847,0.0,0.0,2.351610121590298,0.0,0.0,0.15253569,0.25701219,9.7752726,0.004371,-0.002259,0.00489
7.294452000060119,7.294452000060119,0.0,0.0,2.351766426042147,0.0,0.0,0.16346403,0.26389881,9.78814332,0.00243,-0.001094,0.003567
7.314436000073329,7.314436000073329,0.0,0.0,2.351870863435562,0.0,0.0,0.1580685299999999,0.26465418,9.77362452,0.003255,-0.000847,0.005316
7.314436000073329,7.314436000073329,0.0,0.0,2.3518875756573108,0.0,0.0,0.1580685299999999,0.26465418,9.77362452,0.003255,-0.000847,0.005316
7.354405999998562,7.354405999998562,0.0,0.0,2.352076013257328,0.0,0.0,0.16690734,0.27677934,9.76764042,0.002804,-0.002045,0.005078
7.374391000019386,7.374391000019386,0.0,0.0,2.352136937414251,0.0,0.0,0.15358536,0.25536411,9.77377167,0.002115,-0.001156,0.002894
7.394376000040211,7.394376000040211,0.0,0.0,2.3521932198466198,0.0,0.0,0.15462522,0.26779338,9.78455286,0.002437,-8.3e-05,0.002653
7.414361000061035,7.414361000061035,0.0,0.0,2.352282599627067,0.0,0.0,0.15672456,0.26195643,9.75551526,0.003408,-0.002976,0.00452
7.4343460000818595,7.4343460000818595,0.0,0.0,2.352391207199263,0.0,0.0,0.15193728,0.27513126,9.77976558,0.001992,0.000243,0.005592
7.454330999986269,7.454330999986269,0.0,0.0,2.3524541069889136,0.0,0.0,0.15253569,0.27872172,9.75312162,0.002319,-0.001058,0.003002
7.474316000007093,7.474316000007093,0.0,0.0,2.3525493531627495,0.0,0.0,0.14505066,0.26689086,9.76539393,0.002893,-0.000466,0.004845
7.494300000020303,7.494300000020303,0.0,0.0,2.3526444765037224,0.0,0.0,0.14878827,0.27812331,9.74458692,0.002596,-0.000734,0.004828
7.514285000041127,7.514285000041127,0.0,0.0,2.352741315891228,0.0,0.0,0.16016787,0.27482715,9.77347737,0.004514,0.000138,0.004916
7.534270000061952,7.534270000061952,0.0,0.0,2.352815666201158,0.0,0.0,0.15567489,0.25671789,9.77182929,0.000921,0.001212,0.003629
7.554255000082776,7.554255000082776,0.0,0.0,2.3529054356099888,0.0,0.0,0.14759145,0.27572967,9.74832453,0.004262,-0.001001,0.004519
7.574239999987185,7.574239999987185,0.0,0.0,2.3530059908336654,0.0,0.0,0.16211025,0.27153099,9.77797035,0.002105,0.000893,0.00513
7.594225000008009,7.594225000008009,0.0,0.0,2.353093754099941,0.0,0.0,0.13711437,0.26525259,9.7664436,0.001973,1.4e-05,0.004386
7.614210000028834,7.614210000028834,0.0,0.0,2.3531761493446393,0.0,0.0,0.15956946,0.27722079,9.755064,0.004779,-0.001434,0.00408
7.634195000049658,7.634195000049658,0.0,0.0,2.3532784511637512,0.0,0.0,0.15687171,0.26629245,9.78829047,0.001355,0.000804,0.005225
7.654179000062868,7.654179000062868,0.0,0.0,2.3533659978068746,0.0,0.0,0.15148602,0.28515708,9.76120506,0.003736,-0.00086,0.004365
7.674164000083692,7.674164000083692,0.0,0.0,2.353461884082952,0.0,0.0,0.1505835,0.26539974,9.76030254,0.002805,1e-05,0.004845
7.694148999988101,7.694148999988101,0.0,0.0,2.3535484225734358,0.0,0.0,0.15971661,0.26494848,9.78769206,0.000714,-0.002235,0.004302
7.714134000008926,7.714134000008926,0.0,0.0,2.353618195600996,0.0,0.0,0.15268284,0.27932013,9.75880161,0.003599,-0.001559,0.003344
7.73411900002975,7.73411900002975,0.0,0.0,2.3536895930696744,0.0,0.0,0.15582204,0.26958861,9.76090095,0.003699,0.001752,0.003459
7.7541040000505745,7.7541040000505745,0.0,0.0,2.353746040775861,0.0,0.0,0.14759145,0.26554689,9.78649524,0.002032,-0.001368,0.002617
7.774089000071399,7.774089000071399,0.0,0.0,2.3538324548158425,0.0,0.0,0.1505835,0.26480133,9.75850731,0.003064,0.000386,0.00437
7.794074000092223,7.794074000092223,0.0,0.0,2.3539138221628724,0.0,0.0,0.14579622,0.27437589,9.764942670000002,0.002758,0.000516,0.004073
7.834043000009842,7.834043000009842,0.0,0.0,2.3540897415898536,0.0,0.0,0.1553805899999999,0.27258066,9.76195062,0.002251,0.000536,0.004763
7.854028000030667,7.854028000030667,0.0,0.0,2.354157440933607,0.0,0.0,0.15642045,0.27018702,9.755064,0.003687,-0.00016,0.003351
7.854028000030667,7.854028000030667,0.0,0.0,2.3541457835740385,0.0,0.0,0.15642045,0.27018702,9.755064,0.003687,-0.00016,0.003351
7.893998000072315,7.893998000072315,0.0,0.0,2.3543085338779015,0.0,0.0,0.14354973,0.28141947,9.75521115,0.001886,-0.000802,0.004198
7.91398300009314,7.91398300009314,0.0,0.0,2.3544219732214415,0.0,0.0,0.15732297,0.27108954,9.77646942,0.003731,-0.00062,0.005814
7.933967999997549,7.933967999997549,0.0,0.0,2.354494622333066,0.0,0.0,0.14878827,0.26195643,9.77152518,0.003335,0.000908,0.00358
7.953953000018373,7.953953000018373,0.0,0.0,2.3545761507958236,0.0,0.0,0.16361118,0.2863539,9.75836016,0.003247,-0.000563,0.004072
7.9739380000391975,7.9739380000391975,0.0,0.0,2.3546612156471305,0.0,0.0,0.14878827,0.26734212,9.77632227,0.003857,-0.000264,0.004268
7.993922000052407,7.993922000052407,0.0,0.0,2.3547343371169367,0.0,0.0,0.15387966,0.27138384,9.78934014,-8.4e-05,0.000233,0.003604
8.013907000073232,8.013907000073232,0.0,0.0,2.354816248474469,0.0,0.0,0.16181595,0.26435007,9.77228055,0.004697,-0.00088,0.0041
8.033892000094056,8.033892000094056,0.0,0.0,2.35491055535584,0.0,0.0,0.15118191,0.26958861,9.77976558,0.002374,0.001584,0.004794
8.053876999998465,8.053876999998465,0.0,0.0,2.3550038485190585,0.0,0.0,0.16016787,0.2803698,9.77437008,0.003131,0.000861,0.004728
8.07386200001929,8.07386200001929,0.0,0.0,2.355042076590472,0.0,0.0,0.15986376,0.26989272,9.76464837,0.002038,1.1e-05,0.001616
8.093847000040114,8.093847000040114,0.0,0.0,2.355111221629288,0.0,0.0,0.14998509,0.25956279,9.78529842,0.002207,-0.000254,0.003402
8.113832000060938,8.113832000060938,0.0,0.0,2.3551882432238926,0.0,0.0,0.1534284,0.26944146,9.77467419,0.004611,-0.001474,0.003856
8.133817000081763,8.133817000081763,0.0,0.0,2.3552772600465364,0.0,0.0,0.15492933,0.27317907,9.76224492,0.00306,0.001291,0.004537
8.153801999986172,8.153801999986172,0.0,0.0,2.3553506939147546,0.0,0.0,0.15507648,0.28261629,9.7812567,0.003382,-0.002209,0.003639
8.173785999999382,8.173785999999382,0.0,0.0,2.3554593391092427,0.0,0.0,0.16930098,0.27841761,9.77587101,0.001746,0.000966,0.005651
8.193771000020206,8.193771000020206,0.0,0.0,2.35555237913315,0.0,0.0,0.14340258,0.28665801,9.7465293,0.002966,0.001072,0.00473
8.21375600004103,8.21375600004103,0.0,0.0,2.355642944278821,0.0,0.0,0.16211025,0.26958861,9.77228055,0.004862,-0.001563,0.004578
8.233741000061855,8.233741000061855,0.0,0.0,2.3557106048488503,0.0,0.0,0.1477386,0.26674371,9.79997418,0.002256,0.00131,0.003261
8.253726000082679,8.253726000082679,0.0,0.0,2.3557899660913755,0.0,0.0,0.1534284,0.2775249,9.74353725,0.002173,-0.000689,0.003949
8.273710999987088,8.273710999987088,0.0,0.0,2.355867770900696,0.0,0.0,0.16121754,0.28515708,9.76149936,0.004137,8.3e-05,0.003863
8.293696000007913,8.293696000007913,0.0,0.0,2.355944609642373,0.0,0.0,0.16121754,0.27093258,9.76913154,0.001054,0.000443,0.003812
8.313681000028737,8.313681000028737,0.0,0.0,2.356025999455343,0.0,0.0,0.15178032,0.27872172,9.74832453,0.002909,-0.002136,0.004078
8.333666000049561,8.333666000049561,0.0,0.0,2.356151673501337,0.0,0.0,0.15148602,0.28216503,9.75386718,0.003608,0.000899,0.00662
8.353650000062771,8.353650000062771,0.0,0.0,2.3562258716118727,0.0,0.0,0.13950801,0.26195643,9.77257485,0.002101,9e-06,0.003614
8.373635000083596,8.373635000083596,0.0,0.0,2.356303855259137,0.0,0.0,0.16330707,0.2689902,9.76254903,0.002939,-0.000279,0.003846
8.393619999988005,8.393619999988005,0.0,0.0,2.3564022876947774,0.0,0.0,0.14086179,0.27857457,9.75985128,0.002538,0.001398,0.00503
8.413605000008829,8.413605000008829,0.0,0.0,2.3564828211691724,0.0,0.0,0.15701886,0.25806186,9.77886306,0.003231,-0.001226,0.003985
8.453575000050478,8.453575000050478,0.0,0.0,2.3566530792929985,0.0,0.0,0.15328125,0.27827046,9.7812567,0.002835,-0.001314,0.004234
8.473560000071302,8.473560000071302,0.0,0.0,2.3567394515688234,0.0,0.0,0.16406244,0.26135802,9.79398027,0.004335,-0.000352,0.004324
8.493545000092126,8.493545000092126,0.0,0.0,2.3567950300342595,0.0,0.0,0.15268284,0.26853894,9.7866522,0.001167,-0.000796,0.002692
8.513529999996535,8.513529999996535,0.0,0.0,2.356890009349261,0.0,0.0,0.14729715,0.28620675,9.77003406,0.005697,-0.000852,0.004801
8.533514000009745,8.533514000009745,0.0,0.0,2.3569394765423066,0.0,0.0,0.14849397,0.27722079,9.78874173,0.000536,5e-05,0.002341
8.55349900003057,8.55349900003057,0.0,0.0,2.357041186003263,0.0,0.0,0.16540641,0.27363033,9.76554108,0.001737,-0.001288,0.005193
8.573484000051394,8.573484000051394,0.0,0.0,2.357117029314054,0.0,0.0,0.14025357,0.2661453,9.80565417,0.002726,-0.000839,0.003767
8.593469000072218,8.593469000072218,0.0,0.0,2.3571697023150033,0.0,0.0,0.13921371,0.27572967,9.76898439,0.002143,-0.00012,0.002491
8.593469000072218,8.593469000072218,0.0,0.0,2.3571481926217803,0.0,0.0,0.13921371,0.27572967,9.76898439,0.002143,-0.00012,0.002491
8.633438999997452,8.633438999997452,0.0,0.0,2.357307247428883,0.0,0.0,0.14909238,0.26719497,9.76988691,0.001939,0.000359,0.004352
8.653424000018276,8.653424000018276,0.0,0.0,2.357410402634586,0.0,0.0,0.15074046,0.26748927,9.7667379,0.002774,-0.001086,0.005331
8.6734090000391,8.6734090000391,0.0,0.0,2.357502254214351,0.0,0.0,0.16286562,0.26569404,9.76284333,0.00257,0.000369,0.004673
8.693394000059925,8.693394000059925,0.0,0.0,2.3575937340599857,0.0,0.0,0.15492933,0.26958861,9.76793472,0.000839,0.000646,0.004642
8.713378000073135,8.713378000073135,0.0,0.0,2.3576667896950596,0.0,0.0,0.14190165,0.2863539,9.74607804,0.004071,-0.000126,0.003591
8.73336300009396,8.73336300009396,0.0,0.0,2.3577438039957155,0.0,0.0,0.15567489,0.26360451,9.77182929,0.002498,0.001614,0.003824
8.753347999998368,8.753347999998368,0.0,0.0,2.357836830587292,0.0,0.0,0.1502892,0.26884305,9.7695828,0.003515,4.9e-05,0.004738
8.773333000019193,8.773333000019193,0.0,0.0,2.3579510860340704,0.0,0.0,0.15462522,0.26180928,9.75776175,0.004365,0.000269,0.005935
8.793318000040017,8.793318000040017,0.0,0.0,2.358017554855664,0.0,0.0,0.14534496,0.2749743,9.77751909,0.003243,0.001231,0.00318
8.813303000060841,8.813303000060841,0.0,0.0,2.3580990239322848,0.0,0.0,0.14400099,0.27063828,9.75985128,0.005267,-0.000818,0.004057
8.833288000081666,8.833288000081666,0.0,0.0,2.3582080865839483,0.0,0.0,0.15178032,0.27767205,9.7607538,0.000588,0.001538,0.005637
8.853272999986075,8.853272999986075,0.0,0.0,2.358284831528211,0.0,0.0,0.15088761,0.26150517,9.77991273,0.00379,-0.000891,0.003762
8.8732580000069,8.8732580000069,0.0,0.0,2.3583717858106183,0.0,0.0,0.14759145,0.26913735,9.77737194,0.004816,0.000435,0.004358
8.89324200002011,8.89324200002011,0.0,0.0,2.35847382771313,0.0,0.0,0.14818986,0.28470582,9.77721498,0.002702,0.000731,0.005222
8.913227000040933,8.913227000040933,0.0,0.0,2.3585381793722924,0.0,0.0,0.14759145,0.26659656,9.80101404,0.004067,0.0001,0.003043
8.933212000061758,8.933212000061758,0.0,0.0,2.3586153024253598,0.0,0.0,0.15387966,0.28081125,9.7841016,0.003458,0.001617,0.003802
8.953197000082582,8.953197000082582,0.0,0.0,2.358697990850728,0.0,0.0,0.16002072,0.26853894,9.77377167,0.001722,-0.002418,0.00413
8.993167000007816,8.993167000007816,0.0,0.0,2.3588771027652644,0.0,0.0,0.16076628,0.26629245,9.78485697,0.001505,0.000394,0.004801
9.01315200002864,9.01315200002864,0.0,0.0,2.359000611150085,0.0,0.0,0.15133887,0.27018702,9.77123088,0.003409,-0.002809,0.006268
9.033137000049464,9.033137000049464,0.0,0.0,2.359107299832039,0.0,0.0,0.15133887,0.26449722,9.77512545,0.001991,-0.000286,0.005384
9.053122000070289,9.053122000070289,0.0,0.0,2.359195006826008,0.0,0.0,0.13921371,0.28021284,9.77302611,0.002275,-0.003241,0.004369
9.053122000070289,9.053122000070289,0.0,0.0,2.359190708466434,0.0,0.0,0.13921371,0.28021284,9.77302611,0.002275,-0.003241,0.004369
9.093090999987908,9.093090999987908,0.0,0.0,2.359353623923,0.0,0.0,0.15178032,0.25686504,9.7635987,0.002061,0.001139,0.003458
9.113076000008732,9.113076000008732,0.0,0.0,2.359414673243964,0.0,0.0,0.1474443,0.2803698,9.75716334,0.005753,-0.000215,0.002919
9.133061000029556,9.133061000029556,0.0,0.0,2.359460192969923,0.0,0.0,0.14070483,0.26989272,9.78769206,0.003729,0.000667,0.002074
9.15304600005038,9.15304600005038,0.0,0.0,2.3595492865410623,0.0,0.0,0.15701886,0.26884305,9.78245352,0.002903,-0.000635,0.004515
9.173031000071205,9.173031000071205,0.0,0.0,2.3596509878223646,0.0,0.0,0.14100894,0.26554689,9.76913154,0.004767,0.000171,0.005212
9.19301600009203,9.19301600009203,0.0,0.0,2.3597211631695103,0.0,0.0,0.16165899,0.26808768,9.77347737,0.000585,-0.000418,0.003432
9.213000999996439,9.213000999996439,0.0,0.0,2.359805703419674,0.0,0.0,0.13981212,0.2484873,9.78889869,0.003978,-0.000238,0.004249
9.232986000017263,9.232986000017263,0.0,0.0,2.3598902499706753,0.0,0.0,0.15223158,0.26210358,9.77392863,0.002518,0.000931,0.004247
9.252971000038087,9.252971000038087,0.0,0.0,2.35999644855462,0.0,0.0,0.14983794,0.27602397,9.77032836,0.003116,0.000258,0.005469
9.272955000051297,9.272955000051297,0.0,0.0,2.3600882167533044,0.0,0.0,0.16406244,0.27198225,9.78904584,0.003572,-0.000275,0.004631
9.292940000072122,9.292940000072122,0.0,0.0,2.3601835148390222,0.0,0.0,0.14699304,0.26315325,9.78335604,0.000595,-0.000325,0.004826
9.312925000092946,9.312925000092946,0.0,0.0,2.36025882793283,0.0,0.0,0.15552774,0.28111536,9.78036399,0.004492,-0.001904,0.003681
9.332909999997355,9.332909999997355,0.0,0.0,2.3603488249037543,0.0,0.0,0.14789556,0.27453285,9.78709365,0.002898,0.000399,0.00453
9.35289500001818,9.35289500001818,0.0,0.0,2.360429724168325,0.0,0.0,0.15402681,0.27123669,9.77048532,0.001616,-0.000981,0.004007
9.372880000039004,9.372880000039004,0.0,0.0,2.3604962772479743,0.0,0.0,0.16450389,0.27857457,9.77572386,0.004086,-0.000985,0.003193
9.392865000059828,9.392865000059828,0.0,0.0,2.3605728703986832,0.0,0.0,0.1562733,0.26719497,9.78545538,0.001089,0.001379,0.003787
9.412850000080653,9.412850000080653,0.0,0.0,2.360689200770346,0.0,0.0,0.1477386,0.26449722,9.77168214,0.002516,-0.003505,0.006069
9.432834999985062,9.432834999985062,0.0,0.0,2.360750008711535,0.0,0.0,0.14714019,0.26764623,9.76404996,0.002581,-0.000585,0.002851
9.452818999998271,9.452818999998271,0.0,0.0,2.360833009097476,0.0,0.0,0.14550192,0.27078543,9.78515127,0.003491,-0.000598,0.004152
9.472804000019096,9.472804000019096,0.0,0.0,2.3609311180607104,0.0,0.0,0.15552774,0.26375166,9.78560253,0.003015,-0.001315,0.005019
9.49278900003992,9.49278900003992,0.0,0.0,2.3609950257758525,0.0,0.0,0.15043635,0.27602397,9.74428281,0.003547,0.001597,0.003039
9.512774000060745,9.512774000060745,0.0,0.0,2.361086289392646,0.0,0.0,0.15328125,0.26494848,9.78545538,0.001731,-0.000624,0.004634
9.552743999985978,9.552743999985978,0.0,0.0,2.3612716561510494,0.0,0.0,0.16121754,0.27692649,9.7348554,0.002615,0.001113,0.005125
9.572729000006802,9.572729000006802,0.0,0.0,2.3613475813622102,0.0,0.0,0.16390548,0.27886887,9.77407578,0.004142,-0.000176,0.003775
9.592714000027627,9.592714000027627,0.0,0.0,2.361442683760213,0.0,0.0,0.1386153,0.26360451,9.77152518,0.001222,0.002517,0.004789
9.612699000048451,9.612699000048451,0.0,0.0,2.361526773597139,0.0,0.0,0.1534284,0.27587682,9.76628664,0.003946,-0.00088,0.0042
9.632684000069275,9.632684000069275,0.0,0.0,2.3616049331869453,0.0,0.0,0.16165899,0.28470582,9.76464837,0.00536,0.001668,0.00388
9.632684000069275,9.632684000069275,0.0,0.0,2.361598999813925,0.0,0.0,0.16165899,0.28470582,9.76464837,0.00536,0.001668,0.00388
9.672652999986894,9.672652999986894,0.0,0.0,2.3617801526589695,0.0,0.0,0.15956946,0.28231218,9.77661657,0.002913,-0.001709,0.00493
9.692638000007719,9.692638000007719,0.0,0.0,2.3618594890243845,0.0,0.0,0.15163317,0.28201788,9.75207195,0.003439,0.001465,0.003935
9.712623000028543,9.712623000028543,0.0,0.0,2.36197467959078,0.0,0.0,0.14205861,0.25521696,9.79697232,0.004832,-0.001407,0.005931
9.732608000049368,9.732608000049368,0.0,0.0,2.362058546662581,0.0,0.0,0.1591182,0.2573163,9.79024266,0.002618,5.3e-05,0.004164
9.752593000070192,9.752593000070192,0.0,0.0,2.3621323503939013,0.0,0.0,0.1583726399999999,0.28381311,9.7490799,0.001138,0.001322,0.003604
9.772578000091016,9.772578000091016,0.0,0.0,2.362217700039542,0.0,0.0,0.16091343,0.27018702,9.7866522,0.004706,-0.001964,0.004264
9.792562999995425,9.792562999995425,0.0,0.0,2.3622865791019088,0.0,0.0,0.15223158,0.25791471,9.79997418,0.001687,0.001473,0.003336
9.81254800001625,9.81254800001625,0.0,0.0,2.3623716696920702,0.0,0.0,0.15701886,0.27647523,9.77347737,0.003314,-0.000331,0.004267
9.83253200002946,9.83253200002946,0.0,0.0,2.362464381592739,0.0,0.0,0.15088761,0.27482715,9.78889869,0.003288,-0.000166,0.004698
9.852517000050284,9.852517000050284,0.0,0.0,2.362544842693861,0.0,0.0,0.16375833,0.26748927,9.80101404,0.001684,0.000737,0.003994
9.872502000071108,9.872502000071108,0.0,0.0,2.3626303228287604,0.0,0.0,0.14954364,0.265851,9.77092677,0.004043,-0.002901,0.004284
9.872502000071108,9.872502000071108,0.0,0.0,2.3626310803143005,0.0,0.0,0.14954364,0.265851,9.77092677,0.004043,-0.002901,0.004284
9.912471999996342,9.912471999996342,0.0,0.0,2.3628014633503813,0.0,0.0,0.15462522,0.2630061,9.78934014,0.003275,-0.002723,0.004291
9.932457000017166,9.932457000017166,0.0,0.0,2.362885224736967,0.0,0.0,0.1580685299999999,0.28336185,9.76584519,0.004124,0.000249,0.004183
9.95244200003799,9.95244200003799,0.0,0.0,2.36296844117072,0.0,0.0,0.14923953,0.27377748,9.76733631,0.001854,0.000818,0.004153
9.972427000058815,9.972427000058815,0.0,0.0,2.36304606740366,0.0,0.0,0.14983794,0.26748927,9.77152518,0.004864,-0.001498,0.003834
9.99241200007964,9.99241200007964,0.0,0.0,2.363115145176603,0.0,0.0,0.14490351,0.27228636,9.75776175,0.002303,0.001922,0.003351
10.012396999984048,10.012396999984048,0.0,0.0,2.3632055307808972,0.0,0.0,0.15462522,0.27363033,9.77751909,0.004631,-0.00274,0.00459
10.032380999997258,10.032380999997258,0.0,0.0,2.3632846125905003,0.0,0.0,0.15717582,0.28530423,9.76374585,0.002517,0.001092,0.003931
10.052366000018083,10.052366000018083,0.0,0.0,2.3633643960497697,0.0,0.0,0.15074046,0.25416729,9.77856876,0.002415,0.000928,0.003975
10.072351000038907,10.072351000038907,0.0,0.0,2.3634292227957046,0.0,0.0,0.14429529,0.26121087,9.77512545,0.003651,-0.003068,0.003118
10.092336000059731,10.092336000059731,0.0,0.0,2.3634871294402755,0.0,0.0,0.14610033,0.28096821,9.74772612,0.001999,0.000897,0.002739
10.112321000080556,10.112321000080556,0.0,0.0,2.3635716817978842,0.0,0.0,0.1474443,0.26644941,9.77601816,0.005092,-0.001617,0.004295
10.132305999984965,10.132305999984965,0.0,0.0,2.363629836613475,0.0,0.0,0.15118191,0.26704782,9.79457868,0.003798,-8.3e-05,0.002767
10.172276000026613,10.172276000026613,0.0,0.0,2.363798050897822,0.0,0.0,0.15552774,0.27333603,9.76434426,0.004508,-0.001396,0.004729
10.192261000047438,10.192261000047438,0.0,0.0,2.363866097327592,0.0,0.0,0.16256151,0.25940583,9.80296623,0.001182,0.001205,0.003383
10.192261000047438,10.192261000047438,0.0,0.0,2.363859144872805,0.0,0.0,0.16256151,0.25940583,9.80296623,0.001182,0.001205,0.003383
10.232230000081472,10.232230000081472,0.0,0.0,2.3640441312968,0.0,0.0,0.1580685299999999,0.27677934,9.77018121,0.003414,-0.000481,0.005638
10.252214999985881,10.252214999985881,0.0,0.0,2.3641178331505808,0.0,0.0,0.14295132,0.2686959,9.78919299,0.002817,-0.001047,0.003661
10.272200000006706,10.272200000006706,0.0,0.0,2.3642085876149297,0.0,0.0,0.14115609,0.27018702,9.78919299,0.004241,-0.001541,0.004593
10.29218500002753,10.29218500002753,0.0,0.0,2.3642847769007442,0.0,0.0,0.15328125,0.26913735,9.76913154,0.002321,0.002403,0.003789
10.312170000048354,10.312170000048354,0.0,0.0,2.3643644756625566,0.0,0.0,0.17214588,0.27243351,9.76149936,0.003649,-0.000368,0.003985
10.332155000069179,10.332155000069179,0.0,0.0,2.364465368531919,0.0,0.0,0.15418377,0.26599815,9.78440571,0.00286,0.000664,0.005162
10.352140000090003,10.352140000090003,0.0,0.0,2.364554417317432,0.0,0.0,0.14325543,0.27138384,9.7695828,0.001951,0.001229,0.004489
10.372124999994412,10.372124999994412,0.0,0.0,2.364668497276698,0.0,0.0,0.14579622,0.27662238,9.78515127,0.005411,-0.002006,0.005887
10.392110000015236,10.392110000015236,0.0,0.0,2.364774027889024,0.0,0.0,0.15717582,0.26375166,9.78529842,0.00285,0.001478,0.005385
10.412094000028446,10.412094000028446,0.0,0.0,2.3648376081048,0.0,0.0,0.13816404,0.25851312,9.76508982,0.003801,-0.002162,0.003007
10.43207900004927,10.43207900004927,0.0,0.0,2.364940115128128,0.0,0.0,0.14309847,0.27273762,9.77032836,0.003238,0.000957,0.00523
10.452064000070095,10.452064000070095,0.0,0.0,2.3650356748011623,0.0,0.0,0.15402681,0.2650956299999999,9.79248915,0.001362,0.000177,0.004823
10.47204900009092,10.47204900009092,0.0,0.0,2.3650997460370817,0.0,0.0,0.15701886,0.27018702,9.77407578,0.00372,-0.002839,0.003029
10.492033999995328,10.492033999995328,0.0,0.0,2.3652127926534057,0.0,0.0,0.14833701,0.2806641,9.77257485,0.001978,0.001153,0.00584
10.512019000016153,10.512019000016153,0.0,0.0,2.365291966864966,0.0,0.0,0.14400099,0.27408159,9.77797035,0.004568,-0.001011,0.003884
10.532004000036977,10.532004000036977,0.0,0.0,2.365348086271302,0.0,0.0,0.16930098,0.26748927,9.78320889,0.004487,-0.000714,0.002579
10.551989000057802,10.551989000057802,0.0,0.0,2.365456884682745,0.0,0.0,0.14669874,0.27153099,9.76764042,0.002487,0.000522,0.005622
10.591958999983035,10.591958999983035,0.0,0.0,2.365625620004276,0.0,0.0,0.13636881,0.27123669,9.76659075,0.002785,0.001821,0.004054
10.61194400000386,10.61194400000386,0.0,0.0,2.3656968619418173,0.0,0.0,0.15492933,0.27961443,9.77228055,0.006007,-0.001784,0.003532
10.63192800001707,10.63192800001707,0.0,0.0,2.365780510531147,0.0,0.0,0.15193728,0.25791471,9.78350319,0.004419,-0.000152,0.004184
10.651913000037894,10.651913000037894,0.0,0.0,2.3658512351632837,0.0,0.0,0.13682007,0.26629245,9.75116943,0.002916,0.00045,0.003494
10.671898000058718,10.671898000058718,0.0,0.0,2.3659488606641004,0.0,0.0,0.15253569,0.26629245,9.78170796,0.005503,-0.00088,0.004944
10.691883000079542,10.691883000079542,0.0,0.0,2.3660284773875926,0.0,0.0,0.15193728,0.26420292,9.7929306,0.002864,0.00185,0.003963
10.711867000092752,10.711867000092752,0.0,0.0,2.3661216247833297,0.0,0.0,0.15118191,0.2630061,9.78889869,0.003888,-0.001283,0.004705
10.731851999997161,10.731851999997161,0.0,0.0,2.3662055814551923,0.0,0.0,0.14729715,0.27482715,9.76988691,0.004175,-0.000619,0.004195
10.751837000017986,10.751837000017986,0.0,0.0,2.366301191682105,0.0,0.0,0.15402681,0.26180928,9.79353882,0.002937,6.4e-05,0.004841
10.77182200003881,10.77182200003881,0.0,0.0,2.366385930631754,0.0,0.0,0.14010642,0.27513126,9.79084107,0.004992,-0.00201,0.00423
10.791807000059634,10.791807000059634,0.0,0.0,2.366443497683603,0.0,0.0,0.1588239,0.28051695,9.76269618,0.000835,0.001297,0.002712
10.811792000080459,10.811792000080459,0.0,0.0,2.366515075189314,0.0,0.0,0.16151184,0.25911153,9.7957755,0.002809,-0.002086,0.003518
10.831776000093669,10.831776000093669,0.0,0.0,2.366597733957942,0.0,0.0,0.14564907,0.26344755,9.78141366,0.002371,-0.001806,0.00415
10.851760999998078,10.851760999998078,0.0,0.0,2.3666814897974735,0.0,0.0,0.15582204,0.27632808,9.75805605,0.002211,0.001079,0.00421
10.871746000018902,10.871746000018902,0.0,0.0,2.3667585081020537,0.0,0.0,0.16525926,0.26449722,9.79203789,0.003573,-0.001538,0.003826
10.891731000039726,10.891731000039726,0.0,0.0,2.3668698899385108,0.0,0.0,0.15282999,0.25312743,9.78215922,0.002577,0.002188,0.00578
10.91171600006055,10.91171600006055,0.0,0.0,2.3669395606462444,0.0,0.0,0.1505835,0.26689086,9.7607538,0.003631,0.001041,0.00338
10.931701000081375,10.931701000081375,0.0,0.0,2.36702877629416,0.0,0.0,0.13950801,0.26674371,9.78919299,0.004761,-0.002086,0.004508
10.951685999985784,10.951685999985784,0.0,0.0,2.3670966799031516,0.0,0.0,0.1477386,0.25970994,9.76898439,0.002227,0.002286,0.003286
10.991656000027433,10.991656000027433,0.0,0.0,2.367260219907692,0.0,0.0,0.13801689,0.26674371,9.7724277,0.002231,0.001104,0.004109
10.991656000027433,10.991656000027433,0.0,0.0,2.367260711664069,0.0,0.0,0.13801689,0.26674371,9.7724277,0.002231,0.001104,0.004109
11.031626000069082,11.031626000069082,0.0,0.0,2.3674102371826837,0.0,0.0,0.13801689,0.27513126,9.77362452,0.004531,-0.001172,0.003359
11.051610000082292,11.051610000082292,0.0,0.0,2.3674984186443293,0.0,0.0,0.15297714,0.2630061,9.79189074,0.001603,-0.000777,0.004442
11.0715949999867,11.0715949999867,0.0,0.0,2.3675785341514057,0.0,0.0,0.15074046,0.26734212,9.78036399,0.005205,-0.000257,0.004006
11.091580000007525,11.091580000007525,0.0,0.0,2.367639255899178,0.0,0.0,0.14654178,0.27333603,9.77347737,0.002767,0.001548,0.002952
11.11156500002835,11.11156500002835,0.0,0.0,2.3677344438768477,0.0,0.0,0.16406244,0.26973576,9.79338186,0.003049,-0.001773,0.004845
11.131550000049174,11.131550000049174,0.0,0.0,2.367828797371054,0.0,0.0,0.13981212,0.2601612,9.77512545,0.004417,-0.000175,0.004792
11.151535000069998,11.151535000069998,0.0,0.0,2.3679167390708997,0.0,0.0,0.14474655,0.27602397,9.76749327,0.000158,0.000742,0.00443
11.151535000069998,11.151535000069998,0.0,0.0,2.367920961511743,0.0,0.0,0.14474655,0.27602397,9.76749327,0.000158,0.000742,0.00443
11.191504999995232,11.191504999995232,0.0,0.0,2.3680739915355,0.0,0.0,0.14429529,0.29144529,9.76090095,0.003637,0.00137,0.003372
11.211490000016056,11.211490000016056,0.0,0.0,2.3681464222866495,0.0,0.0,0.14564907,0.26061246,9.7929306,0.003862,-0.001154,0.003567
11.23147500003688,11.23147500003688,0.0,0.0,2.3682501587979905,0.0,0.0,0.15387966,0.26135802,9.7869465,0.004182,-0.001232,0.005341
11.251460000057705,11.251460000057705,0.0,0.0,2.3683477963849313,0.0,0.0,0.15552774,0.26764623,9.76164651,0.002673,0.000283,0.004976
11.271444000070915,11.271444000070915,0.0,0.0,2.3684228367185405,0.0,0.0,0.13711437,0.27288477,9.77886306,0.00546,-0.003332,0.003683
11.291429000091739,11.291429000091739,0.0,0.0,2.368501070549633,0.0,0.0,0.13995927,0.26135802,9.79517709,0.002392,0.000131,0.003874
11.311413999996148,11.311413999996148,0.0,0.0,2.368590540966,0.0,0.0,0.16016787,0.27408159,9.76733631,0.001995,0.000909,0.004519
11.331399000016972,11.331399000016972,0.0,0.0,2.368670323608974,0.0,0.0,0.14280417,0.27572967,9.76793472,0.0048,-0.001453,0.003961
11.351384000037797,11.351384000037797,0.0,0.0,2.3687285466501233,0.0,0.0,0.15163317,0.25836597,9.78649524,0.000786,0.001203,0.002735
11.371369000058621,11.371369000058621,0.0,0.0,2.3688038964704434,0.0,0.0,0.15822549,0.26569404,9.79443153,0.003853,-0.001703,0.003739
11.391354000079446,11.391354000079446,0.0,0.0,2.3689005136927035,0.0,0.0,0.14400099,0.28051695,9.76554108,0.00289,0.001328,0.00496
11.411338999983855,11.411338999983855,0.0,0.0,2.3689845578658044,0.0,0.0,0.15133887,0.2630061,9.79203789,0.003372,0.000458,0.004222
11.431324000004679,11.431324000004679,0.0,0.0,2.36904871479004,0.0,0.0,0.14969079,0.25492266,9.77617512,0.005159,-0.001624,0.00308
11.451309000025503,11.451309000025503,0.0,0.0,2.369119933716198,0.0,0.0,0.15103476,0.27542556,9.77362452,0.003202,0.001686,0.003504
11.471294000046328,11.471294000046328,0.0,0.0,2.369220069251554,0.0,0.0,0.1505835,0.2604555,9.78290478,0.002658,-0.001611,0.005172
11.511264000087976,11.511264000087976,0.0,0.0,2.369402502926447,0.0,0.0,0.15118191,0.27078543,9.78620094,0.002994,0.000242,0.005083
11.531247999984771,11.531247999984771,0.0,0.0,2.3695042331375316,0.0,0.0,0.14669874,0.2686959,9.78230637,0.002461,-0.000992,0.00513
11.551233000005595,11.551233000005595,0.0,0.0,2.3695904726337087,0.0,0.0,0.1474443,0.26030835,9.77632227,0.002792,0.001197,0.004313
11.57121800002642,11.57121800002642,0.0,0.0,2.3696827338127457,0.0,0.0,0.15237873,0.27557271,9.77347737,0.00498,-0.000232,0.004635
11.591203000047244,11.591203000047244,0.0,0.0,2.36977037154211,0.0,0.0,0.14669874,0.25521696,9.7695828,0.003646,0.000747,0.004385
11.611188000068069,11.611188000068069,0.0,0.0,2.369880176550099,0.0,0.0,0.15148602,0.25866027,9.78904584,0.003558,-0.000499,0.005591
11.631173000088893,11.631173000088893,0.0,0.0,2.3699881907418625,0.0,0.0,0.1360647,0.26973576,9.76898439,0.004036,-0.00146,0.005486
11.651157999993302,11.651157999993302,0.0,0.0,2.3700889489666785,0.0,0.0,0.15777423,0.26105391,9.77452704,0.002229,0.001037,0.005079
11.671143000014126,11.671143000014126,0.0,0.0,2.370167442602945,0.0,0.0,0.14864112,0.26719497,9.78290478,0.003375,-0.00027,0.003841
11.69112800003495,11.69112800003495,0.0,0.0,2.3702603835962197,0.0,0.0,0.15088761,0.26973576,9.77587101,0.003447,-0.000285,0.004655
11.711115000071004,11.711115000071004,0.0,0.0,2.370361153165012,0.0,0.0,0.16660323,0.26210358,9.80086689,0.000248,-0.000365,0.005092
11.731100000091828,11.731100000091828,0.0,0.0,2.3704576743043555,0.0,0.0,0.14833701,0.25716915,9.77721498,0.003065,-0.002124,0.004848
11.751084999996237,11.751084999996237,0.0,0.0,2.3705455746915423,0.0,0.0,0.14923953,0.27632808,9.76164651,0.002422,0.000589,0.00436
11.771070000017062,11.771070000017062,0.0,0.0,2.3706181348440456,0.0,0.0,0.16046217,0.26255484,9.78605379,0.004431,-0.002503,0.003498
11.791054000030272,11.791054000030272,0.0,0.0,2.370710931474253,0.0,0.0,0.14909238,0.26255484,9.77228055,0.002973,0.000493,0.004662
11.811039000051096,11.811039000051096,0.0,0.0,2.3708040401665436,0.0,0.0,0.14115609,0.27138384,9.76539393,0.001966,-0.000878,0.004677
11.83102400007192,11.83102400007192,0.0,0.0,2.3708721773116537,0.0,0.0,0.15402681,0.26539974,9.79323471,0.003692,-0.001895,0.003254
11.851009000092745,11.851009000092745,0.0,0.0,2.370950028779715,0.0,0.0,0.16181595,0.26748927,9.77632227,0.003305,0.000426,0.003829
11.870993999997154,11.870993999997154,0.0,0.0,2.3710450305860107,0.0,0.0,0.14893542,0.25940583,9.7695828,0.003325,-0.00087,0.004817
11.890979000017978,11.890979000017978,0.0,0.0,2.3711234580421614,0.0,0.0,0.15777423,0.26944146,9.7692885,0.003269,0.001078,0.003861
11.930949000059627,11.930949000059627,0.0,0.0,2.3712565926326388,0.0,0.0,0.15687171,0.26030835,9.79024266,0.005563,-0.002442,0.002303
11.950934000080451,11.950934000080451,0.0,0.0,2.371340949558043,0.0,0.0,0.15612615,0.26344755,9.768533130000002,0.00201,0.001216,0.00423
11.97091899998486,11.97091899998486,0.0,0.0,2.371414739915447,0.0,0.0,0.15986376,0.2661453,9.75850731,0.003955,-0.001405,0.003673
11.990904000005685,11.990904000005685,0.0,0.0,2.3714726678421076,0.0,0.0,0.15567489,0.26599815,9.7841016,0.004446,0.000573,0.002826
12.01088900002651,12.01088900002651,0.0,0.0,2.3715497107671117,0.0,0.0,0.15447807,0.2573163,9.79113537,0.000804,0.001196,0.003857
12.030874000047334,12.030874000047334,0.0,0.0,2.3716563781408357,0.0,0.0,0.15208443,0.27093258,9.76180347,0.005185,-0.001523,0.005466
12.050859000068158,12.050859000068158,0.0,0.0,2.371723671633273,0.0,0.0,0.14954364,0.25925868,9.7866522,0.002642,0.00038,0.003303
12.070843000081368,12.070843000081368,0.0,0.0,2.3718053015027305,0.0,0.0,0.15492933,0.26105391,9.77991273,0.002302,-0.000507,0.004098
12.090827999985777,12.090827999985777,0.0,0.0,2.3718686491841874,0.0,0.0,0.15193728,0.26225073,9.77063247,0.003704,0.000894,0.003084
12.110813000006601,12.110813000006601,0.0,0.0,2.3719473243971265,0.0,0.0,0.15747012,0.25911153,9.78709365,0.000875,-0.000322,0.003946
12.130798000027426,12.130798000027426,0.0,0.0,2.372045854663928,0.0,0.0,0.15373251,0.25536411,9.77706783,0.004108,-0.000663,0.005055
12.15078300004825,12.15078300004825,0.0,0.0,2.372127503496378,0.0,0.0,0.14833701,0.26554689,9.77137803,0.002123,0.002182,0.004093
12.170768000069074,12.170768000069074,0.0,0.0,2.3722220431138563,0.0,0.0,0.15507648,0.26839179,9.7781175,0.003297,-0.001354,0.004818
12.190753000089899,12.190753000089899,0.0,0.0,2.3722901489610546,0.0,0.0,0.1445994,0.26989272,9.77541975,0.002552,0.000381,0.003314
12.210737999994308,12.210737999994308,0.0,0.0,2.3723496690532135,0.0,0.0,0.14474655,0.27108954,9.7752726,0.002728,-0.000134,0.00284
12.230723000015132,12.230723000015132,0.0,0.0,2.372437867864484,0.0,0.0,0.16241436,0.26764623,9.77766624,0.003079,-0.002086,0.004486
12.250708000035957,12.250708000035957,0.0,0.0,2.3725101144654825,0.0,0.0,0.15297714,0.26689086,9.76793472,0.002287,-0.000936,0.003569
12.27069300005678,12.27069300005678,0.0,0.0,2.3725822498071363,0.0,0.0,0.14849397,0.26360451,9.77302611,0.002287,-0.000936,0.003569
12.290678000077605,12.290678000077605,0.0,0.0,2.3726499391137663,0.0,0.0,0.14490351,0.26929431,9.78395445,0.003608,-0.002295,0.003321
12.310662999982014,12.310662999982014,0.0,0.0,2.372731574535636,0.0,0.0,0.14220576,0.25597233,9.76972995,0.001059,0.000564,0.004127
12.330648000002839,12.330648000002839,0.0,0.0,2.372818001181164,0.0,0.0,0.16121754,0.2721294,9.77032836,0.00471,-0.001795,0.004395
12.350633000023663,12.350633000023663,0.0,0.0,2.372901984602212,0.0,0.0,0.1534284,0.26554689,9.780658290000002,0.00244,0.002604,0.004245
12.370618000044487,12.370618000044487,0.0,0.0,2.3729798627643737,0.0,0.0,0.15133887,0.26659656,9.78589683,0.004042,-0.001507,0.003889
12.390602000057697,12.390602000057697,0.0,0.0,2.3730622339120977,0.0,0.0,0.15268284,0.26704782,9.77706783,0.004448,-0.000658,0.004148
12.410587000078522,12.410587000078522,0.0,0.0,2.3731313084818124,0.0,0.0,0.14954364,0.27393444,9.78934014,0.00216,0.000217,0.003381
12.43057199998293,12.43057199998293,0.0,0.0,2.373194581171102,0.0,0.0,0.16270866,0.26105391,9.7954812,0.004417,-0.000822,0.003059
12.450557000003755,12.450557000003755,0.0,0.0,2.373281011586945,0.0,0.0,0.14519781,0.26344755,9.77781339,0.003257,-0.001524,0.004405
12.490527000045404,12.490527000045404,0.0,0.0,2.373427916866376,0.0,0.0,0.14639463,0.25611948,9.7695828,0.003729,-0.000209,0.003474
12.510512000066228,12.510512000066228,0.0,0.0,2.373510398477819,0.0,0.0,0.16615197,0.26748927,9.77781339,0.002329,0.000254,0.004142
12.530497000087053,12.530497000087053,0.0,0.0,2.373618933268104,0.0,0.0,0.15014205,0.25552107,9.7812567,0.005108,-0.001944,0.005523
12.550481999991462,12.550481999991462,0.0,0.0,2.3736829906427417,0.0,0.0,0.16346403,0.25566822,9.76044969,0.002389,0.000753,0.003144
12.570467000012286,12.570467000012286,0.0,0.0,2.3737750187625766,0.0,0.0,0.15014205,0.27153099,9.79009551,0.003696,0.000353,0.004656
12.59045200003311,12.59045200003311,0.0,0.0,2.3738522521071177,0.0,0.0,0.1534284,0.26764623,9.76180347,0.004958,-6.3e-05,0.003848
12.610437000053935,12.610437000053935,0.0,0.0,2.3739512284119346,0.0,0.0,0.155979,0.26659656,9.80057259,0.002075,3.7e-05,0.005041
12.63042200007476,12.63042200007476,0.0,0.0,2.374051412423361,0.0,0.0,0.15208443,0.27049113,9.765246780000002,0.004656,-0.004322,0.0051
12.650406999979168,12.650406999979168,0.0,0.0,2.374126071757315,0.0,0.0,0.15358536,0.27453285,9.768533130000002,0.003118,0.000696,0.003676
12.670391999999993,12.670391999999993,0.0,0.0,2.3741959165255357,0.0,0.0,0.14624748,0.25237206,9.79502994,0.002282,-0.000182,0.003414
12.690377000020817,12.690377000020817,0.0,0.0,2.374295975367829,0.0,0.0,0.14115609,0.26779338,9.77317326,0.005371,-0.001604,0.005114
12.710361000034027,12.710361000034027,0.0,0.0,2.3743821387617468,0.0,0.0,0.15433092,0.26449722,9.7695828,0.003418,0.000939,0.004321
12.730346000054851,12.730346000054851,0.0,0.0,2.374449926299616,0.0,0.0,0.15043635,0.26853894,9.80326053,0.005515,-0.00318,0.003284
12.750330000068061,12.750330000068061,0.0,0.0,2.3745304715528697,0.0,0.0,0.14414814,0.26135802,9.77661657,0.002773,0.001333,0.004019
12.770315000088885,12.770315000088885,0.0,0.0,2.374605876185786,0.0,0.0,0.15148602,0.27677934,9.77946147,0.004283,-0.000406,0.003729
12.790299999993294,12.790299999993294,0.0,0.0,2.3746822338297306,0.0,0.0,0.15163317,0.25611948,9.78290478,0.003695,-0.001329,0.003789
12.810285000014119,12.810285000014119,0.0,0.0,2.374752978798827,0.0,0.0,0.15971661,0.25820901,9.7784118,0.000251,0.000506,0.003474
12.830270000034943,12.830270000034943,0.0,0.0,2.374834654141484,0.0,0.0,0.15297714,0.26165232,9.78201207,0.005319,-0.00223,0.004106
12.850255000055768,12.850255000055768,0.0,0.0,2.3749071072349803,0.0,0.0,0.14654178,0.2624076899999999,9.79877736,0.001917,-0.000353,0.003577
12.870240000076592,12.870240000076592,0.0,0.0,2.374990780506158,0.0,0.0,0.14669874,0.26944146,9.76749327,0.003065,-0.000554,0.004225
12.890224999981001,12.890224999981001,0.0,0.0,2.3750765420394515,0.0,0.0,0.13936086,0.26090676,9.77826465,0.004512,-0.002662,0.004339
12.910210000001825,12.910210000001825,0.0,0.0,2.3751718891231928,0.0,0.0,0.1505835,0.27063828,9.7838073,0.002222,0.002173,0.004881
12.93019500002265,12.93019500002265,0.0,0.0,2.3752587030593695,0.0,0.0,0.14938668,0.26255484,9.76809168,0.003575,-0.001519,0.004376
12.950180000043474,12.950180000043474,0.0,0.0,2.3753523814426494,0.0,0.0,0.14938668,0.26284914,9.79158663,0.001839,-0.001312,0.004765
12.990150000085123,12.990150000085123,0.0,0.0,2.3755356235231275,0.0,0.0,0.14624748,0.26958861,9.77197644,0.004226,-0.00318,0.004954
13.010134999989532,13.010134999989532,0.0,0.0,2.3756311362598383,0.0,0.0,0.155979,0.27108954,9.7841016,0.002002,0.000465,0.004799
13.030120000010356,13.030120000010356,0.0,0.0,2.375731909631835,0.0,0.0,0.14983794,0.2689902,9.77003406,0.003599,-0.00182,0.005079
13.05010500003118,13.05010500003118,0.0,0.0,2.375829474663626,0.0,0.0,0.15612615,0.27872172,9.763893,0.003541,0.000826,0.004908
13.070090000052005,13.070090000052005,0.0,0.0,2.3759077403819244,0.0,0.0,0.15148602,0.26121087,9.7812567,0.00167,1.7e-05,0.003866
13.09007500007283,13.09007500007283,0.0,0.0,2.3759828145973074,0.0,0.0,0.14833701,0.26150517,9.74473407,0.00568,-0.00158,0.003695
13.110060000093654,13.110060000093654,0.0,0.0,2.376060583868771,0.0,0.0,0.15193728,0.26255484,9.78320889,0.001773,0.002701,0.003847
13.130044999998063,13.130044999998063,0.0,0.0,2.376138284752873,0.0,0.0,0.15567489,0.26659656,9.75551526,0.001773,0.002701,0.003847
13.150029000011273,13.150029000011273,0.0,0.0,2.376214864294359,0.0,0.0,0.14998509,0.28081125,9.75745764,0.003196,0.000171,0.003789
13.170014000032097,13.170014000032097,0.0,0.0,2.3762756960917635,0.0,0.0,0.15478218,0.2633004,9.77467419,0.004179,0.000679,0.002916
13.189999000052921,13.189999000052921,0.0,0.0,2.376370464888316,0.0,0.0,0.15777423,0.25222491,9.78634809,0.004573,-0.001046,0.004829
13.209984000073746,13.209984000073746,0.0,0.0,2.3764485887889535,0.0,0.0,0.14534496,0.2547657,9.7695828,0.002703,0.000327,0.003884
13.22996900009457,13.22996900009457,0.0,0.0,2.3765350528446216,0.0,0.0,0.16136469,0.27003987,9.77317326,0.003535,-0.001316,0.004357
13.24995399999898,13.24995399999898,0.0,0.0,2.3766069854743446,0.0,0.0,0.14969079,0.26001405,9.79173378,0.002294,-1.7e-05,0.003532
13.269939000019804,13.269939000019804,0.0,0.0,2.3766732203352685,0.0,0.0,0.13816404,0.27243351,9.77677353,0.003375,-0.000312,0.003218
13.289924000040628,13.289924000040628,0.0,0.0,2.3767451297015425,0.0,0.0,0.15747012,0.25686504,9.79877736,0.003781,-0.0024,0.003553
13.329894000082277,13.329894000082277,0.0,0.0,2.376923698596695,0.0,0.0,0.15732297,0.26435007,9.79009551,0.004398,-0.002831,0.005079
13.349878999986686,13.349878999986686,0.0,0.0,2.377043476083765,0.0,0.0,0.15986376,0.25536411,9.80521272,0.004474,0.001083,0.006067
13.36986400000751,13.36986400000751,0.0,0.0,2.377163049201396,0.0,0.0,0.1445994,0.26704782,9.78185511,0.004474,0.001083,0.006067
13.389849000028335,13.389849000028335,0.0,0.0,2.377235730648099,0.0,0.0,0.14849397,0.2718351,9.79682517,0.00408,-0.003272,0.003577
13.389849000028335,13.389849000028335,0.0,0.0,2.3772213491811156,0.0,0.0,0.14849397,0.2718351,9.79682517,0.00408,-0.003272,0.003577
13.429819000069983,13.429819000069983,0.0,0.0,2.3773963507805487,0.0,0.0,0.16390548,0.26150517,9.77302611,0.003746,-0.001777,0.004421
13.449804000090808,13.449804000090808,0.0,0.0,2.377461325461966,0.0,0.0,0.15118191,0.25746345,9.78021684,0.002992,-0.001738,0.003148
13.469788999995217,13.469788999995217,0.0,0.0,2.377525226978423,0.0,0.0,0.15178032,0.2601612,9.79143948,0.001923,0.000487,0.003098
13.489774000016041,13.489774000016041,0.0,0.0,2.3776293370076917,0.0,0.0,0.14115609,0.26644941,9.7926363,0.00581,-0.00249,0.005334
13.509759000036865,13.509759000036865,0.0,0.0,2.3777081623916345,0.0,0.0,0.1502892,0.26944146,9.75805605,0.002161,0.001453,0.003914
13.52974400005769,13.52974400005769,0.0,0.0,2.3777931008721964,0.0,0.0,0.15103476,0.24833034,9.768533130000002,0.003227,-0.002676,0.004259
13.549729000078514,13.549729000078514,0.0,0.0,2.377896491015054,0.0,0.0,0.15328125,0.2689902,9.77018121,0.00239,-0.001495,0.005293
13.569713000091724,13.569713000091724,0.0,0.0,2.377945770795762,0.0,0.0,0.14938668,0.26480133,9.75955698,0.003347,-0.000584,0.002233
13.589697999996133,13.589697999996133,0.0,0.0,2.3780416699288143,0.0,0.0,0.15672456,0.25342173,9.76180347,0.005023,-0.002194,0.004894
13.609683000016958,13.609683000016958,0.0,0.0,2.3781474523771715,0.0,0.0,0.14998509,0.26255484,9.77797035,0.001943,0.000394,0.005441
13.629668000037782,13.629668000037782,0.0,0.0,2.378224795465795,0.0,0.0,0.14878827,0.27647523,9.76793472,0.004828,-0.001108,0.003808
13.649653000058606,13.649653000058606,0.0,0.0,2.378289412508078,0.0,0.0,0.15897105,0.27049113,9.76733631,0.003317,-0.000107,0.003093
13.66963800007943,13.66963800007943,0.0,0.0,2.3783586957515084,0.0,0.0,0.14938668,0.26180928,9.77077962,0.003051,0.001204,0.003378
13.70960699999705,13.70960699999705,0.0,0.0,2.3785288202114305,0.0,0.0,0.16989939,0.265851,9.78141366,0.002359,0.001034,0.004512
13.70960699999705,13.70960699999705,0.0,0.0,2.378536051476969,0.0,0.0,0.16989939,0.265851,9.78141366,0.002359,0.001034,0.004512
13.729592000017874,13.729592000017874,0.0,0.0,2.3785869115592924,0.0,0.0,0.14295132,0.25521696,9.77781339,0.004256,-0.001068,0.002268
13.749577000038698,13.749577000038698,0.0,0.0,2.378657018743308,0.0,0.0,0.15612615,0.26689086,9.780511140000002,0.005273,-0.000844,0.003441
13.789547000080347,13.789547000080347,0.0,0.0,2.3787927992174556,0.0,0.0,0.1445994,0.25506981,9.77751909,0.004256,-0.001521,0.002909
13.809531999984756,13.809531999984756,0.0,0.0,2.378859563062301,0.0,0.0,0.14983794,0.27468,9.77572386,0.002459,0.001114,0.003318
13.82951700000558,13.82951700000558,0.0,0.0,2.3789346515124787,0.0,0.0,0.15328125,0.26225073,9.76793472,0.002047,-0.002489,0.003765
13.849502000026405,13.849502000026405,0.0,0.0,2.3789972207880847,0.0,0.0,0.15118191,0.26180928,9.76943565,0.00512,-0.003647,0.003087
13.86948700004723,13.86948700004723,0.0,0.0,2.379101504059742,0.0,0.0,0.1553805899999999,0.25866027,9.77871591,0.003011,0.000859,0.005365
13.889472000068054,13.889472000068054,0.0,0.0,2.379166716594777,0.0,0.0,0.16002072,0.2650956299999999,9.77721498,0.003695,-0.001172,0.003208
13.909457000088878,13.909457000088878,0.0,0.0,2.379227041423566,0.0,0.0,0.14295132,0.26061246,9.7897914,0.002051,-0.000141,0.002943
13.929441999993287,13.929441999993287,0.0,0.0,2.379314998173818,0.0,0.0,0.14998509,0.2650956299999999,9.77826465,0.00415,-0.001446,0.004485
13.949427000014111,13.949427000014111,0.0,0.0,2.3794059317149614,0.0,0.0,0.16031502,0.25925868,9.76345155,0.004835,-0.001861,0.004642
13.969412000034936,13.969412000034936,0.0,0.0,2.3794892877049083,0.0,0.0,0.14639463,0.26180928,9.76613949,0.000391,0.00046,0.004207
13.98939700005576,13.98939700005576,0.0,0.0,2.379590917751263,0.0,0.0,0.14893542,0.27123669,9.77077962,0.003915,-0.002407,0.00523
14.009382000076585,14.009382000076585,0.0,0.0,2.3796558956687894,0.0,0.0,0.14265702,0.26794053,9.76345155,0.002827,-8e-05,0.003145
14.029366999980994,14.029366999980994,0.0,0.0,2.3797369894038702,0.0,0.0,0.17394111,0.26853894,9.79129233,0.002655,-0.001875,0.00407
14.049352000001818,14.049352000001818,0.0,0.0,2.379833317694107,0.0,0.0,0.14010642,0.26375166,9.77601816,0.002445,-0.001342,0.004932
14.069336000015028,14.069336000015028,0.0,0.0,2.3799417356885275,0.0,0.0,0.15732297,0.26659656,9.77137803,0.003981,0.000702,0.005604
14.089321000035852,14.089321000035852,0.0,0.0,2.3800238270775935,0.0,0.0,0.1531341,0.26884305,9.77422293,0.004126,-0.001078,0.004081
14.109306000056677,14.109306000056677,0.0,0.0,2.380086995743614,0.0,0.0,0.1474443,0.27393444,9.79233219,0.002888,0.001021,0.003006
14.129291000077501,14.129291000077501,0.0,0.0,2.3801801239602227,0.0,0.0,0.15088761,0.26748927,9.77617512,0.003814,-0.000954,0.004738
14.14927599998191,14.14927599998191,0.0,0.0,2.3802475345438037,0.0,0.0,0.15866694,0.26270199,9.77856876,0.002872,-0.002724,0.003257
14.169261000002734,14.169261000002734,0.0,0.0,2.3803063179290422,0.0,0.0,0.14354973,0.26389881,9.780962400000002,0.002185,0.002247,0.00278
14.209231000044383,14.209231000044383,0.0,0.0,2.380468244644965,0.0,0.0,0.1534284,0.2630061,9.77437008,0.00246,-0.000226,0.004215
14.229216000065207,14.229216000065207,0.0,0.0,2.3805291400353994,0.0,0.0,0.15717582,0.26061246,9.75326877,0.003507,0.000922,0.003008
14.249201000086032,14.249201000086032,0.0,0.0,2.3806130980886415,0.0,0.0,0.1591182,0.25432425,9.76464837,0.004555,-0.001631,0.004223
14.269185999990441,14.269185999990441,0.0,0.0,2.3806891823328886,0.0,0.0,0.15672456,0.25686504,9.77721498,0.002732,0.000492,0.003803
14.289171000011265,14.289171000011265,0.0,0.0,2.380785171921497,0.0,0.0,0.15851979,0.2601612,9.78335604,0.004521,-0.002796,0.004876
14.30915600003209,14.30915600003209,0.0,0.0,2.3808793684333907,0.0,0.0,0.15133887,0.27542556,9.7695828,0.001756,0.001508,0.004775
14.329141000052914,14.329141000052914,0.0,0.0,2.380970463494945,0.0,0.0,0.1332198,0.27049113,9.75955698,0.004509,-0.001183,0.004601
14.349126000073738,14.349126000073738,0.0,0.0,2.38107835897495,0.0,0.0,0.14160735,0.25581537,9.81014715,0.002591,-0.002506,0.005523
14.369111000094563,14.369111000094563,0.0,0.0,2.3811445195764733,0.0,0.0,0.15148602,0.2689902,9.75880161,0.001042,0.000566,0.003199
14.389095999998972,14.389095999998972,0.0,0.0,2.3812106519695995,0.0,0.0,0.15282999,0.27243351,9.76659075,0.003809,-0.001544,0.003209
14.409081000019796,14.409081000019796,0.0,0.0,2.381302246520434,0.0,0.0,0.15387966,0.25956279,9.78620094,0.001367,0.001761,0.004644
14.42906600004062,14.42906600004062,0.0,0.0,2.3813880181415215,0.0,0.0,0.16061913,0.26090676,9.764795520000002,0.002675,0.000322,0.00431
14.449051000061445,14.449051000061445,0.0,0.0,2.3814305083600598,0.0,0.0,0.14265702,0.26539974,9.76599234,0.004927,-0.001875,0.00187
14.46903600008227,14.46903600008227,0.0,0.0,2.3815290733165444,0.0,0.0,0.14579622,0.2633004,9.77392863,0.001685,0.000754,0.00507
14.489020999986678,14.489020999986678,0.0,0.0,2.381602882066767,0.0,0.0,0.15103476,0.26135802,9.77781339,0.005704,-0.002762,0.00365
14.509006000007503,14.509006000007503,0.0,0.0,2.381664415896818,0.0,0.0,0.15163317,0.26525259,9.76329459,0.003765,-0.000629,0.002959
14.528991000028327,14.528991000028327,0.0,0.0,2.3817374794245207,0.0,0.0,0.1651023,0.25746345,9.78739776,0.004836,-0.000427,0.003631
14.548976000049151,14.548976000049151,0.0,0.0,2.381830387718993,0.0,0.0,0.1502892,0.2686959,9.77452704,0.005042,-0.000786,0.004765
14.568961000069976,14.568961000069976,0.0,0.0,2.3819309239663475,0.0,0.0,0.14789556,0.27991854,9.77452704,0.002353,0.001317,0.005184
14.5889460000908,14.5889460000908,0.0,0.0,2.3820036757709477,0.0,0.0,0.15208443,0.26075961,9.77781339,0.002573,-0.00394,0.003575
14.60893099999521,14.60893099999521,0.0,0.0,2.3820906890202043,0.0,0.0,0.14295132,0.27408159,9.77781339,0.002454,0.000823,0.0044
14.628916000016034,14.628916000016034,0.0,0.0,2.3821741151046556,0.0,0.0,0.15373251,0.26270199,9.76988691,0.003514,-0.001127,0.004188
14.648901000036858,14.648901000036858,0.0,0.0,2.3822605946893605,0.0,0.0,0.14309847,0.25985709,9.79129233,0.004787,-0.001414,0.004361
14.688871000078507,14.688871000078507,0.0,0.0,2.3824132933214797,0.0,0.0,0.15387966,0.26150517,9.78320889,0.005791,-0.003047,0.003492
14.708855999982916,14.708855999982916,0.0,0.0,2.382502294244108,0.0,0.0,0.14639463,0.26405577,9.780511140000002,0.003355,-0.001275,0.004472
14.708855999982916,14.708855999982916,0.0,0.0,2.3825085487235285,0.0,0.0,0.14639463,0.26405577,9.780511140000002,0.003355,-0.001275,0.004472
14.74882500001695,14.74882500001695,0.0,0.0,2.3826970033036385,0.0,0.0,0.14354973,0.27468,9.76778757,0.005916,-0.000851,0.005366
14.768810000037774,14.768810000037774,0.0,0.0,2.3827753624595136,0.0,0.0,0.13816404,0.26150517,9.7784118,0.00118,0.000683,0.003889
14.788795000058599,14.788795000058599,0.0,0.0,2.38284599284951,0.0,0.0,0.15193728,0.25641378,9.77467419,0.004066,-0.002082,0.00347
14.808780000079423,14.808780000079423,0.0,0.0,2.3829403999086116,0.0,0.0,0.15582204,0.2624076899999999,9.75431844,0.003743,-8e-05,0.004779
14.828764999983832,14.828764999983832,0.0,0.0,2.38302500111424,0.0,0.0,0.15118191,0.25387299,9.78215922,0.003162,-0.000993,0.004233
14.848750000004657,14.848750000004657,0.0,0.0,2.383125250262939,0.0,0.0,0.13816404,0.27617112,9.75640797,0.004602,-0.001105,0.005101
14.868735000025481,14.868735000025481,0.0,0.0,2.3832024085365813,0.0,0.0,0.15208443,0.2686959,9.76015539,0.002999,-0.001921,0.003805
14.888720000046305,14.888720000046305,0.0,0.0,2.3832861897037994,0.0,0.0,0.14610033,0.2650956299999999,9.77377167,0.002294,-0.00041,0.004182
14.90870500006713,14.90870500006713,0.0,0.0,2.3833601397015007,0.0,0.0,0.1505835,0.25147935,9.77886306,0.002267,-0.000627,0.003631
14.928690000087954,14.928690000087954,0.0,0.0,2.3834345764004734,0.0,0.0,0.14474655,0.27123669,9.76120506,0.002258,-0.00189,0.003667
14.948674999992363,14.948674999992363,0.0,0.0,2.383518066862286,0.0,0.0,0.14070483,0.25836597,9.76345155,0.004026,-0.000633,0.004186
14.968660000013188,14.968660000013188,0.0,0.0,2.383587137819468,0.0,0.0,0.14070483,0.26090676,9.78754491,0.001825,-9e-05,0.003368
14.988645000034012,14.988645000034012,0.0,0.0,2.383677647369751,0.0,0.0,0.15074046,0.26135802,9.77422293,0.005352,-0.001536,0.004597
14.988645000034012,14.988645000034012,0.0,0.0,2.3836853978352455,0.0,0.0,0.15074046,0.26135802,9.77422293,0.005352,-0.001536,0.004597
15.02861500007566,15.02861500007566,0.0,0.0,2.383817897996231,0.0,0.0,0.15103476,0.265851,9.76778757,0.003157,-0.00068,0.002232
15.04859999998007,15.04859999998007,0.0,0.0,2.3838819387581065,0.0,0.0,0.15956946,0.25671789,9.75685923,0.003554,-0.002861,0.003105
15.068585000000894,15.068585000000894,0.0,0.0,2.383979738126631,0.0,0.0,0.15418377,0.26210358,9.78964425,0.002194,0.001501,0.005053
15.088570000021718,15.088570000021718,0.0,0.0,2.3840473565842952,0.0,0.0,0.15462522,0.26210358,9.78679935,0.004438,0.000195,0.0033
15.108555000042543,15.108555000042543,0.0,0.0,2.3841425286648272,0.0,0.0,0.1332198,0.27003987,9.76613949,0.003901,-0.001496,0.004892
15.128540000063367,15.128540000063367,0.0,0.0,2.3842249964239546,0.0,0.0,0.16286562,0.26913735,9.77512545,0.001731,0.001506,0.004144
15.148525000084192,15.148525000084192,0.0,0.0,2.3843101059520695,0.0,0.0,0.15297714,0.26420292,9.7667379,0.005739,-0.002392,0.004293
15.188495000009425,15.188495000009425,0.0,0.0,2.384490995522948,0.0,0.0,0.16555356,0.25836597,9.78395445,0.003425,-0.000954,0.00502
15.188495000009425,15.188495000009425,0.0,0.0,2.384504822539869,0.0,0.0,0.16555356,0.25836597,9.78395445,0.003425,-0.000954,0.00502
15.20848000003025,15.20848000003025,0.0,0.0,2.3845953018197683,0.0,0.0,0.13981212,0.26539974,9.78170796,0.003338,-0.000798,0.004567
15.248450000071898,15.248450000071898,0.0,0.0,2.384774066808429,0.0,0.0,0.16151184,0.26794053,9.77960862,0.003748,-0.002762,0.00462
15.268435000092722,15.268435000092722,0.0,0.0,2.384861115157946,0.0,0.0,0.15297714,0.2573163,9.76823883,0.002165,-0.000126,0.004354
15.288419999997132,15.288419999997132,0.0,0.0,2.384967842679508,0.0,0.0,0.14025357,0.26629245,9.76030254,0.001633,-0.001199,0.005415
15.308405000017956,15.308405000017956,0.0,0.0,2.385050926475759,0.0,0.0,0.15567489,0.2624076899999999,9.76314744,0.004156,-0.002658,0.004126
15.32839000003878,15.32839000003878,0.0,0.0,2.3851264960950163,0.0,0.0,0.14654178,0.26719497,9.76044969,0.001597,-0.000717,0.003717
15.348375000059605,15.348375000059605,0.0,0.0,2.3852306341146523,0.0,0.0,0.15478218,0.27617112,9.77692068,0.003864,-0.001345,0.005296
15.368360000080429,15.368360000080429,0.0,0.0,2.385311990008085,0.0,0.0,0.15792138,0.26180928,9.76898439,0.003385,0.001398,0.004026
15.388344999984838,15.388344999984838,0.0,0.0,2.385394986251555,0.0,0.0,0.15642045,0.25686504,9.752670360000002,0.002484,-0.001898,0.004122
15.408330000005662,15.408330000005662,0.0,0.0,2.3854825181322763,0.0,0.0,0.14325543,0.25896438,9.749227050000002,0.002878,-0.002246,0.004379
15.428315000026487,15.428315000026487,0.0,0.0,2.385561601160396,0.0,0.0,0.15268284,0.2624076899999999,9.75431844,0.001084,0.002398,0.003905
15.448300000047311,15.448300000047311,0.0,0.0,2.3856461478537767,0.0,0.0,0.1583726399999999,0.26794053,9.78709365,0.002734,-0.00152,0.004219
15.468285000068136,15.468285000068136,0.0,0.0,2.3857499356543563,0.0,0.0,0.14639463,0.2686959,9.77632227,0.001858,0.00068,0.005307
15.48827000008896,15.48827000008896,0.0,0.0,2.3858184116751513,0.0,0.0,0.1502892,0.26779338,9.73920123,0.002616,-0.001032,0.003293
15.528240000014193,15.528240000014193,0.0,0.0,2.3859706218814996,0.0,0.0,0.16450389,0.25776756,9.77991273,0.00121,0.000856,0.003307
15.548225000035018,15.548225000035018,0.0,0.0,2.3860412866250797,0.0,0.0,0.15687171,0.28396026,9.755064,0.003813,-0.002151,0.003514
15.548225000035018,15.548225000035018,0.0,0.0,2.3860321607860353,0.0,0.0,0.15687171,0.28396026,9.755064,0.003813,-0.002151,0.003514
15.568210000055842,15.568210000055842,0.0,0.0,2.386100790267891,0.0,0.0,0.15253569,0.26569404,9.76345155,0.004728,0.00082,0.003334
15.608179999981076,15.608179999981076,0.0,0.0,2.386259591241492,0.0,0.0,0.15282999,0.26030835,9.78170796,0.003939,-0.002111,0.00405
15.6281650000019,15.6281650000019,0.0,0.0,2.3863225802282493,0.0,0.0,0.14414814,0.2547657,9.77422293,0.002061,0.000222,0.003097
15.648150000022724,15.648150000022724,0.0,0.0,2.3864092300348485,0.0,0.0,0.16046217,0.26494848,9.77541975,0.003217,-0.00191,0.004378
15.668135000043549,15.668135000043549,0.0,0.0,2.3864996715138513,0.0,0.0,0.14639463,0.27093258,9.77407578,0.003721,-0.001849,0.004582
15.688120000064373,15.688120000064373,0.0,0.0,2.386593273216384,0.0,0.0,0.16046217,0.26808768,9.78185511,0.002522,-5.6e-05,0.004751
15.708105000085197,15.708105000085197,0.0,0.0,2.3867127355516313,0.0,0.0,0.15447807,0.2633004,9.77317326,0.004273,-0.001638,0.006172
15.728090999997221,15.728090999997221,0.0,0.0,2.3868085034557627,0.0,0.0,0.1583726399999999,0.27333603,9.75416148,0.00092,0.002199,0.004838
15.748076000018045,15.748076000018045,0.0,0.0,2.386889465291084,0.0,0.0,0.15717582,0.25956279,9.79443153,0.002852,-0.001181,0.004008
15.76806100003887,15.76806100003887,0.0,0.0,2.386983131370349,0.0,0.0,0.14115609,0.26405577,9.78799617,0.003292,-0.001162,0.004724
15.788046000059694,15.788046000059694,0.0,0.0,2.3870677269903933,0.0,0.0,0.13921371,0.26569404,9.77302611,0.002231,0.000558,0.00421
15.808031000080518,15.808031000080518,0.0,0.0,2.3871809091136953,0.0,0.0,0.15657741,0.26659656,9.77991273,0.003642,-0.000737,0.005824
15.828015999984927,15.828015999984927,0.0,0.0,2.3872592632173752,0.0,0.0,0.15297714,0.25356888,9.76030254,0.001629,-0.000644,0.003835
15.848001000005752,15.848001000005752,0.0,0.0,2.3873323542355918,0.0,0.0,0.15507648,0.25701219,9.76464837,0.003733,-0.001313,0.003548
15.867986000026576,15.867986000026576,0.0,0.0,2.387432783465857,0.0,0.0,0.155979,0.27303192,9.77617512,0.003439,0.000623,0.005115
15.8879710000474,15.8879710000474,0.0,0.0,2.387495338078436,0.0,0.0,0.15552774,0.26719497,9.77541975,0.001748,0.001823,0.002948
15.907956000068225,15.907956000068225,0.0,0.0,2.387579455937127,0.0,0.0,0.16211025,0.26360451,9.77108373,0.003771,-0.001522,0.004202
15.927940000081435,15.927940000081435,0.0,0.0,2.3876787441538276,0.0,0.0,0.15297714,0.2650956299999999,9.76809168,0.00232,0.002283,0.005069
15.947925999993458,15.947925999993458,0.0,0.0,2.387755960115131,0.0,0.0,0.1414602,0.26644941,9.76913154,0.003247,-0.001758,0.003793
15.967911000014283,15.967911000014283,0.0,0.0,2.3878207063728025,0.0,0.0,0.155979,0.25671789,9.77362452,0.002974,0.000209,0.00309
15.987895000027493,15.987895000027493,0.0,0.0,2.387885438375336,0.0,0.0,0.1474443,0.26748927,9.77931432,0.001863,-0.000244,0.003111
16.00788100005593,16.00788100005593,0.0,0.0,2.387949853588869,0.0,0.0,0.15522363,0.27767205,9.76269618,0.001863,-0.000244,0.003111
16.027866000076756,16.027866000076756,0.0,0.0,2.3880408674019016,0.0,0.0,0.14385384,0.26824464,9.78440571,0.002114,-0.001166,0.004653
16.067834999994375,16.067834999994375,0.0,0.0,2.3881979198413816,0.0,0.0,0.15552774,0.2650956299999999,9.76988691,0.003642,-0.003307,0.003876
16.067834999994375,16.067834999994375,0.0,0.0,2.388196426285506,0.0,0.0,0.15552774,0.2650956299999999,9.76988691,0.003642,-0.003307,0.003876
16.107805000036024,16.107805000036024,0.0,0.0,2.388334565800549,0.0,0.0,0.1474443,0.26748927,9.77512545,0.00518,-0.002013,0.002899
16.127790000056848,16.127790000056848,0.0,0.0,2.388427774188,0.0,0.0,0.15687171,0.27348318,9.77587101,0.002336,0.00169,0.004725
16.147775000077672,16.147775000077672,0.0,0.0,2.3884867240466505,0.0,0.0,0.15074046,0.27033417,9.7755669,0.004327,-0.00055,0.002871
16.16775999998208,16.16775999998208,0.0,0.0,2.388576926157996,0.0,0.0,0.16406244,0.25492266,9.77751909,0.003343,-0.003277,0.004578
16.187745000002906,16.187745000002906,0.0,0.0,2.3886369674820607,0.0,0.0,0.14265702,0.26210358,9.76044969,0.000467,0.001178,0.002919
16.20773000002373,16.20773000002373,0.0,0.0,2.388698683024046,0.0,0.0,0.15552774,0.25851312,9.76554108,0.006102,-0.001586,0.003019
16.227715000044554,16.227715000044554,0.0,0.0,2.3887608519144212,0.0,0.0,0.14624748,0.27273762,9.780511140000002,0.002122,0.000574,0.003051
16.24770000006538,16.24770000006538,0.0,0.0,2.3888617692850183,0.0,0.0,0.15897105,0.25252902,9.75776175,0.002843,0.001359,0.005217
16.267685000086203,16.267685000086203,0.0,0.0,2.3889466060320412,0.0,0.0,0.1588239,0.2633004,9.77347737,0.003762,-0.000369,0.004298
16.267685000086203,16.267685000086203,0.0,0.0,2.388953444126991,0.0,0.0,0.1588239,0.2633004,9.77347737,0.003762,-0.000369,0.004298
16.307655000011437,16.307655000011437,0.0,0.0,2.389091546095001,0.0,0.0,0.15074046,0.27049113,9.77587101,0.003314,-0.00115,0.002875
16.32764000003226,16.32764000003226,0.0,0.0,2.3891739391196047,0.0,0.0,0.15253569,0.25222491,9.76090095,0.002965,-0.000285,0.004169
16.347625000053085,16.347625000053085,0.0,0.0,2.389243553010253,0.0,0.0,0.14699304,0.26435007,9.77931432,0.002061,-0.000113,0.003437
16.36761000007391,16.36761000007391,0.0,0.0,2.3893392349751608,0.0,0.0,0.15762708,0.26435007,9.78993855,0.003061,-0.001257,0.004926
16.387595000094734,16.387595000094734,0.0,0.0,2.389428622764477,0.0,0.0,0.14445225,0.27078543,9.764795520000002,0.000912,0.000955,0.004548
16.407579999999143,16.407579999999143,0.0,0.0,2.389517040571379,0.0,0.0,0.15043635,0.26150517,9.77182929,0.00416,-0.00317,0.004482
16.427565000019968,16.427565000019968,0.0,0.0,2.389576393950424,0.0,0.0,0.15447807,0.25012557,9.7897914,0.002697,0.000946,0.002814
16.447550000040792,16.447550000040792,0.0,0.0,2.389653319954613,0.0,0.0,0.1502892,0.27542556,9.7721334,0.003839,0.000831,0.003841
16.467535000061616,16.467535000061616,0.0,0.0,2.3897377220207012,0.0,0.0,0.13636881,0.2689902,9.79189074,0.003941,-0.001692,0.00427
16.48752000008244,16.48752000008244,0.0,0.0,2.3898383579191185,0.0,0.0,0.16002072,0.26465418,9.78290478,0.002573,-0.000446,0.005193
16.50750499998685,16.50750499998685,0.0,0.0,2.3899311426797087,0.0,0.0,0.14998509,0.2604555,9.78350319,0.004796,-0.002064,0.00472
16.50750499998685,16.50750499998685,0.0,0.0,2.3899392814345886,0.0,0.0,0.14998509,0.2604555,9.78350319,0.004796,-0.002064,0.00472
16.567461000056937,16.567461000056937,0.0,0.0,2.3902163820116042,0.0,0.0,0.14893542,0.25536411,9.77751909,0.004546,-0.003993,0.005413
16.58744600007776,16.58744600007776,0.0,0.0,2.3902911242031744,0.0,0.0,0.14699304,0.25342173,9.75176784,0.000643,0.001144,0.003698
16.58744600007776,16.58744600007776,0.0,0.0,2.3902808702571257,0.0,0.0,0.14699304,0.25342173,9.75176784,0.000643,0.001144,0.003698
16.60743099998217,16.60743099998217,0.0,0.0,2.390372897405271,0.0,0.0,0.1580685299999999,0.26764623,9.77228055,0.003655,-0.001267,0.00468
16.64740100002382,16.64740100002382,0.0,0.0,2.3905373873895073,0.0,0.0,0.15971661,0.28081125,9.76374585,0.002502,0.000974,0.003904
16.667386000044644,16.667386000044644,0.0,0.0,2.3906175972699177,0.0,0.0,0.15582204,0.26525259,9.78365034,0.005292,-0.00292,0.003994
16.68737100006547,16.68737100006547,0.0,0.0,2.390683736202053,0.0,0.0,0.14354973,0.25641378,9.76434426,0.000965,0.002339,0.003226
16.707356000086293,16.707356000086293,0.0,0.0,2.390754791068197,0.0,0.0,0.15792138,0.26989272,9.74473407,0.002648,-0.000328,0.003504
16.7273409999907,16.7273409999907,0.0,0.0,2.3908558640746014,0.0,0.0,0.15447807,0.26001405,9.764795520000002,0.003813,0.000684,0.00517
16.747326000011526,16.747326000011526,0.0,0.0,2.3909221715819315,0.0,0.0,0.15074046,0.25956279,9.78275763,0.001894,0.001225,0.003225
16.76731100003235,16.76731100003235,0.0,0.0,2.3910016683651207,0.0,0.0,0.14818986,0.26210358,9.78141366,0.004422,-0.002602,0.003972
16.787296000053175,16.787296000053175,0.0,0.0,2.391075319988092,0.0,0.0,0.15777423,0.26764623,9.78934014,0.002172,0.001679,0.003645
16.807281000074,16.807281000074,0.0,0.0,2.3911503593666676,0.0,0.0,0.15163317,0.27018702,9.77347737,0.002612,-0.000429,0.003728
16.827266000094824,16.827266000094824,0.0,0.0,2.391208767490223,0.0,0.0,0.15237873,0.26569404,9.78620094,0.004328,-0.000528,0.002793
16.847250999999233,16.847250999999233,0.0,0.0,2.391274391205771,0.0,0.0,0.14490351,0.26180928,9.78739776,0.001586,0.000786,0.003218
16.867236000020057,16.867236000020057,0.0,0.0,2.3913686948743695,0.0,0.0,0.15193728,0.25851312,9.792783450000002,0.004375,-0.00109,0.004853
16.88722100004088,16.88722100004088,0.0,0.0,2.3914564716327735,0.0,0.0,0.14983794,0.26689086,9.80026848,0.00256,0.000824,0.004464
16.907206000061706,16.907206000061706,0.0,0.0,2.3915230246878174,0.0,0.0,0.1562733,0.27108954,9.79038981,0.003635,-0.002826,0.003246
16.92719100008253,16.92719100008253,0.0,0.0,2.391612770237959,0.0,0.0,0.15657741,0.25880742,9.77496849,0.003048,-0.000659,0.00458
16.94717599998694,16.94717599998694,0.0,0.0,2.391724402659534,0.0,0.0,0.15418377,0.26435007,9.76628664,0.003107,0.001171,0.005817
16.967161000007764,16.967161000007764,0.0,0.0,2.3918154420943463,0.0,0.0,0.15358536,0.26105391,9.76704201,0.004917,-0.001855,0.004607
16.987146000028588,16.987146000028588,0.0,0.0,2.391868740661705,0.0,0.0,0.14893542,0.26075961,9.77197644,0.000705,0.001689,0.00244
17.007131000049412,17.007131000049412,0.0,0.0,2.391957468753973,0.0,0.0,0.15672456,0.2650956299999999,9.77392863,0.003498,-0.002121,0.004502
17.027116000070237,17.027116000070237,0.0,0.0,2.392037858745743,0.0,0.0,0.1445994,0.26284914,9.7752726,0.004181,-0.001389,0.004015
17.04710100009106,17.04710100009106,0.0,0.0,2.392124958957041,0.0,0.0,0.14385384,0.265851,9.77302611,0.002019,0.000238,0.004401
17.06708599999547,17.06708599999547,0.0,0.0,2.3922019064154654,0.0,0.0,0.14684589,0.26973576,9.768690090000002,0.003179,-0.002784,0.003812
17.10705600003712,17.10705600003712,0.0,0.0,2.3923419129764367,0.0,0.0,0.1658576699999999,0.2650956299999999,9.75850731,0.002886,-0.001496,0.002898
17.10705600003712,17.10705600003712,0.0,0.0,2.392325003891325,0.0,0.0,0.1658576699999999,0.2650956299999999,9.75850731,0.002886,-0.001496,0.002898
17.147026000078768,17.147026000078768,0.0,0.0,2.3924850598252956,0.0,0.0,0.16046217,0.2604555,9.7781175,0.002158,0.000635,0.004266
17.167010999983177,17.167010999983177,0.0,0.0,2.392555984799115,0.0,0.0,0.15148602,0.26824464,9.768690090000002,0.003471,-0.002458,0.003528
17.186996000004,17.186996000004,0.0,0.0,2.3926268942419844,0.0,0.0,0.14505066,0.26734212,9.76972995,0.003471,-0.002458,0.003528
17.206981000024825,17.206981000024825,0.0,0.0,2.3927260647114057,0.0,0.0,0.15672456,0.2689902,9.7692885,0.002975,-0.001463,0.005069
17.22696600004565,17.22696600004565,0.0,0.0,2.3928128807574485,0.0,0.0,0.1414602,0.26839179,9.77287896,0.00371,0.000874,0.004383
17.246951000066474,17.246951000066474,0.0,0.0,2.3928866411054894,0.0,0.0,0.15522363,0.27662238,9.79233219,0.000323,-0.00013,0.003659
17.2669360000873,17.2669360000873,0.0,0.0,2.3930022682658842,0.0,0.0,0.15268284,0.26659656,9.77422293,0.004191,-0.002849,0.005985
17.286920999991708,17.286920999991708,0.0,0.0,2.393110045400599,0.0,0.0,0.14833701,0.27841761,9.75042387,0.003306,0.003301,0.005526
17.306906000012532,17.306906000012532,0.0,0.0,2.393188866313012,0.0,0.0,0.16466085,0.27243351,9.76434426,0.001708,0.001827,0.00389
17.326891000033356,17.326891000033356,0.0,0.0,2.3932657035832268,0.0,0.0,0.15582204,0.25940583,9.78201207,0.003818,-0.001118,0.003785
17.34687600005418,17.34687600005418,0.0,0.0,2.3933460290527098,0.0,0.0,0.15223158,0.26734212,9.77018121,0.002178,0.000684,0.003989
17.366861000075005,17.366861000075005,0.0,0.0,2.3934255606980646,0.0,0.0,0.15986376,0.27108954,9.76180347,0.004554,-0.001274,0.003948
17.386845999979414,17.386845999979414,0.0,0.0,2.3935189442339775,0.0,0.0,0.14250006,0.26913735,9.77197644,0.001702,0.000484,0.004737
17.40683100000024,17.40683100000024,0.0,0.0,2.3935945166063854,0.0,0.0,0.15822549,0.27527841,9.75416148,0.001957,-0.000134,0.003717
17.426816000021063,17.426816000021063,0.0,0.0,2.3936694424826452,0.0,0.0,0.16375833,0.26839179,9.76254903,0.003535,-0.002025,0.003689
17.446801000041887,17.446801000041887,0.0,0.0,2.3937557690554705,0.0,0.0,0.15822549,0.25671789,9.76568823,0.001227,0.000579,0.004347
17.46678600006271,17.46678600006271,0.0,0.0,2.3938626118245683,0.0,0.0,0.15163317,0.27273762,9.75431844,0.004525,-0.001054,0.005514
17.486771000083536,17.486771000083536,0.0,0.0,2.3939067991462446,0.0,0.0,0.14369688,0.27198225,9.75176784,0.003516,0.000521,0.00191
17.506755999987945,17.506755999987945,0.0,0.0,2.3940091803838968,0.0,0.0,0.14969079,0.25012557,9.77617512,0.002184,-0.000284,0.005282
17.546726000029594,17.546726000029594,0.0,0.0,2.3941771963100535,0.0,0.0,0.16165899,0.26405577,9.75580956,0.001525,0.001995,0.004229
17.546726000029594,17.546726000029594,0.0,0.0,2.394177911382787,0.0,0.0,0.16165899,0.26405577,9.75580956,0.001525,0.001995,0.004229
17.566711000050418,17.566711000050418,0.0,0.0,2.3942569013579114,0.0,0.0,0.1580685299999999,0.25671789,9.77123088,0.004688,-0.002473,0.00391
17.606681000092067,17.606681000092067,0.0,0.0,2.3944255497232163,0.0,0.0,0.14998509,0.27557271,9.77377167,0.002682,0.000616,0.00429
17.626665999996476,17.626665999996476,0.0,0.0,2.3945188239645656,0.0,0.0,0.16076628,0.27602397,9.76329459,0.00394,-0.000295,0.0047
17.6466510000173,17.6466510000173,0.0,0.0,2.3945787697205425,0.0,0.0,0.14490351,0.265851,9.78470001,0.002177,0.001501,0.002904
17.666636000038125,17.666636000038125,0.0,0.0,2.3946589920837837,0.0,0.0,0.14610033,0.26794053,9.77976558,0.003359,-0.00197,0.00401
17.68662100005895,17.68662100005895,0.0,0.0,2.3947413300038,0.0,0.0,0.16226721,0.27513126,9.77601816,0.003648,-0.00012,0.004126
17.706606000079773,17.706606000079773,0.0,0.0,2.3948261478358503,0.0,0.0,0.15657741,0.27018702,9.76943565,0.000863,-0.000613,0.004262
17.726590999984182,17.726590999984182,0.0,0.0,2.3949088467896207,0.0,0.0,0.16315992,0.27692649,9.768533130000002,0.003756,-0.00141,0.004143
17.746576000005007,17.746576000005007,0.0,0.0,2.394994592712269,0.0,0.0,0.13801689,0.26210358,9.76149936,0.003376,0.00048,0.004312
17.76656100002583,17.76656100002583,0.0,0.0,2.395080900294815,0.0,0.0,0.14564907,0.27123669,9.77482134,0.002776,-0.000501,0.004341
17.786546000046656,17.786546000046656,0.0,0.0,2.3951540093526553,0.0,0.0,0.15268284,0.26375166,9.77228055,0.003464,-0.000226,0.003598
17.80653100006748,17.80653100006748,0.0,0.0,2.395223239468712,0.0,0.0,0.16091343,0.26973576,9.77392863,0.001799,0.000225,0.003387
17.826516000088304,17.826516000088304,0.0,0.0,2.395304519375655,0.0,0.0,0.1386153,0.27647523,9.75656493,0.003556,-0.002295,0.004077
17.846502000000328,17.846502000000328,0.0,0.0,2.3953868330773886,0.0,0.0,0.14220576,0.26764623,9.77347737,0.002389,0.001492,0.004134
17.866487000021152,17.866487000021152,0.0,0.0,2.395486329008776,0.0,0.0,0.15522363,0.2601612,9.7664436,0.004526,-0.00175,0.005107
17.9064570000628,17.9064570000628,0.0,0.0,2.395653901998646,0.0,0.0,0.15223158,0.26808768,9.77228055,0.002853,-0.000376,0.004224
17.9064570000628,17.9064570000628,0.0,0.0,2.3956547990530073,0.0,0.0,0.15223158,0.26808768,9.77228055,0.002853,-0.000376,0.004224
17.946426999988034,17.946426999988034,0.0,0.0,2.3957909687282903,0.0,0.0,0.16016787,0.26554689,9.75312162,0.002935,0.001584,0.002553
17.946426999988034,17.946426999988034,0.0,0.0,2.3957678915311913,0.0,0.0,0.16016787,0.26554689,9.75312162,0.002935,0.001584,0.002553
17.986397000029683,17.986397000029683,0.0,0.0,2.3959202728605575,0.0,0.0,0.15492933,0.26284914,9.77617512,0.001844,-0.001218,0.003862
18.006382000050507,18.006382000050507,0.0,0.0,2.396003215893214,0.0,0.0,0.15657741,0.26090676,9.76883724,0.000351,0.001841,0.004182
18.026367000071332,18.026367000071332,0.0,0.0,2.396124536426308,0.0,0.0,0.15074046,0.25626663,9.76539393,0.005165,-0.002253,0.00628
18.046352000092156,18.046352000092156,0.0,0.0,2.396199401236073,0.0,0.0,0.14309847,0.26030835,9.76659075,0.001515,0.000425,0.003703
18.066336999996565,18.066336999996565,0.0,0.0,2.3962591451216575,0.0,0.0,0.1583726399999999,0.26824464,9.77946147,0.004154,-0.000662,0.00287
18.08632200001739,18.08632200001739,0.0,0.0,2.3963279704446796,0.0,0.0,0.16346403,0.26929431,9.76195062,0.003822,-0.001309,0.003388
18.106307000038214,18.106307000038214,0.0,0.0,2.3963986694675548,0.0,0.0,0.1477386,0.26794053,9.77960862,0.000621,0.001868,0.003499
18.12629200005904,18.12629200005904,0.0,0.0,2.3964604269919487,0.0,0.0,0.14205861,0.27468,9.78500412,0.004408,-0.000325,0.003002
18.146277000079863,18.146277000079863,0.0,0.0,2.396540488248208,0.0,0.0,0.16256151,0.25701219,9.79517709,0.00373,0.000977,0.004043
18.166261999984272,18.166261999984272,0.0,0.0,2.396622191234475,0.0,0.0,0.14519781,0.27408159,9.76419711,0.0021,-0.000168,0.004131
18.186247000005096,18.186247000005096,0.0,0.0,2.3967077912301287,0.0,0.0,0.15447807,0.27093258,9.76704201,0.005026,-0.001354,0.004346
18.20623200002592,18.20623200002592,0.0,0.0,2.396804309141208,0.0,0.0,0.15687171,0.26629245,9.78829047,0.002225,0.00115,0.004957
18.226217000046745,18.226217000046745,0.0,0.0,2.396900004644632,0.0,0.0,0.15447807,0.26884305,9.77541975,0.00364,-0.001654,0.004893
18.24620200006757,18.24620200006757,0.0,0.0,2.396995952821216,0.0,0.0,0.15986376,0.27932013,9.78739776,0.00364,-0.001654,0.004893
18.266187000088394,18.266187000088394,0.0,0.0,2.397090091778918,0.0,0.0,0.1679472,0.26958861,9.78141366,0.003903,-0.001153,0.004777
18.286171999992803,18.286171999992803,0.0,0.0,2.397161472770808,0.0,0.0,0.14818986,0.26435007,9.77587101,0.00334,-0.000296,0.003468
18.306157000013627,18.306157000013627,0.0,0.0,2.397214405123238,0.0,0.0,0.14954364,0.27542556,9.7724277,0.001982,0.000521,0.002428
18.32614200003445,18.32614200003445,0.0,0.0,2.3973000168094174,0.0,0.0,0.14849397,0.27258066,9.76419711,0.002743,-6.3e-05,0.00433
18.346127000055276,18.346127000055276,0.0,0.0,2.39739957115353,0.0,0.0,0.14669874,0.26973576,9.79158663,0.002902,-0.000592,0.005122
18.38609699998051,18.38609699998051,0.0,0.0,2.397566024424137,0.0,0.0,0.14564907,0.27692649,9.75865446,0.003649,-0.001454,0.004172
18.406082000001334,18.406082000001334,0.0,0.0,2.397619405604428,0.0,0.0,0.15103476,0.25896438,9.76613949,0.00146,8.1e-05,0.002605
18.426067000022158,18.426067000022158,0.0,0.0,2.397676849974843,0.0,0.0,0.15237873,0.2630061,9.77452704,0.004095,-0.001084,0.002814
18.426067000022158,18.426067000022158,0.0,0.0,2.397660820846263,0.0,0.0,0.15237873,0.2630061,9.77452704,0.004095,-0.001084,0.002814
18.466037000063807,18.466037000063807,0.0,0.0,2.397808790941455,0.0,0.0,0.1553805899999999,0.27348318,9.77422293,0.002184,-0.000548,0.003749
18.48602200008463,18.48602200008463,0.0,0.0,2.39788590391516,0.0,0.0,0.15178032,0.26165232,9.78170796,0.003099,-0.000547,0.003875
18.50600699998904,18.50600699998904,0.0,0.0,2.3979695302595694,0.0,0.0,0.15732297,0.27587682,9.7667379,0.001179,0.002222,0.004231
18.525992000009865,18.525992000009865,0.0,0.0,2.398052454971216,0.0,0.0,0.15088761,0.26764623,9.76943565,0.003931,-0.000668,0.004188
18.54597700003069,18.54597700003069,0.0,0.0,2.3981601081424024,0.0,0.0,0.15986376,0.26344755,9.78844743,0.001839,0.001212,0.005556
18.565963000059128,18.565963000059128,0.0,0.0,2.39824152386252,0.0,0.0,0.16270866,0.27602397,9.76749327,0.002151,0.001678,0.004075
18.585948000079952,18.585948000079952,0.0,0.0,2.3983217769412164,0.0,0.0,0.15223158,0.27138384,9.76269618,0.005063,0.00031,0.00401
18.60593299998436,18.60593299998436,0.0,0.0,2.3983973537824683,0.0,0.0,0.15103476,0.26569404,9.76613949,0.001487,0.001764,0.003748
18.625918000005186,18.625918000005186,0.0,0.0,2.398467958830903,0.0,0.0,0.15986376,0.27018702,9.77063247,0.003241,-0.000317,0.003472
18.64590300002601,18.64590300002601,0.0,0.0,2.3985523874969044,0.0,0.0,0.15163317,0.26554689,9.77617512,0.002715,0.000595,0.004261
18.68587300006766,18.68587300006766,0.0,0.0,2.3987161854436145,0.0,0.0,0.15133887,0.26001405,9.77751909,0.006029,-0.00114,0.004215
18.705858000088483,18.705858000088483,0.0,0.0,2.398788140323397,0.0,0.0,0.14369688,0.26435007,9.77018121,0.001863,0.00161,0.003586
18.705858000088483,18.705858000088483,0.0,0.0,2.398781867531011,0.0,0.0,0.14369688,0.26435007,9.77018121,0.001863,0.00161,0.003586
