timestamp,accel_x,accel_y,accel_z,gyro_x,gyro_y,gyro_z,mag_x,mag_y,mag_z,gps_lat,gps_lon,gps_alt,gps_accuracy,gps_speed,gps_course,pressure,altitude,roll,pitch,yaw
841907.101435,-9.43487541,0.19594493999999998,-2.7333112500000003,0.001521,-0.000315,0.005935,-114.368484,105.790207,-194.952377,60.187689,24.83011,13.172254,21.84427,-1.0,-1.0,100.614487,-1.099205,-1.28361,-0.024807,-1.930781
841907.281318,-9.42439833,0.22048956,-2.7476829,0.000763,0.000941,0.004461,-114.21579,105.809433,-194.648941,60.187689,24.83011,13.172254,21.84427,-1.0,-1.0,100.614548,-1.104488,-1.283567,-0.024788,-1.930819
841907.321292,-9.44835435,0.21420135,-2.7384026400000003,0.001839,0.002896,0.003953,-114.411484,105.738312,-194.815552,60.187689,24.83011,13.172254,21.84427,-1.0,-1.0,100.614548,-1.104488,-1.283559,-0.024757,-1.930842
841907.341279,-9.44311581,0.23351724,-2.7854121600000004,0.004841,0.000424,0.005242,-114.382721,105.822037,-194.758194,60.187689,24.83011,13.172254,21.84427,-1.0,-1.0,100.614548,-1.104488,-1.283544,-0.02475,-1.930845
841907.341279,-9.44311581,0.23351724,-2.7854121600000004,0.004841,0.000424,0.005242,-114.382721,105.822037,-194.758194,60.187689,24.83011,13.172254,21.84427,-1.0,-1.0,100.614548,-1.104488,-1.283544,-0.02475,-1.930845
841907.361266,-9.40389543,0.25791471,-2.7898953300000002,0.004841,0.000424,0.005242,-114.430908,105.772049,-194.621704,60.187689,24.83011,13.172254,21.84427,-1.0,-1.0,100.614548,-1.104488,-1.283536,-0.024757,-1.93086
841907.381253,-9.44476389,0.23845167,-2.75397111,0.000313,0.001754,0.002063,-114.375427,105.738388,-194.840256,60.187689,24.83011,13.172254,21.84427,-1.0,-1.0,100.614548,-1.104488,-1.283552,-0.024754,-1.930849
841907.401239,-9.421259130000001,0.25356888,-2.7813704400000003,0.006277,-0.001274,0.004508,-114.479843,105.625473,-194.786194,60.187689,24.83011,13.172254,21.84427,-1.0,-1.0,100.614548,-1.104488,-1.283566,-0.024747,-1.930854
841907.441213,-9.45464256,0.25117524,-2.7580128299999997,0.00283,0.000313,0.003699,-114.273148,105.852875,-194.573242,60.187689,24.83011,13.172254,21.84427,-1.0,-1.0,100.614548,-1.104488,-1.283564,-0.024748,-1.93085
841907.4612,-9.42395688,0.23411565,-2.78615772,0.00437,-0.002894,0.004637,-114.307571,105.799118,-194.952621,60.187689,24.83011,13.172254,21.84427,-1.0,-1.0,100.614548,-1.104488,-1.283558,-0.024747,-1.930846
841907.4612,-9.42395688,0.23411565,-2.78615772,0.00437,-0.002894,0.004637,-114.307571,105.799118,-194.952621,60.187689,24.83011,13.172254,21.84427,-1.0,-1.0,100.614548,-1.104488,-1.283558,-0.024747,-1.930846
841907.501174,-9.43817157,0.24009975,-2.77088355,0.004761,-0.000578,0.002956,-114.287369,105.691452,-194.332687,60.187689,24.83011,13.172254,21.84427,-1.0,-1.0,100.614548,-1.104488,-1.283575,-0.024745,-1.930863
841907.521161,-9.42410403,0.23456691000000002,-2.7834599700000004,0.003105,8.8e-05,0.004682,-114.256714,105.734055,-194.736603,60.187689,24.83011,13.172254,21.84427,-1.0,-1.0,100.614548,-1.104488,-1.283565,-0.024741,-1.930851
841907.541148,-9.41587344,0.2459367,-2.8108593,0.001877,-0.000173,0.002737,-114.157913,105.672272,-194.587067,60.187689,24.83011,13.172254,21.84427,-1.0,-1.0,100.614548,-1.104488,-1.283548,-0.024747,-1.930879
841907.541148,-9.41587344,0.2459367,-2.8108593,0.001877,-0.000173,0.002737,-114.157913,105.672272,-194.587067,60.187689,24.83011,13.172254,21.84427,-1.0,-1.0,100.614548,-1.104488,-1.283548,-0.024747,-1.930879
841907.581122,-9.4194639,0.2456424,-2.79244593,0.002646,0.0002,0.005088,-114.397522,105.512466,-194.356232,60.187689,24.83011,13.172254,21.84427,-1.0,-1.0,100.614548,-1.104488,-1.283558,-0.024738,-1.93087
841907.601109,-9.42709608,0.23576373,-2.7737284500000006,0.004397,-0.002212,0.004045,-114.506866,105.490952,-194.278183,60.187689,24.83011,13.172254,21.84427,-1.0,-1.0,100.614548,-1.104488,-1.283545,-0.024745,-1.930859
841907.621096,-9.44835435,0.24160068,-2.76699879,0.004813,-0.000387,0.00509,-114.434753,105.714859,-194.648682,60.187689,24.83011,13.172254,21.84427,-1.0,-1.0,100.614548,-1.104488,-1.283569,-0.024735,-1.930852
841907.641083,-9.41272443,0.24624081,-2.78481375,0.002286,0.000935,0.004675,-114.370972,105.617966,-194.608612,60.187689,24.83011,13.172254,21.84427,-1.0,-1.0,100.614548,-1.104488,-1.283566,-0.024727,-1.930853
841907.66107,-9.43907409,0.25342173,-2.77657335,0.006693,-0.001211,0.004585,-114.483597,105.603409,-194.319702,60.187689,24.83011,13.172254,21.84427,-1.0,-1.0,100.614548,-1.104488,-1.283566,-0.02472,-1.930854
841907.701044,-9.4226031,0.25177365,-2.78929692,0.000808,-7e-06,0.004204,-114.492477,105.504471,-194.366013,60.187689,24.83011,13.172254,21.84427,-1.0,-1.0,100.614548,-1.104488,-1.283565,-0.024734,-1.930842
841907.701044,-9.4226031,0.25177365,-2.78929692,0.000808,-7e-06,0.004204,-114.492477,105.504471,-194.366013,60.187689,24.83011,13.172254,21.84427,-1.0,-1.0,100.614548,-1.104488,-1.283565,-0.024734,-1.930842
841907.741018,-9.44161488,0.24653511000000003,-2.7764262,-0.001116,0.002206,0.003345,-114.444214,105.445251,-194.640594,60.187689,24.83011,13.172254,21.84427,-1.0,-1.0,100.614548,-1.104488,-1.283563,-0.024745,-1.930856
841907.761005,-9.417511710000001,0.2456424,-2.79184752,0.001735,-0.001197,0.004019,-114.409317,105.51799,-194.745667,60.187689,24.83011,13.172254,21.84427,-1.0,-1.0,100.614548,-1.104488,-1.283548,-0.024725,-1.930871
841907.780992,-9.44012376,0.24743763,-2.78166474,0.005594,-0.000279,0.003696,-114.477722,105.473221,-194.670975,60.187689,24.83011,13.172254,21.84427,-1.0,-1.0,100.614548,-1.104488,-1.28356,-0.024718,-1.930872
841907.800979,-9.42784164,0.23770611,-2.7719332199999998,0.001627,0.000435,0.002988,-114.442261,105.502899,-194.76767,60.187689,24.83011,13.172254,21.84427,-1.0,-1.0,100.614548,-1.104488,-1.283552,-0.024707,-1.930857
841907.820966,-9.41991516,0.25252902000000005,-2.7879529499999998,0.006347,-0.001574,0.002856,-114.37468,105.531372,-194.589966,60.187689,24.83011,13.172254,21.84427,-1.0,-1.0,100.614548,-1.104488,-1.283556,-0.024703,-1.930856
841907.840953,-9.43158906,0.26001405,-2.77313004,0.001837,0.001074,0.003861,-114.277328,105.59108,-194.803329,60.187689,24.83011,13.172254,21.84427,-1.0,-1.0,100.614548,-1.104488,-1.283552,-0.024697,-1.930856
841907.86094,-9.42379992,0.22063671,-2.7973803600000005,0.007029,0.003382,0.0068,-114.407608,105.647247,-194.460785,60.187689,24.83011,13.172254,21.84427,-1.0,-1.0,100.614548,-1.104488,-1.283554,-0.024693,-1.930852
841907.880927,-9.420955020000001,0.23516532,-2.82477969,0.014703,-6.2e-05,0.007936,-114.454315,105.568146,-194.770462,60.187689,24.83011,13.172254,21.84427,-1.0,-1.0,100.614548,-1.104488,-1.283544,-0.024706,-1.930785
841907.900914,-9.40987953,0.23411565,-2.78420553,0.013358,0.003257,0.009285,-114.50293,105.600677,-194.745636,60.187689,24.83011,13.172254,21.84427,-1.0,-1.0,100.614548,-1.104488,-1.283508,-0.02474,-1.93063
841907.920901,-9.42559515,0.25746345000000004,-2.7644481900000004,0.009834,0.007044,0.004851,-114.505661,105.521866,-194.475952,60.187689,24.83011,13.172254,21.84427,-1.0,-1.0,100.614548,-1.104488,-1.283423,-0.024787,-1.930385
841907.940888,-9.36692154,0.27917298,-2.78061507,-0.008719,-0.009942,-0.000712,-114.398438,105.469513,-194.473236,60.187689,24.83011,13.172254,21.84427,-1.0,-1.0,100.614548,-1.104488,-1.283366,-0.024813,-1.930207
841907.960875,-9.51451299,0.210915,-2.72103894,-0.018669,-0.004863,-0.007526,-114.211395,105.607285,-194.742416,60.187689,24.83011,13.172254,21.84427,-1.0,-1.0,100.614548,-1.104488,-1.283486,-0.024757,-1.930362
841907.980862,-9.56990025,-0.14893542,-2.7508319100000005,-0.024274,0.012138,-0.017848,-114.248871,105.611755,-194.639603,60.187689,24.83011,13.172254,21.84427,-1.0,-1.0,100.614548,-1.104488,-1.283514,-0.024597,-1.930752
841907.980862,-9.56990025,-0.14893542,-2.7508319100000005,-0.024274,0.012138,-0.017848,-114.248871,105.611755,-194.639603,60.187689,24.83011,13.172254,21.84427,-1.0,-1.0,100.614548,-1.104488,-1.283514,-0.024597,-1.930752
841908.020836,-9.51152094,-0.18650772000000002,-2.8104080400000004,-0.014759,0.01899,-0.003925,-115.121353,104.138565,-195.524826,60.187689,24.83011,13.172254,21.84427,-1.0,-1.0,100.614548,-1.104488,-1.283068,-0.024326,-1.931967
841908.040823,-9.56331774,-0.027095220000000003,-2.7969291,-0.010803,0.043932,-0.00592,-115.121353,104.138565,-195.524826,60.187689,24.83011,13.172254,21.84427,-1.0,-1.0,100.614548,-1.104488,-1.282477,-0.024236,-1.932362
841908.040823,-9.56331774,-0.027095220000000003,-2.7969291,-0.010803,0.043932,-0.00592,-115.121353,104.138565,-195.524826,60.187689,24.83011,13.172254,21.84427,-1.0,-1.0,100.614548,-1.104488,-1.282477,-0.024236,-1.932362
841908.040823,-9.56331774,-0.027095220000000003,-2.7969291,-0.010803,0.043932,-0.00592,-115.121353,104.138565,-195.524826,60.187689,24.83011,13.172254,21.84427,-1.0,-1.0,100.614548,-1.104488,-1.282477,-0.024236,-1.932362
841908.100784,-8.94974148,0.68033331,-2.99676861,0.03456,-0.02914,0.00925,-111.994171,99.985001,-196.927139,60.187689,24.83011,13.172254,21.84427,-1.0,-1.0,100.614548,-1.104488,-1.280131,-0.024324,-1.932565
841908.120771,-9.35389386,0.997677,-3.09317148,0.066609,-0.027653,0.029216,-110.743515,99.901398,-196.295609,60.187689,24.83011,13.172254,21.84427,-1.0,-1.0,100.614548,-1.104488,-1.280436,-0.02423,-1.932088
841908.120771,-9.35389386,0.997677,-3.09317148,0.066609,-0.027653,0.029216,-110.743515,99.901398,-196.295609,60.187689,24.83011,13.172254,21.84427,-1.0,-1.0,100.614548,-1.104488,-1.280436,-0.02423,-1.932088
841908.160745,-9.19252917,0.6212084400000001,-3.31395534,0.092828,-0.052081,0.038093,-109.9561,100.198715,-195.996918,60.187689,24.83011,13.172254,21.84427,-1.0,-1.0,100.614548,-1.104488,-1.282049,-0.024428,-1.929178
841908.180732,-9.330850170000001,0.65189412,-3.1681591200000003,0.108258,-0.198255,0.026147,-110.213181,100.136368,-196.069824,60.187689,24.83011,13.172254,21.84427,-1.0,-1.0,100.614548,-1.104488,-1.283942,-0.024563,-1.92713
841908.180732,-9.330850170000001,0.65189412,-3.1681591200000003,0.108258,-0.198255,0.026147,-110.213181,100.136368,-196.069824,60.187689,24.83011,13.172254,21.84427,-1.0,-1.0,100.614548,-1.104488,-1.283942,-0.024563,-1.92713
841908.220706,-9.26513298,-0.33110712,-2.4146334,-0.053077,-0.390384,0.015884,-112.675903,100.562469,-196.665939,60.187689,24.83011,13.172254,21.84427,-1.0,-1.0,100.614548,-1.104488,-1.292298,-0.024612,-1.923797
841908.240693,-9.11050776,-0.6423097500000001,-2.44351404,-0.115437,-0.412704,-0.005195,-114.047379,101.737061,-196.30751,60.187689,24.83011,13.172254,21.84427,-1.0,-1.0,100.614548,-1.104488,-1.299394,-0.025012,-1.924569
841908.26068,-9.35539479,-0.22872015,-2.50339428,-0.130132,-0.472417,-0.011785,-114.549652,101.885681,-196.070847,60.187689,24.83011,13.172254,21.84427,-1.0,-1.0,100.614548,-1.104488,-1.308209,-0.025361,-1.926874
841908.280667,-9.282202380000001,0.023799060000000004,-2.6912557800000005,-0.152811,-0.567805,-0.016525,-113.881821,100.954819,-196.154144,60.187689,24.83011,13.172254,21.84427,-1.0,-1.0,100.614548,-1.104488,-1.317801,-0.025758,-1.929616
841908.300654,-9.223823070000002,0.29114118,-2.5878191399999997,-0.175342,-0.680002,-0.019981,-112.771164,100.658417,-195.222137,60.187689,24.83011,13.172254,21.84427,-1.0,-1.0,100.614548,-1.104488,-1.329107,-0.026197,-1.932684
841908.320641,-9.20031831,0.28575549,-2.58707358,-0.192028,-0.771715,-0.022152,-112.103271,100.415924,-194.772583,60.187689,24.83011,13.172254,21.84427,-1.0,-1.0,100.614548,-1.104488,-1.342354,-0.026624,-1.936229
841908.320641,-9.20031831,0.28575549,-2.58707358,-0.192028,-0.771715,-0.022152,-112.103271,100.415924,-194.772583,60.187689,24.83011,13.172254,21.84427,-1.0,-1.0,100.614548,-1.104488,-1.342354,-0.026624,-1.936229
841908.380602,-9.30299958,0.35431757999999997,-2.39082453,-0.066986,-0.995393,0.010431,-111.556564,102.300125,-191.432709,60.187689,24.83011,13.172254,21.84427,-1.0,-1.0,100.614548,-1.104488,-1.391981,-0.02756,-1.94627
841908.380602,-9.30299958,0.35431757999999997,-2.39082453,-0.066986,-0.995393,0.010431,-111.556564,102.300125,-191.432709,60.187689,24.83011,13.172254,21.84427,-1.0,-1.0,100.614548,-1.104488,-1.391981,-0.02756,-1.94627
841908.380602,-9.30299958,0.35431757999999997,-2.39082453,-0.066986,-0.995393,0.010431,-111.556564,102.300125,-191.432709,60.187689,24.83011,13.172254,21.84427,-1.0,-1.0,100.614548,-1.104488,-1.391981,-0.02756,-1.94627
841908.420576,-8.89330455,0.35102142000000003,-2.3683792500000003,-0.032617,-1.353242,0.038331,-112.586105,103.902451,-189.174911,60.187689,24.83011,13.172254,21.84427,-1.0,-1.0,100.614548,-1.104488,-1.433485,-0.02839,-1.948752
841908.46055,-9.0263772,0.34458605999999997,-1.5929870400000001,0.009372,-1.713789,0.065402,-114.907593,105.567429,-186.783188,60.187689,24.83011,13.172254,21.84427,-1.0,-1.0,100.614548,-1.104488,-1.489305,-0.029969,-1.949779
841908.46055,-9.0263772,0.34458605999999997,-1.5929870400000001,0.009372,-1.713789,0.065402,-114.907593,105.567429,-186.783188,60.187689,24.83011,13.172254,21.84427,-1.0,-1.0,100.614548,-1.104488,-1.489305,-0.029969,-1.949779
841908.480537,-8.80244433,0.19219751999999998,-1.35004239,0.026093,-1.903599,0.075563,-116.418045,106.111221,-185.297211,60.187689,24.83011,13.172254,21.84427,-1.0,-1.0,100.614548,-1.104488,-1.522614,-0.031085,-1.949731
841908.520511,-20.115915120000004,-1.18613691,0.58962024,0.191778,-1.392837,-0.500091,-119.271057,107.427338,-183.181046,60.187689,24.83011,13.172254,21.84427,-1.0,-1.0,100.614548,-1.104488,-1.599606,-0.039,-1.947761
841908.540498,-5.11501248,1.31950386,0.8066763,0.265948,-1.242517,-0.01431,-120.215332,107.053848,-181.727875,60.187689,24.83011,13.172254,21.84427,-1.0,-1.0,100.614548,-1.104488,-1.629407,-0.038019,-1.944551
841908.540498,-5.11501248,1.31950386,0.8066763,0.265948,-1.242517,-0.01431,-120.215332,107.053848,-181.727875,60.187689,24.83011,13.172254,21.84427,-1.0,-1.0,100.614548,-1.104488,-1.629407,-0.038019,-1.944551
841908.580472,-9.56316078,0.7220944800000001,2.17063908,0.173636,-1.270481,-0.038653,-118.929947,106.682983,-179.19458,60.187689,24.83011,13.172254,21.84427,-1.0,-1.0,100.614548,-1.104488,-1.686732,-0.038873,-1.936851
841908.600459,-8.73793377,0.50370426,2.28544551,0.119955,-1.221384,-0.002556,-118.703491,106.343323,-178.2229,60.187689,24.83011,13.172254,21.84427,-1.0,-1.0,100.614548,-1.104488,-1.712149,-0.039249,-1.933584
841908.620446,-8.84570643,0.58633389,2.6487392400000003,0.067959,-1.26009,0.027645,-118.435974,105.922089,-177.394012,60.187689,24.83011,13.172254,21.84427,-1.0,-1.0,100.614548,-1.104488,-1.736424,-0.039447,-1.931048
841908.620446,-8.84570643,0.58633389,2.6487392400000003,0.067959,-1.26009,0.027645,-118.435974,105.922089,-177.394012,60.187689,24.83011,13.172254,21.84427,-1.0,-1.0,100.614548,-1.104488,-1.736424,-0.039447,-1.931048
841908.66042,-9.5874111,0.4192794,2.15402094,-0.021556,-1.247407,0.049217,-118.577362,105.786331,-175.500534,60.187689,24.83011,13.172254,21.84427,-1.0,-1.0,100.614548,-1.104488,-1.783988,-0.040692,-1.928572
841908.680407,-9.393565500000001,0.34383069,2.1468400200000004,-0.082748,-1.30127,0.068983,-119.297485,106.089203,-174.315796,60.187689,24.83011,13.172254,21.84427,-1.0,-1.0,100.614548,-1.104488,-1.808459,-0.041406,-1.928877
841908.680407,-9.393565500000001,0.34383069,2.1468400200000004,-0.082748,-1.30127,0.068983,-119.297485,106.089203,-174.315796,60.187689,24.83011,13.172254,21.84427,-1.0,-1.0,100.614548,-1.104488,-1.808459,-0.041406,-1.928877
841908.720381,-12.08212353,0.14639463000000003,3.26037312,-0.115042,-1.166949,0.084346,-119.952362,106.762375,-172.356415,60.187689,24.83011,13.172254,21.84427,-1.0,-1.0,100.614548,-1.104488,-1.861505,-0.042862,-1.933019
841908.740368,-7.58338506,-0.182466,3.50375922,-0.162853,-1.305193,0.068033,-119.969788,106.847351,-170.775238,60.187689,24.83011,13.172254,21.84427,-1.0,-1.0,100.614548,-1.104488,-1.886492,-0.043045,-1.935908
841908.760355,-9.405690660000001,0.54636795,3.2030434800000003,-0.122909,-1.194435,0.093741,-119.630768,106.892395,-169.633621,60.187689,24.83011,13.172254,21.84427,-1.0,-1.0,100.614548,-1.104488,-1.913333,-0.04379,-1.939695
841908.780342,-9.07368102,0.16750575,3.6955152900000003,-0.10703,-1.134708,0.056236,-119.630768,106.892395,-169.633621,60.187689,24.83011,13.172254,21.84427,-1.0,-1.0,100.614548,-1.104488,-1.937437,-0.044111,-1.942626
841908.800329,-8.538839820000002,0.22902426,4.8398812200000005,0.019472,-1.341499,0.053826,-118.97583,106.30069,-168.287216,60.187689,24.83011,13.172254,21.84427,-1.0,-1.0,100.614548,-1.104488,-1.961288,-0.044463,-1.94517
841908.800329,-8.538839820000002,0.22902426,4.8398812200000005,0.019472,-1.341499,0.053826,-118.97583,106.30069,-168.287216,60.187689,24.83011,13.172254,21.84427,-1.0,-1.0,100.614548,-1.104488,-1.961288,-0.044463,-1.94517
841908.840303,-8.05010562,0.18456534000000002,5.40555525,-0.035176,-1.087359,0.020907,-118.362518,104.660782,-168.311707,60.187689,24.83011,13.172254,21.84427,-1.0,-1.0,100.614548,-1.104488,-2.004921,-0.045163,-1.945822
841908.86029,-8.82594909,0.24997842000000003,4.95469746,-0.100256,-0.996603,0.053201,-118.87326,103.310669,-167.99678,60.187689,24.83011,13.172254,21.84427,-1.0,-1.0,100.614548,-1.104488,-2.025767,-0.04511,-1.946138
841908.880277,-8.38885473,0.13412232000000002,4.63570569,-0.09679,-1.051452,0.068447,-120.208496,102.572495,-167.349319,60.187689,24.83011,13.172254,21.84427,-1.0,-1.0,100.614548,-1.104488,-2.046136,-0.04511,-1.948155
841908.900264,-8.502170040000001,0.04699971,4.5872148600000004,-0.100257,-1.052834,0.06368,-121.479492,102.476425,-166.834396,60.187689,24.83011,13.172254,21.84427,-1.0,-1.0,100.614548,-1.104488,-2.067004,-0.045332,-1.950498
841908.920251,-8.8988472,0.17917965,4.7023254,-0.100257,-1.052834,0.06368,-123.565628,103.319443,-166.290527,60.187689,24.83011,13.172254,21.84427,-1.0,-1.0,100.614548,-1.104488,-2.087888,-0.045304,-1.952821
841908.940238,-8.15638716,0.22348161,4.7105559900000005,-0.05774,-1.048745,0.029042,-124.781143,105.590363,-164.906128,60.187689,24.83011,13.172254,21.84427,-1.0,-1.0,100.614548,-1.104488,-2.10852,-0.045272,-1.95486
841908.960225,-8.63973567,0.7596667800000001,4.7999152800000005,0.023357,-1.049524,0.055261,-124.552429,108.171234,-162.466385,60.187689,24.83011,13.172254,21.84427,-1.0,-1.0,100.614548,-1.104488,-2.129455,-0.045149,-1.956224
841908.960225,-8.63973567,0.7596667800000001,4.7999152800000005,0.023357,-1.049524,0.055261,-124.552429,108.171234,-162.466385,60.187689,24.83011,13.172254,21.84427,-1.0,-1.0,100.614548,-1.104488,-2.129455,-0.045149,-1.956224
841909.000199,-7.98648777,1.3614219900000002,5.17458861,0.118386,-1.202853,0.015448,-119.373947,107.920212,-158.305023,60.187689,24.83011,13.172254,21.84427,-1.0,-1.0,100.614548,-1.104488,-2.172406,-0.046822,-1.955869
841909.020186,-8.46429363,1.3115773800000001,5.02041465,0.175875,-1.173836,-0.034871,-117.717361,107.241821,-157.213882,60.187689,24.83011,13.172254,21.84427,-1.0,-1.0,100.614548,-1.104488,-2.195578,-0.047955,-1.954191
841909.040173,-7.42021533,1.29091752,5.1187599,0.219196,-1.247933,-0.041968,-117.31752,106.677933,-156.422684,60.187689,24.83011,13.172254,21.84427,-1.0,-1.0,100.614548,-1.104488,-2.219471,-0.049513,-1.951518
841909.06016,-7.53952455,1.28298123,5.35855554,0.280426,-1.259772,-0.047622,-117.492035,106.92012,-155.155487,60.187689,24.83011,13.172254,21.84427,-1.0,-1.0,100.614548,-1.104488,-2.243998,-0.051401,-1.947735
841909.100134,-7.26409899,0.51822306,6.342763410000001,0.302067,-1.339195,-0.052377,-119.859879,108.786942,-154.119232,60.187689,24.83011,13.172254,21.84427,-1.0,-1.0,100.614548,-1.104488,-2.29441,-0.057294,-1.937867
841909.100134,-7.26409899,0.51822306,6.342763410000001,0.302067,-1.339195,-0.052377,-119.859879,108.786942,-154.119232,60.187689,24.83011,13.172254,21.84427,-1.0,-1.0,100.614548,-1.104488,-2.29441,-0.057294,-1.937867
841909.100134,-7.26409899,0.51822306,6.342763410000001,0.302067,-1.339195,-0.052377,-119.859879,108.786942,-154.119232,60.187689,24.83011,13.172254,21.84427,-1.0,-1.0,100.614548,-1.104488,-2.29441,-0.057294,-1.937867
841909.140108,-6.7599434700000005,0.9036677700000001,6.702908130000001,0.284276,-1.444065,-0.05346,-120.287094,108.91362,-153.176407,60.187689,24.83011,13.172254,21.84427,-1.0,-1.0,100.614548,-1.104488,-2.348286,-0.06402,-1.928
841909.180082,-5.8308285600000005,0.44068482,7.2709757999999995,0.290226,-1.522088,0.018261,-120.726898,107.48555,-151.999252,60.187689,24.83011,13.172254,21.84427,-1.0,-1.0,100.614548,-1.104488,-2.405387,-0.071697,-1.919001
841909.200069,-5.652100170000001,0.51118929,7.38579204,0.278088,-1.529678,0.097328,-120.016006,107.213501,-150.917221,60.187689,24.83011,13.172254,21.84427,-1.0,-1.0,100.614548,-1.104488,-2.435574,-0.07632,-1.915377
841909.220056,-5.74700211,0.5719622400000001,7.76644947,0.285163,-1.499693,0.126969,-118.317413,105.641388,-149.932343,60.187689,24.83011,13.172254,21.84427,-1.0,-1.0,100.614548,-1.104488,-2.466241,-0.081455,-1.91306
841909.240043,-5.767652160000001,0.85456872,7.7624077499999995,0.307843,-1.456015,0.103616,-117.049683,105.920883,-148.84967,60.187689,24.83011,13.172254,21.84427,-1.0,-1.0,100.614548,-1.104488,-2.496334,-0.087193,-1.911332
841909.26003,-5.379813810000001,0.78841008,8.18572887,0.298952,-1.480399,0.078461,-115.434097,105.865189,-147.496002,60.187689,24.83011,13.172254,21.84427,-1.0,-1.0,100.614548,-1.104488,-2.525729,-0.093202,-1.909589
841909.280017,-4.74423372,0.95651424,8.24036076,0.304334,-1.431662,0.129977,-114.871628,105.760513,-146.303741,60.187689,24.83011,13.172254,21.84427,-1.0,-1.0,100.614548,-1.104488,-2.555113,-0.098986,-1.907801
841909.300004,-4.56475977,0.9648919800000001,8.96560425,0.260065,-1.368868,0.152992,-113.885727,106.941422,-145.41124,60.187689,24.83011,13.172254,21.84427,-1.0,-1.0,100.614548,-1.104488,-2.583748,-0.105193,-1.906252
841909.319991,-4.513865490000001,0.90950472,9.23908743,0.19845,-1.284692,0.172592,-112.305634,107.393188,-143.437561,60.187689,24.83011,13.172254,21.84427,-1.0,-1.0,100.614464,-1.099205,-2.61147,-0.111226,-1.906022
841909.319991,-4.513865490000001,0.90950472,9.23908743,0.19845,-1.284692,0.172592,-112.305634,107.393188,-143.437561,60.187689,24.83011,13.172254,21.84427,-1.0,-1.0,100.614464,-1.099205,-2.61147,-0.111226,-1.906022
841909.359965,-4.60592253,0.8491830300000001,9.38323557,-0.069283,-1.238128,0.221575,-110.523041,108.637405,-141.018692,60.187689,24.83011,13.172254,21.84427,-1.0,-1.0,100.614464,-1.099205,-2.663587,-0.119778,-1.909971
841909.379952,-4.20654762,1.20454047,9.29342502,-0.113985,-1.174112,0.238541,-109.935181,109.468521,-139.981277,60.187689,24.83011,13.172254,21.84427,-1.0,-1.0,100.614464,-1.099205,-2.689164,-0.120717,-1.914459
841909.399939,-3.6516547800000003,1.4310239400000002,8.82549783,-0.092694,-1.08918,0.285409,-108.73143,110.271515,-138.692337,60.187689,24.83011,13.172254,21.84427,-1.0,-1.0,100.614464,-1.099205,-2.713612,-0.120686,-1.919522
841909.419926,-3.1793915700000004,1.35932265,9.21902598,-0.106217,-1.131489,0.267021,-108.420563,110.883514,-137.718903,60.187689,24.83011,13.172254,21.84427,-1.0,-1.0,100.614464,-1.099205,-2.736544,-0.120962,-1.925329
841909.439913,-3.25437921,1.5663430800000002,8.84195901,-0.080409,-1.135308,0.269739,-108.433563,111.81662,-136.867355,60.187689,24.83011,13.172254,21.84427,-1.0,-1.0,100.614464,-1.099205,-2.759635,-0.121042,-1.931228
841909.4599,-3.18058839,1.32624333,8.83807425,-0.068339,-1.169158,0.278436,-109.910706,112.21608,-136.608047,60.187689,24.83011,13.172254,21.84427,-1.0,-1.0,100.614464,-1.099205,-2.783175,-0.121109,-1.936851
841909.479887,-2.9671326000000002,1.03824135,9.07937082,-0.060181,-1.195238,0.277338,-110.671814,111.266449,-136.722549,60.187689,24.83011,13.172254,21.84427,-1.0,-1.0,100.614464,-1.099205,-2.80705,-0.121611,-1.942542
841909.479887,-2.9671326000000002,1.03824135,9.07937082,-0.060181,-1.195238,0.277338,-110.671814,111.266449,-136.722549,60.187689,24.83011,13.172254,21.84427,-1.0,-1.0,100.614464,-1.099205,-2.80705,-0.121611,-1.942542
841909.479887,-2.9671326000000002,1.03824135,9.07937082,-0.060181,-1.195238,0.277338,-110.671814,111.266449,-136.722549,60.187689,24.83011,13.172254,21.84427,-1.0,-1.0,100.614464,-1.099205,-2.80705,-0.121611,-1.942542
841909.479887,-2.9671326000000002,1.03824135,9.07937082,-0.060181,-1.195238,0.277338,-110.671814,111.266449,-136.722549,60.187689,24.83011,13.172254,21.84427,-1.0,-1.0,100.614464,-1.099205,-2.80705,-0.121611,-1.942542
841909.539848,-2.2492269900000004,1.3937557500000002,9.14822721,-0.007247,-1.189081,0.224604,-107.784027,109.909729,-135.120667,60.187689,24.83011,13.172254,21.84427,-1.0,-1.0,100.614464,-1.099205,-2.880036,-0.123121,-1.958858
841909.579822,-1.96421706,1.93262886,9.311387130000002,0.066098,-1.189524,0.196707,-102.276428,111.733658,-130.920547,60.187689,24.83011,13.172254,21.84427,-1.0,-1.0,100.614464,-1.099205,-2.928973,-0.125135,-1.967369
841909.599809,-1.4718924000000002,1.67846157,9.6309675,0.077786,-1.140418,0.184202,-102.27655,113.993942,-130.2276,60.187689,24.83011,13.172254,21.84427,-1.0,-1.0,100.614464,-1.099205,-2.95321,-0.126969,-1.971013
841909.619796,-2.7285239700000004,0.88825626,11.88169542,-0.158219,-0.958031,-0.077365,-104.540344,114.845642,-130.282211,60.187689,24.83011,13.172254,21.84427,-1.0,-1.0,100.614464,-1.099205,-2.976718,-0.128988,-1.97428
841909.639783,-4.23289728,-0.22617936000000002,20.57231556,-1.275834,-1.157321,-0.304423,-104.132187,114.908066,-130.298462,60.187689,24.83011,13.172254,21.84427,-1.0,-1.0,100.614464,-1.099205,-2.997254,-0.127579,-1.97483
841909.65977,1.83548043,2.53707201,-7.776926550000001,0.214325,0.093578,-0.010499,-102.487579,113.486832,-128.245316,60.187689,24.83011,13.172254,21.84427,-1.0,-1.0,100.614464,-1.099205,-3.014579,-0.109821,-1.97207
841909.679757,-2.4608777400000004,-0.27901602,20.20498011,-0.769513,-0.735223,-0.296313,-102.548737,113.278214,-127.94281,60.187689,24.83011,13.172254,21.84427,-1.0,-1.0,100.614464,-1.099205,-3.024214,-0.104016,-1.970994
841909.699744,1.15409745,1.7133361200000001,1.87305273,-0.105182,-0.253986,-0.064921,-101.997238,112.165619,-126.765396,60.187689,24.83011,13.172254,21.84427,-1.0,-1.0,100.614464,-1.099205,-3.039275,-0.093075,-1.967426
841909.719731,-1.25918217,0.51358293,12.21399936,-0.250946,-0.344953,-0.060621,-101.520599,112.037125,-126.456299,60.187689,24.83011,13.172254,21.84427,-1.0,-1.0,100.614464,-1.099205,-3.047676,-0.08867,-1.965256
841909.739719,-0.84559257,1.37548953,9.09434088,-0.144195,-0.284107,-0.066769,-101.223602,111.801971,-126.229324,60.187689,24.83011,13.172254,21.84427,-1.0,-1.0,100.614464,-1.099205,-3.056503,-0.082963,-1.964549
841909.759706,-0.81699642,0.8587674000000001,9.80162226,-0.147952,-0.298764,-0.131101,-101.478622,111.27449,-125.846954,60.187689,24.83011,13.172254,21.84427,-1.0,-1.0,100.614464,-1.099205,-3.062388,-0.079708,-1.963539
841909.779693,-0.6885639,0.6538365,10.582841610000001,-0.215415,-0.390695,-0.182001,-102.102798,111.057648,-125.931168,60.187689,24.83011,13.172254,21.84427,-1.0,-1.0,100.614464,-1.099205,-3.068548,-0.075971,-1.961378
841909.779693,-0.6885639,0.6538365,10.582841610000001,-0.215415,-0.390695,-0.182001,-102.102798,111.057648,-125.931168,60.187689,24.83011,13.172254,21.84427,-1.0,-1.0,100.614464,-1.099205,-3.068548,-0.075971,-1.961378
841909.819667,-0.20627487000000003,0.54321894,9.66659742,-0.242565,-0.431207,-0.080497,-103.594223,109.994904,-125.719345,60.187689,24.83011,13.172254,21.84427,-1.0,-1.0,100.614464,-1.099205,-3.082431,-0.06814,-1.955126
841909.859641,-0.17573634,0.6045903,9.81254079,-0.305261,-0.58389,-0.042021,-103.340073,107.272812,-124.963318,60.187689,24.83011,13.172254,21.84427,-1.0,-1.0,100.614464,-1.099205,-3.101043,-0.057727,-1.952401
841909.879628,-0.13651596,0.55100808,9.739348380000001,-0.339544,-0.654025,-0.064548,-101.412186,105.770615,-124.80864,60.187689,24.83011,13.172254,21.84427,-1.0,-1.0,100.614464,-1.099205,-3.112459,-0.05157,-1.951804
841909.899615,0.038621970000000005,0.66715848,9.40329702,-0.346369,-0.70505,-0.096904,-98.785507,105.09993,-123.805634,60.187689,24.83011,13.172254,21.84427,-1.0,-1.0,100.614464,-1.099205,-3.125215,-0.044949,-1.950724
841909.899615,0.038621970000000005,0.66715848,9.40329702,-0.346369,-0.70505,-0.096904,-98.785507,105.09993,-123.805634,60.187689,24.83011,13.172254,21.84427,-1.0,-1.0,100.614464,-1.099205,-3.125215,-0.044949,-1.950724
841909.919602,0.20747169000000001,0.39876669,10.06342173,-0.382821,-0.759401,-0.103568,-96.630966,105.226822,-122.410767,60.187689,24.83011,13.172254,21.84427,-1.0,-1.0,100.614464,-1.099205,-3.139378,-0.037873,-1.948882
841909.959576,0.9354031200000001,-0.2544714,4.98418632,-0.030344,-0.037686,-0.158056,-97.264236,108.862671,-120.588196,60.187689,24.83011,13.172254,21.84427,-1.0,-1.0,100.614464,-1.099205,3.126756,-0.029378,-1.946166
841909.979563,1.9220046300000002,0.29233800000000004,6.17884812,0.046491,0.097885,0.00885,-99.727066,109.534164,-119.987854,60.187689,24.83011,13.172254,21.84427,-1.0,-1.0,100.614464,-1.099205,3.129383,-0.030215,-1.944
841909.979563,1.9220046300000002,0.29233800000000004,6.17884812,0.046491,0.097885,0.00885,-99.727066,109.534164,-119.987854,60.187689,24.83011,13.172254,21.84427,-1.0,-1.0,100.614464,-1.099205,3.129383,-0.030215,-1.944
841909.979563,1.9220046300000002,0.29233800000000004,6.17884812,0.046491,0.097885,0.00885,-99.727066,109.534164,-119.987854,60.187689,24.83011,13.172254,21.84427,-1.0,-1.0,100.614464,-1.099205,3.129383,-0.030215,-1.944
841910.019537,-0.265851,0.39712842,9.51436584,0.024639,0.026812,-0.012587,-101.590866,106.763824,-121.787369,60.187689,24.83011,13.172254,21.84427,-1.0,-1.0,100.614464,-1.099205,3.12847,-0.029821,-1.94271
841910.059511,0.03098979,0.11121597,9.828707670000002,-0.006657,-0.021595,-0.005643,-99.416733,105.134018,-122.432739,60.187689,24.83011,13.172254,21.84427,-1.0,-1.0,100.614464,-1.099205,3.127987,-0.029862,-1.942045
841910.059511,0.03098979,0.11121597,9.828707670000002,-0.006657,-0.021595,-0.005643,-99.416733,105.134018,-122.432739,60.187689,24.83011,13.172254,21.84427,-1.0,-1.0,100.614464,-1.099205,3.127987,-0.029862,-1.942045
841910.099485,0.2228832,0.15313410000000002,9.96328125,-0.005665,-0.010652,0.002921,-96.98085,105.601547,-122.347168,60.187689,24.83011,13.172254,21.84427,-1.0,-1.0,100.614464,-1.099205,3.127933,-0.029922,-1.941852
841910.119472,0.19175607,0.27063828,9.69115185,0.004423,0.002711,-0.003818,-96.172592,106.295074,-122.149902,60.187689,24.83011,13.172254,21.84427,-1.0,-1.0,100.614464,-1.099205,3.12782,-0.029905,-1.941895
841910.139459,-0.06331374,0.17094906,9.83185668,0.003494,0.008296,-0.006792,-96.01683,107.257507,-121.516144,60.187689,24.83011,13.172254,21.84427,-1.0,-1.0,100.614464,-1.099205,3.127856,-0.029903,-1.94175
841910.139459,-0.06331374,0.17094906,9.83185668,0.003494,0.008296,-0.006792,-96.01683,107.257507,-121.516144,60.187689,24.83011,13.172254,21.84427,-1.0,-1.0,100.614464,-1.099205,3.127856,-0.029903,-1.94175
841910.179433,0.2200383,0.18800865000000003,9.70207038,0.004161,-0.002639,0.011159,-97.371567,109.047318,-121.381561,60.187689,24.83011,13.172254,21.84427,-1.0,-1.0,100.614464,-1.099205,3.127787,-0.029869,-1.941578
841910.179433,0.2200383,0.18800865000000003,9.70207038,0.004161,-0.002639,0.011159,-97.371567,109.047318,-121.381561,60.187689,24.83011,13.172254,21.84427,-1.0,-1.0,100.614464,-1.099205,3.127787,-0.029869,-1.941578
841910.179433,0.2200383,0.18800865000000003,9.70207038,0.004161,-0.002639,0.011159,-97.371567,109.047318,-121.381561,60.187689,24.83011,13.172254,21.84427,-1.0,-1.0,100.614464,-1.099205,3.127787,-0.029869,-1.941578
841910.179433,0.2200383,0.18800865000000003,9.70207038,0.004161,-0.002639,0.011159,-97.371567,109.047318,-121.381561,60.187689,24.83011,13.172254,21.84427,-1.0,-1.0,100.614464,-1.099205,3.127787,-0.029869,-1.941578
841910.19942,-0.1070271,0.14055768000000002,9.755515260000001,0.002586,0.012064,0.005588,-98.460327,109.290451,-121.581268,60.187689,24.83011,13.172254,21.84427,-1.0,-1.0,100.614464,-1.099205,3.127786,-0.029887,-1.941725
841910.19942,-0.1070271,0.14055768000000002,9.755515260000001,0.002586,0.012064,0.005588,-98.460327,109.290451,-121.581268,60.187689,24.83011,13.172254,21.84427,-1.0,-1.0,100.614464,-1.099205,3.127786,-0.029887,-1.941725
841910.19942,-0.1070271,0.14055768000000002,9.755515260000001,0.002586,0.012064,0.005588,-98.460327,109.290451,-121.581268,60.187689,24.83011,13.172254,21.84427,-1.0,-1.0,100.614464,-1.099205,3.127786,-0.029887,-1.941725
841910.239394,0.09939492000000001,0.25416729000000005,9.59534739,0.004048,0.001022,0.012716,-99.499603,109.488037,-121.780029,60.187689,24.83011,13.172254,21.84427,-1.0,-1.0,100.614464,-1.099205,3.127729,-0.029821,-1.941797
841910.299355,0.05883057,0.24923286000000003,9.61945056,0.001591,0.003436,0.009277,-101.611298,109.76712,-121.983658,60.187689,24.83011,13.172254,21.84427,-1.0,-1.0,100.614464,-1.099205,3.127727,-0.029747,-1.942068
841910.319342,0.02649681,0.17214588000000003,9.79802199,7.9e-05,-0.003345,0.004715,-102.052521,109.343964,-121.798477,60.187689,24.83011,13.172254,21.84427,-1.0,-1.0,100.614464,-1.099205,3.127707,-0.029712,-1.942137
841910.359316,0.08322804,0.24279750000000003,9.68171463,0.001501,0.000495,0.006282,-102.718872,109.289597,-122.114899,60.187689,24.83011,13.172254,21.84427,-1.0,-1.0,100.614464,-1.099205,3.127649,-0.029633,-1.942277
841910.379303,0.04775508,0.21255327,9.74607804,0.003623,-0.001267,0.004621,-102.856796,109.215576,-122.125305,60.187689,24.83011,13.172254,21.84427,-1.0,-1.0,100.614464,-1.099205,3.127634,-0.029626,-1.942336
841910.419277,0.0782838,0.22393287,9.70162893,0.002845,-0.001419,0.004935,-103.132614,109.035843,-122.04892,60.187689,24.83011,13.172254,21.84427,-1.0,-1.0,100.614464,-1.099205,3.127627,-0.029598,-1.942401
841910.459251,0.06675705000000001,0.25432425000000003,9.759704130000001,0.00127,0.000644,0.003286,-103.112732,109.181213,-122.180435,60.187689,24.83011,13.172254,21.84427,-1.0,-1.0,100.614464,-1.099205,3.127609,-0.029618,-1.942411
841910.459251,0.06675705000000001,0.25432425000000003,9.759704130000001,0.00127,0.000644,0.003286,-103.112732,109.181213,-122.180435,60.187689,24.83011,13.172254,21.84427,-1.0,-1.0,100.614464,-1.099205,3.127609,-0.029618,-1.942411
841910.499225,0.0953532,0.27677934,9.74099646,0.002347,0.001676,0.003929,-102.543869,109.362732,-121.965515,60.187689,24.83011,13.172254,21.84427,-1.0,-1.0,100.614464,-1.099205,3.127612,-0.029629,-1.942396
841910.499225,0.0953532,0.27677934,9.74099646,0.002347,0.001676,0.003929,-102.543869,109.362732,-121.965515,60.187689,24.83011,13.172254,21.84427,-1.0,-1.0,100.614464,-1.099205,3.127612,-0.029629,-1.942396
841910.499225,0.0953532,0.27677934,9.74099646,0.002347,0.001676,0.003929,-102.543869,109.362732,-121.965515,60.187689,24.83011,13.172254,21.84427,-1.0,-1.0,100.614464,-1.099205,3.127612,-0.029629,-1.942396
841910.559186,0.08292393,0.29668383,9.73291302,0.002629,0.00399,0.003287,-101.863556,109.576355,-121.670349,60.187689,24.83011,13.172254,21.84427,-1.0,-1.0,100.614464,-1.099205,3.127593,-0.029607,-1.942358
841910.579173,0.07619427,0.2920437,9.763147440000001,0.005523,0.002291,0.0021,-101.589035,109.603271,-121.742416,60.187689,24.83011,13.172254,21.84427,-1.0,-1.0,100.614464,-1.099205,3.127585,-0.029607,-1.942345
841910.579173,0.07619427,0.2920437,9.763147440000001,0.005523,0.002291,0.0021,-101.589035,109.603271,-121.742416,60.187689,24.83011,13.172254,21.84427,-1.0,-1.0,100.614464,-1.099205,3.127585,-0.029607,-1.942345
841910.579173,0.07619427,0.2920437,9.763147440000001,0.005523,0.002291,0.0021,-101.589035,109.603271,-121.742416,60.187689,24.83011,13.172254,21.84427,-1.0,-1.0,100.614464,-1.099205,3.127585,-0.029607,-1.942345
841910.619147,0.0868185,0.32527017,9.724378320000001,0.002939,0.002652,0.003331,-100.802673,109.545471,-121.703461,60.187689,24.83011,13.172254,21.84427,-1.0,-1.0,100.614464,-1.099205,3.127572,-0.029615,-1.942287
841910.659121,0.060772950000000006,0.33006726000000003,9.73006812,0.002167,0.002744,0.002758,-100.311417,109.627686,-121.624924,60.187689,24.83011,13.172254,21.84427,-1.0,-1.0,100.614464,-1.099205,3.12756,-0.029614,-1.942252
841910.679108,0.07963758,0.32946885,9.75042387,0.002466,0.002766,0.003235,-100.195068,109.415985,-121.814194,60.187689,24.83011,13.172254,21.84427,-1.0,-1.0,100.614464,-1.099205,3.127564,-0.029621,-1.942237
841910.699095,0.06945480000000001,0.31898196000000006,9.76613949,0.003759,0.002949,0.002985,-99.786728,109.490723,-121.666107,60.187689,24.83011,13.172254,21.84427,-1.0,-1.0,100.614464,-1.099205,3.127546,-0.029633,-1.942209
841910.699095,0.06945480000000001,0.31898196000000006,9.76613949,0.003759,0.002949,0.002985,-99.786728,109.490723,-121.666107,60.187689,24.83011,13.172254,21.84427,-1.0,-1.0,100.614464,-1.099205,3.127546,-0.029633,-1.942209
841910.739069,0.06780672,0.31045707000000006,9.75850731,0.003623,0.001231,0.001736,-99.572327,109.476089,-121.75528,60.187689,24.83011,13.172254,21.84427,-1.0,-1.0,100.614464,-1.099205,3.12754,-0.029633,-1.942193
841910.739069,0.06780672,0.31045707000000006,9.75850731,0.003623,0.001231,0.001736,-99.572327,109.476089,-121.75528,60.187689,24.83011,13.172254,21.84427,-1.0,-1.0,100.614464,-1.099205,3.12754,-0.029633,-1.942193
841910.759056,0.09430353000000001,0.31943322,9.74563659,0.003244,0.002697,0.003769,-99.339844,109.751648,-121.734802,60.187689,24.83011,13.172254,21.84427,-1.0,-1.0,100.614464,-1.099205,3.127536,-0.029632,-1.942179
841910.79903,0.08023599000000001,0.3153915,9.75850731,0.005049,0.002762,0.003956,-99.310318,109.757629,-121.82312,60.187689,24.83011,13.172254,21.84427,-1.0,-1.0,100.614464,-1.099205,3.127552,-0.029632,-1.942146
841910.819017,0.06780672,0.31180104000000003,9.74473407,0.001144,0.002814,0.003589,-99.120209,109.501404,-121.627167,60.187689,24.83011,13.172254,21.84427,-1.0,-1.0,100.614464,-1.099205,3.127533,-0.029622,-1.942151
841910.819017,0.06780672,0.31180104000000003,9.74473407,0.001144,0.002814,0.003589,-99.120209,109.501404,-121.627167,60.187689,24.83011,13.172254,21.84427,-1.0,-1.0,100.614464,-1.099205,3.127533,-0.029622,-1.942151
841910.858992,0.08277678,0.30641535000000003,9.743988510000001,0.006262,0.002822,0.003161,-99.199005,109.644379,-121.46048,60.187689,24.83011,13.172254,21.84427,-1.0,-1.0,100.614464,-1.099205,3.127532,-0.029623,-1.942146
841910.878979,0.0691605,0.3065625,9.76434426,0.001802,0.002534,0.003506,-99.151642,109.606064,-121.927917,60.187689,24.83011,13.172254,21.84427,-1.0,-1.0,100.614464,-1.099205,3.127526,-0.029626,-1.942141
841910.898966,0.07753824,0.32527017,9.743988510000001,0.005757,0.003602,0.00378,-99.21756,109.680099,-121.755524,60.187689,24.83011,13.172254,21.84427,-1.0,-1.0,100.614464,-1.099205,3.127532,-0.029617,-1.942142
841910.918953,0.09445068,0.29309337,9.77692068,0.001061,0.002759,0.003264,-99.348846,109.760559,-121.563705,60.187689,24.83011,13.172254,21.84427,-1.0,-1.0,100.614464,-1.099205,3.127533,-0.02962,-1.94213
841910.93894,0.07858791000000001,0.30746502000000003,9.76913154,0.001638,0.001757,0.003517,-99.562164,109.593781,-121.850693,60.187689,24.83011,13.172254,21.84427,-1.0,-1.0,100.614464,-1.099205,3.127534,-0.029602,-1.942125
841910.93894,0.07858791000000001,0.30746502000000003,9.76913154,0.001638,0.001757,0.003517,-99.562164,109.593781,-121.850693,60.187689,24.83011,13.172254,21.84427,-1.0,-1.0,100.614464,-1.099205,3.127534,-0.029602,-1.942125
841910.93894,0.07858791000000001,0.30746502000000003,9.76913154,0.001638,0.001757,0.003517,-99.562164,109.593781,-121.850693,60.187689,24.83011,13.172254,21.84427,-1.0,-1.0,100.614464,-1.099205,3.127534,-0.029602,-1.942125
841910.93894,0.07858791000000001,0.30746502000000003,9.76913154,0.001638,0.001757,0.003517,-99.562164,109.593781,-121.850693,60.187689,24.83011,13.172254,21.84427,-1.0,-1.0,100.614464,-1.099205,3.127534,-0.029602,-1.942125
841910.998901,0.07184844,0.29084688000000003,9.759409830000001,0.000978,0.002096,0.003826,-99.650879,109.742676,-122.112503,60.187689,24.83011,13.172254,21.84427,-1.0,-1.0,100.614464,-1.099205,3.12754,-0.029605,-1.942113
841911.038875,0.07948062,0.28096821,9.764942670000002,0.001548,0.001626,0.004204,-99.365936,109.587616,-121.800751,60.187689,24.83011,13.172254,21.84427,-1.0,-1.0,100.614464,-1.099205,3.127547,-0.029583,-1.94209
841911.058862,0.06930765,0.27812331,9.7519248,0.002747,-0.000838,0.004702,-99.354019,109.615036,-121.824326,60.187689,24.83011,13.172254,21.84427,-1.0,-1.0,100.614464,-1.099205,3.127542,-0.029585,-1.942092
841911.078849,0.08143281,0.30237363,9.74832453,0.002042,0.002544,0.003823,-99.402496,109.572647,-122.010864,60.187689,24.83011,13.172254,21.84427,-1.0,-1.0,100.614464,-1.099205,3.127541,-0.029577,-1.94209
841911.098836,0.07663572,0.30237363,9.763294590000001,0.002305,0.002169,0.002944,-99.27803,109.807495,-121.828049,60.187689,24.83011,13.172254,21.84427,-1.0,-1.0,100.614464,-1.099205,3.127549,-0.029572,-1.94209
841911.118823,0.08188407,0.28590264,9.77452704,0.004355,-0.000904,0.004057,-99.377441,109.789948,-121.602814,60.187689,24.83011,13.172254,21.84427,-1.0,-1.0,100.614464,-1.099205,3.127542,-0.02956,-1.94209
841911.13881,0.07155414,0.30880899,9.74188917,0.003365,0.004504,0.003471,-99.293808,109.536972,-121.984787,60.187689,24.83011,13.172254,21.84427,-1.0,-1.0,100.614464,-1.099205,3.12754,-0.029559,-1.942097
841911.158797,0.07963758,0.29847906,9.74428281,0.003365,0.004504,0.003471,-99.495605,109.591187,-121.961441,60.187689,24.83011,13.172254,21.84427,-1.0,-1.0,100.614464,-1.099205,3.127538,-0.029571,-1.942097
841911.178784,0.07978473,0.29713509,9.7724277,0.004209,0.001385,0.003533,-99.268661,109.76001,-122.044708,60.187689,24.83011,13.172254,21.84427,-1.0,-1.0,100.614464,-1.099205,3.127529,-0.029575,-1.942091
841911.178784,0.07978473,0.29713509,9.7724277,0.004209,0.001385,0.003533,-99.268661,109.76001,-122.044708,60.187689,24.83011,13.172254,21.84427,-1.0,-1.0,100.614464,-1.099205,3.127529,-0.029575,-1.942091
841911.218758,0.07005321,0.31419468,9.74143791,0.004264,-0.000202,0.003612,-99.243866,109.797012,-122.012955,60.187689,24.83011,13.172254,21.84427,-1.0,-1.0,100.614464,-1.099205,3.12753,-0.029585,-1.9421
841911.218758,0.07005321,0.31419468,9.74143791,0.004264,-0.000202,0.003612,-99.243866,109.797012,-122.012955,60.187689,24.83011,13.172254,21.84427,-1.0,-1.0,100.614464,-1.099205,3.12753,-0.029585,-1.9421
841911.258732,0.07784234999999999,0.30775932,9.76300029,0.003826,0.00076,0.004083,-99.552689,109.441864,-122.077164,60.187689,24.83011,13.172254,21.84427,-1.0,-1.0,100.614464,-1.099205,3.127526,-0.029595,-1.942091
841911.298706,0.06436341000000001,0.27872172,9.75671208,0.000876,0.002447,0.0043,-99.322906,109.579865,-122.140396,60.187689,24.83011,13.172254,21.84427,-1.0,-1.0,100.614464,-1.099205,3.127516,-0.029601,-1.942073
841911.318693,0.07648857,0.31374342,9.74832453,0.006376,0.00337,0.003473,-99.31987,109.46637,-121.978317,60.187689,24.83011,13.172254,21.84427,-1.0,-1.0,100.614464,-1.099205,3.12752,-0.029596,-1.942072
841911.33868,0.07244685000000001,0.30701375999999997,9.739642680000001,0.003378,0.004764,0.003711,-99.318634,109.640533,-121.660782,60.187689,24.83011,13.172254,21.84427,-1.0,-1.0,100.614464,-1.099205,3.127528,-0.02961,-1.942067
841911.358667,0.08712261,0.27872172,9.77617512,0.001913,0.002025,0.005397,-99.485245,109.490402,-121.785339,60.187689,24.83011,13.172254,21.84427,-1.0,-1.0,100.614464,-1.099205,3.127548,-0.029604,-1.942056
841911.358667,0.08712261,0.27872172,9.77617512,0.001913,0.002025,0.005397,-99.485245,109.490402,-121.785339,60.187689,24.83011,13.172254,21.84427,-1.0,-1.0,100.614464,-1.099205,3.127548,-0.029604,-1.942056
841911.398641,0.07888221,0.29833191000000003,9.74952135,0.00443,0.002115,0.001834,-99.398758,109.55806,-121.684296,60.187689,24.83011,13.172254,21.84427,-1.0,-1.0,100.614464,-1.099205,3.127545,-0.029611,-1.942044
841911.418628,0.07858791000000001,0.28245933,9.791292330000001,0.002586,0.000748,0.00324,-99.424973,109.679398,-121.857086,60.187689,24.83011,13.172254,21.84427,-1.0,-1.0,100.614464,-1.099205,3.127544,-0.02962,-1.942022
841911.418628,0.07858791000000001,0.28245933,9.791292330000001,0.002586,0.000748,0.00324,-99.424973,109.679398,-121.857086,60.187689,24.83011,13.172254,21.84427,-1.0,-1.0,100.614464,-1.099205,3.127544,-0.02962,-1.942022
841911.418628,0.07858791000000001,0.28245933,9.791292330000001,0.002586,0.000748,0.00324,-99.424973,109.679398,-121.857086,60.187689,24.83011,13.172254,21.84427,-1.0,-1.0,100.614464,-1.099205,3.127544,-0.02962,-1.942022
841911.478589,0.07334937000000001,0.30266793,9.75700638,0.004014,0.002803,0.004026,-99.348007,109.592773,-121.863403,60.187689,24.83011,13.172254,21.84427,-1.0,-1.0,100.614754,-1.122986,3.127546,-0.02963,-1.942003
841911.498576,0.07050447,0.30565998000000005,9.759556980000001,0.002048,0.00457,0.002344,-99.428375,109.514252,-121.909515,60.187689,24.83011,13.172254,21.84427,-1.0,-1.0,100.614754,-1.122986,3.127542,-0.029637,-1.941996
841911.498576,0.07050447,0.30565998000000005,9.759556980000001,0.002048,0.00457,0.002344,-99.428375,109.514252,-121.909515,60.187689,24.83011,13.172254,21.84427,-1.0,-1.0,100.614754,-1.122986,3.127542,-0.029637,-1.941996
841911.53855,0.08248248000000001,0.30042144,9.755809560000001,0.005476,0.002089,0.002361,-99.31694,109.609802,-122.104675,60.187689,24.83011,13.172254,21.84427,-1.0,-1.0,100.614754,-1.122986,3.127565,-0.029632,-1.941972
841911.558537,0.06945480000000001,0.31419468,9.75207195,0.003076,0.004934,0.003764,-99.497986,109.608765,-121.660278,60.187689,24.83011,13.172254,21.84427,-1.0,-1.0,100.614754,-1.122986,3.127575,-0.029642,-1.941965
841911.558537,0.06945480000000001,0.31419468,9.75207195,0.003076,0.004934,0.003764,-99.497986,109.608765,-121.660278,60.187689,24.83011,13.172254,21.84427,-1.0,-1.0,100.614754,-1.122986,3.127575,-0.029642,-1.941965
841911.598511,0.07304526,0.29938158000000004,9.760008240000001,0.004638,0.002229,0.003542,-99.348755,109.695862,-121.80246,60.187689,24.83011,13.172254,21.84427,-1.0,-1.0,100.614754,-1.122986,3.127587,-0.029661,-1.941973
841911.618498,0.08053028999999999,0.30716091,9.75700638,0.001399,0.003073,0.005273,-99.283661,109.50383,-121.494003,60.187689,24.83011,13.172254,21.84427,-1.0,-1.0,100.614754,-1.122986,3.127594,-0.02966,-1.941976
841911.618498,0.08053028999999999,0.30716091,9.75700638,0.001399,0.003073,0.005273,-99.283661,109.50383,-121.494003,60.187689,24.83011,13.172254,21.84427,-1.0,-1.0,100.614754,-1.122986,3.127594,-0.02966,-1.941976
841911.618498,0.08053028999999999,0.30716091,9.75700638,0.001399,0.003073,0.005273,-99.283661,109.50383,-121.494003,60.187689,24.83011,13.172254,21.84427,-1.0,-1.0,100.614754,-1.122986,3.127594,-0.02966,-1.941976
841911.678459,0.08277678,0.29728224000000003,9.75850731,0.003056,0.002131,0.004978,-99.511627,109.47821,-121.784775,60.187689,24.83011,13.172254,21.84427,-1.0,-1.0,100.614754,-1.122986,3.127621,-0.02966,-1.941982
841911.698446,0.07574301000000001,0.29189655000000003,9.755368110000001,0.004695,0.001216,0.003518,-99.511627,109.47821,-121.784775,60.187689,24.83011,13.172254,21.84427,-1.0,-1.0,100.614754,-1.122986,3.127617,-0.029667,-1.941991
841911.718433,0.06271533,0.29922462000000005,9.73874997,0.001424,0.003327,0.004429,-99.527222,109.579315,-121.678574,60.187689,24.83011,13.172254,21.84427,-1.0,-1.0,100.614754,-1.122986,3.12762,-0.029683,-1.941983
841911.73842,0.0779895,0.29414304,9.768690090000002,0.004762,0.001711,0.003909,-99.553482,109.555557,-121.962524,60.187689,24.83011,13.172254,21.84427,-1.0,-1.0,100.614754,-1.122986,3.127634,-0.029684,-1.941978
841911.758407,0.07229970000000001,0.28889469,9.75731049,0.001755,0.002901,0.00268,-99.716446,109.586334,-122.037094,60.187689,24.83011,13.172254,21.84427,-1.0,-1.0,100.614754,-1.122986,3.127629,-0.029693,-1.941979
841911.778394,0.08726976,0.30221667,9.746235,0.003201,0.003028,0.004099,-99.694199,109.4664,-122.185089,60.187689,24.83011,13.172254,21.84427,-1.0,-1.0,100.614754,-1.122986,3.127639,-0.029693,-1.94197
841911.778394,0.08726976,0.30221667,9.746235,0.003201,0.003028,0.004099,-99.694199,109.4664,-122.185089,60.187689,24.83011,13.172254,21.84427,-1.0,-1.0,100.614754,-1.122986,3.127639,-0.029693,-1.94197
841911.818368,0.0868185,0.30716091,9.75372003,0.001196,0.003846,0.003077,-99.605927,109.487274,-122.066772,60.187689,24.83011,13.172254,21.84427,-1.0,-1.0,100.614754,-1.122986,3.127652,-0.029713,-1.941958
841911.838355,0.06601149,0.30462012,9.76464837,0.005963,0.00145,0.003972,-99.677719,109.564285,-121.977142,60.187689,24.83011,13.172254,21.84427,-1.0,-1.0,100.614754,-1.122986,3.12766,-0.029716,-1.94195
841911.838355,0.06601149,0.30462012,9.76464837,0.005963,0.00145,0.003972,-99.677719,109.564285,-121.977142,60.187689,24.83011,13.172254,21.84427,-1.0,-1.0,100.614754,-1.122986,3.12766,-0.029716,-1.94195
841911.858342,0.08517042000000001,0.30761217,9.767787570000001,0.002621,0.001957,0.002781,-99.380981,109.628754,-121.783936,60.187689,24.83011,13.172254,21.84427,-1.0,-1.0,100.614754,-1.122986,3.12766,-0.029738,-1.941957
841911.858342,0.08517042000000001,0.30761217,9.767787570000001,0.002621,0.001957,0.002781,-99.380981,109.628754,-121.783936,60.187689,24.83011,13.172254,21.84427,-1.0,-1.0,100.614754,-1.122986,3.12766,-0.029738,-1.941957
841911.858342,0.08517042000000001,0.30761217,9.767787570000001,0.002621,0.001957,0.002781,-99.380981,109.628754,-121.783936,60.187689,24.83011,13.172254,21.84427,-1.0,-1.0,100.614754,-1.122986,3.12766,-0.029738,-1.941957
841911.858342,0.08517042000000001,0.30761217,9.767787570000001,0.002621,0.001957,0.002781,-99.380981,109.628754,-121.783936,60.187689,24.83011,13.172254,21.84427,-1.0,-1.0,100.614754,-1.122986,3.12766,-0.029738,-1.941957
841911.958277,0.07289811,0.29683098,9.74997261,0.003719,0.000228,0.002924,-99.535645,109.749069,-121.99736,60.187689,24.83011,13.172254,21.84427,-1.0,-1.0,100.614754,-1.122986,3.127722,-0.029791,-1.941919
841911.978264,0.07424208,0.29429019,9.77797035,0.000805,0.003146,0.004434,-99.461304,109.902893,-122.095535,60.187689,24.83011,13.172254,21.84427,-1.0,-1.0,100.614754,-1.122986,3.127734,-0.029806,-1.941898
841911.978264,0.07424208,0.29429019,9.77797035,0.000805,0.003146,0.004434,-99.461304,109.902893,-122.095535,60.187689,24.83011,13.172254,21.84427,-1.0,-1.0,100.614754,-1.122986,3.127734,-0.029806,-1.941898
841911.978264,0.07424208,0.29429019,9.77797035,0.000805,0.003146,0.004434,-99.461304,109.902893,-122.095535,60.187689,24.83011,13.172254,21.84427,-1.0,-1.0,100.614754,-1.122986,3.127734,-0.029806,-1.941898
841911.978264,0.07424208,0.29429019,9.77797035,0.000805,0.003146,0.004434,-99.461304,109.902893,-122.095535,60.187689,24.83011,13.172254,21.84427,-1.0,-1.0,100.614754,-1.122986,3.127734,-0.029806,-1.941898
841911.998251,0.0865242,0.30386475,9.755211150000001,0.004752,-0.001532,0.00283,-99.493973,109.470673,-122.305786,60.187689,24.83011,13.172254,21.84427,-1.0,-1.0,100.614754,-1.122986,3.127766,-0.029808,-1.941896
841912.098186,0.07484049000000001,0.30252078000000004,9.771525180000001,0.002854,0.002223,0.005617,-99.435501,109.672379,-121.902481,60.187689,24.83011,13.172254,21.84427,-1.0,-1.0,100.614754,-1.122986,3.12789,-0.029902,-1.941837
841912.098186,0.07484049000000001,0.30252078000000004,9.771525180000001,0.002854,0.002223,0.005617,-99.435501,109.672379,-121.902481,60.187689,24.83011,13.172254,21.84427,-1.0,-1.0,100.614754,-1.122986,3.12789,-0.029902,-1.941837
841912.13816,0.07394778,0.30402171,9.74578374,0.00134,0.001425,0.003702,-99.452148,109.660995,-121.92218,60.187689,24.83011,13.172254,21.84427,-1.0,-1.0,100.614754,-1.122986,3.127977,-0.029907,-1.941842
841912.13816,0.07394778,0.30402171,9.74578374,0.00134,0.001425,0.003702,-99.452148,109.660995,-121.92218,60.187689,24.83011,13.172254,21.84427,-1.0,-1.0,100.614754,-1.122986,3.127977,-0.029907,-1.941842
841912.158147,0.07844076,0.30701375999999997,9.76030254,0.003532,0.002122,0.002684,-99.279404,109.643005,-121.562332,60.187689,24.83011,13.172254,21.84427,-1.0,-1.0,100.614754,-1.122986,3.128012,-0.029924,-1.941835
841912.158147,0.07844076,0.30701375999999997,9.76030254,0.003532,0.002122,0.002684,-99.279404,109.643005,-121.562332,60.187689,24.83011,13.172254,21.84427,-1.0,-1.0,100.614754,-1.122986,3.128012,-0.029924,-1.941835
841912.218109,0.07454619,0.30402171,9.76568823,0.005724,-9.3e-05,0.00371,-99.487061,109.647827,-121.523392,60.187689,24.83011,13.172254,21.84427,-1.0,-1.0,100.614754,-1.122986,3.128105,-0.029926,-1.941852
841912.238096,0.06586434000000001,0.30132396,9.75716334,0.002706,0.003553,0.002698,-99.304977,109.557785,-121.868515,60.187689,24.83011,13.172254,21.84427,-1.0,-1.0,100.614754,-1.122986,3.128129,-0.029954,-1.941855
841912.238096,0.06586434000000001,0.30132396,9.75716334,0.002706,0.003553,0.002698,-99.304977,109.557785,-121.868515,60.187689,24.83011,13.172254,21.84427,-1.0,-1.0,100.614754,-1.122986,3.128129,-0.029954,-1.941855
841912.238096,0.06586434000000001,0.30132396,9.75716334,0.002706,0.003553,0.002698,-99.304977,109.557785,-121.868515,60.187689,24.83011,13.172254,21.84427,-1.0,-1.0,100.614754,-1.122986,3.128129,-0.029954,-1.941855
841912.258083,0.08772102000000001,0.29114118,9.78156081,0.00332,0.000817,0.004385,-99.492676,109.666199,-121.844559,60.187689,24.83011,13.172254,21.84427,-1.0,-1.0,100.614754,-1.122986,3.128155,-0.029959,-1.941858
841912.298057,0.07663572,0.30297204000000005,9.746235,0.002655,0.002889,0.003555,-99.342621,109.727921,-121.73468,60.187689,24.83011,13.172254,21.84427,-1.0,-1.0,100.614754,-1.122986,3.128208,-0.029978,-1.94184
841912.338031,0.0634707,0.29982303,9.74174202,0.002698,0.00126,0.002239,-99.493103,109.658035,-121.919006,60.187689,24.83011,13.172254,21.84427,-1.0,-1.0,100.614754,-1.122986,3.128278,-0.030003,-1.941832
841912.338031,0.0634707,0.29982303,9.74174202,0.002698,0.00126,0.002239,-99.493103,109.658035,-121.919006,60.187689,24.83011,13.172254,21.84427,-1.0,-1.0,100.614754,-1.122986,3.128278,-0.030003,-1.941832
841912.358018,0.06047865000000001,0.3153915,9.75865446,0.002828,0.000954,0.00456,-99.426956,109.632248,-122.056259,60.187689,24.83011,13.172254,21.84427,-1.0,-1.0,100.614754,-1.122986,3.128306,-0.030013,-1.941823
841912.397992,0.08502327,0.30536568000000003,9.77392863,0.000536,0.003798,0.00601,-99.482925,109.634003,-121.880249,60.187689,24.83011,13.172254,21.84427,-1.0,-1.0,100.614754,-1.122986,3.12837,-0.03003,-1.941815
841912.417979,0.08801532000000001,0.31658832000000003,9.75685923,0.003935,0.0007,0.003997,-99.482925,109.634003,-121.880249,60.187689,24.83011,13.172254,21.84427,-1.0,-1.0,100.614754,-1.122986,3.128405,-0.030034,-1.941826
841912.437966,0.07469334000000001,0.29548701,9.77437008,0.002058,0.002408,0.004383,-99.324158,109.664047,-121.684494,60.187689,24.83011,13.172254,21.84427,-1.0,-1.0,100.614754,-1.122986,3.128427,-0.030053,-1.94182
841912.457953,0.06780672,0.31299785999999996,9.755966520000001,0.00042,0.001732,0.003128,-99.505066,109.757858,-121.451874,60.187689,24.83011,13.172254,21.84427,-1.0,-1.0,100.614754,-1.122986,3.12847,-0.030059,-1.94183
841912.457953,0.06780672,0.31299785999999996,9.755966520000001,0.00042,0.001732,0.003128,-99.505066,109.757858,-121.451874,60.187689,24.83011,13.172254,21.84427,-1.0,-1.0,100.614754,-1.122986,3.12847,-0.030059,-1.94183
841912.497927,0.07424208,0.30866184,9.784101600000001,0.001966,0.002789,0.003487,-99.301926,109.636765,-121.447098,60.187689,24.83011,13.172254,21.84427,-1.0,-1.0,100.614754,-1.122986,3.128516,-0.030076,-1.941812
841912.497927,0.07424208,0.30866184,9.784101600000001,0.001966,0.002789,0.003487,-99.301926,109.636765,-121.447098,60.187689,24.83011,13.172254,21.84427,-1.0,-1.0,100.614754,-1.122986,3.128516,-0.030076,-1.941812
841912.537901,0.07679268,0.31075136999999997,9.74533248,0.003732,0.003324,0.003369,-99.193192,109.787827,-121.566559,60.187689,24.83011,13.172254,21.84427,-1.0,-1.0,100.614754,-1.122986,3.128598,-0.030091,-1.941786
841912.537901,0.07679268,0.31075136999999997,9.74533248,0.003732,0.003324,0.003369,-99.193192,109.787827,-121.566559,60.187689,24.83011,13.172254,21.84427,-1.0,-1.0,100.614754,-1.122986,3.128598,-0.030091,-1.941786
841912.577875,0.08471916,0.29383893,9.78574968,0.003295,0.002532,0.00396,-99.199234,109.781799,-121.670624,60.187689,24.83011,13.172254,21.84427,-1.0,-1.0,100.615089,-1.15205,3.1287,-0.03012,-1.941788
841912.597862,0.06571719000000001,0.30462012,9.763893,0.001832,0.001968,0.003671,-99.276825,109.88501,-121.683792,60.187689,24.83011,13.172254,21.84427,-1.0,-1.0,100.615089,-1.15205,3.128753,-0.030129,-1.941777
841912.597862,0.06571719000000001,0.30462012,9.763893,0.001832,0.001968,0.003671,-99.276825,109.88501,-121.683792,60.187689,24.83011,13.172254,21.84427,-1.0,-1.0,100.615089,-1.15205,3.128753,-0.030129,-1.941777
841912.637836,0.09040896000000001,0.29878317000000004,9.77512545,0.004946,0.002027,0.002795,-99.230728,109.761536,-121.540344,60.187689,24.83011,13.172254,21.84427,-1.0,-1.0,100.615089,-1.15205,3.128858,-0.030146,-1.941786
841912.657823,0.08696565,0.3034233,9.77692068,0.001351,0.002749,0.005426,-99.401581,109.81073,-121.688156,60.187689,24.83011,13.172254,21.84427,-1.0,-1.0,100.615089,-1.15205,3.128911,-0.030165,-1.941779
841912.657823,0.08696565,0.3034233,9.77692068,0.001351,0.002749,0.005426,-99.401581,109.81073,-121.688156,60.187689,24.83011,13.172254,21.84427,-1.0,-1.0,100.615089,-1.15205,3.128911,-0.030165,-1.941779
841912.697797,0.07139718,0.29293641,9.818534699999999,0.003863,-0.000406,0.002091,-99.22226,109.685669,-121.707092,60.187689,24.83011,13.172254,21.84427,-1.0,-1.0,100.615089,-1.15205,3.129008,-0.030204,-1.941773
841912.717784,0.07035732,0.28396026,9.7784118,-0.000577,0.00185,0.003738,-99.53508,109.522629,-121.903641,60.187689,24.83011,13.172254,21.84427,-1.0,-1.0,100.615089,-1.15205,3.129062,-0.030207,-1.941758
841912.737771,0.07409493,0.32347494000000004,9.75446559,0.005966,-0.000163,0.003767,-99.200638,109.591034,-121.592422,60.187689,24.83011,13.172254,21.84427,-1.0,-1.0,100.615089,-1.15205,3.129107,-0.03022,-1.941761
841912.757758,0.07813665,0.25866027,9.83934171,0.000834,-0.002271,0.00449,-99.139648,109.496582,-121.623184,60.187689,24.83011,13.172254,21.84427,-1.0,-1.0,100.615089,-1.15205,3.129166,-0.030252,-1.941748
841912.777745,0.05927202,0.30117681,9.755064,0.000451,-0.000369,0.003999,-99.293945,109.530731,-121.822083,60.187689,24.83011,13.172254,21.84427,-1.0,-1.0,100.615089,-1.15205,3.129199,-0.030248,-1.941743
841912.777745,0.05927202,0.30117681,9.755064,0.000451,-0.000369,0.003999,-99.293945,109.530731,-121.822083,60.187689,24.83011,13.172254,21.84427,-1.0,-1.0,100.615089,-1.15205,3.129199,-0.030248,-1.941743
841912.817719,0.06811083000000001,0.25851312000000004,9.843383430000001,-0.000399,-0.001802,0.003249,-99.409378,109.549271,-121.753006,60.187689,24.83011,13.172254,21.84427,-1.0,-1.0,100.615089,-1.15205,3.129286,-0.030296,-1.941728
841912.857693,0.07903917,0.31614687,9.69503661,0.004077,0.000622,0.003846,-99.352295,109.47493,-121.923248,60.187689,24.83011,13.172254,21.84427,-1.0,-1.0,100.615089,-1.15205,3.12937,-0.030301,-1.94171
841912.857693,0.07903917,0.31614687,9.69503661,0.004077,0.000622,0.003846,-99.352295,109.47493,-121.923248,60.187689,24.83011,13.172254,21.84427,-1.0,-1.0,100.615089,-1.15205,3.12937,-0.030301,-1.94171
841912.87768,0.07739109000000001,0.26315325,9.7986204,0.000702,-0.00351,0.004049,-99.201248,109.503708,-121.582184,60.187689,24.83011,13.172254,21.84427,-1.0,-1.0,100.615089,-1.15205,3.129408,-0.030318,-1.941705
841912.87768,0.07739109000000001,0.26315325,9.7986204,0.000702,-0.00351,0.004049,-99.201248,109.503708,-121.582184,60.187689,24.83011,13.172254,21.84427,-1.0,-1.0,100.615089,-1.15205,3.129408,-0.030318,-1.941705
841912.937641,0.06751242,0.26929431000000004,9.77976558,0.002246,-0.001416,0.004098,-99.347717,109.859985,-121.658875,60.187689,24.83011,13.172254,21.84427,-1.0,-1.0,100.615089,-1.15205,3.129527,-0.030365,-1.94169
841912.937641,0.06751242,0.26929431000000004,9.77976558,0.002246,-0.001416,0.004098,-99.347717,109.859985,-121.658875,60.187689,24.83011,13.172254,21.84427,-1.0,-1.0,100.615089,-1.15205,3.129527,-0.030365,-1.94169
841912.977615,0.051796800000000004,0.3122523,9.69593913,0.002157,0.002356,0.00396,-99.265381,109.825287,-121.509079,60.187689,24.83011,13.172254,21.84427,-1.0,-1.0,100.615089,-1.15205,3.129624,-0.03038,-1.94167
841912.977615,0.051796800000000004,0.3122523,9.69593913,0.002157,0.002356,0.00396,-99.265381,109.825287,-121.509079,60.187689,24.83011,13.172254,21.84427,-1.0,-1.0,100.615089,-1.15205,3.129624,-0.03038,-1.94167
841912.997602,0.08981055,0.27168795,9.772133400000001,0.004566,-0.004451,0.003886,-99.285721,109.613007,-121.727524,60.187689,24.83011,13.172254,21.84427,-1.0,-1.0,100.615089,-1.15205,3.129678,-0.030404,-1.941653
841913.037576,0.06421626,0.31943322,9.71913978,0.004778,-0.001449,0.001745,-99.223251,109.634521,-121.802094,60.187689,24.83011,13.172254,21.84427,-1.0,-1.0,100.615089,-1.15205,3.129752,-0.030433,-1.941637
841913.057563,0.07380063,0.29668383,9.77347737,0.003924,-0.00168,0.003878,-99.318085,109.54364,-121.650375,60.187689,24.83011,13.172254,21.84427,-1.0,-1.0,100.615089,-1.15205,3.129803,-0.030463,-1.941627
841913.057563,0.07380063,0.29668383,9.77347737,0.003924,-0.00168,0.003878,-99.318085,109.54364,-121.650375,60.187689,24.83011,13.172254,21.84427,-1.0,-1.0,100.615089,-1.15205,3.129803,-0.030463,-1.941627
841913.057563,0.07380063,0.29668383,9.77347737,0.003924,-0.00168,0.003878,-99.318085,109.54364,-121.650375,60.187689,24.83011,13.172254,21.84427,-1.0,-1.0,100.615089,-1.15205,3.129803,-0.030463,-1.941627
841913.07755,0.063765,0.28680516,9.784405710000001,0.000649,-0.001522,0.005103,-99.426468,109.605545,-121.786057,60.187689,24.83011,13.172254,21.84427,-1.0,-1.0,100.615089,-1.15205,3.129847,-0.030473,-1.941617
841913.117524,0.06452037000000001,0.29893032,9.74219328,0.00382,-0.001649,0.003135,-99.094223,109.516403,-121.420746,60.187689,24.83011,13.172254,21.84427,-1.0,-1.0,100.615089,-1.15205,3.129938,-0.030504,-1.941622
841913.157498,0.06122421,0.30386475,9.76240188,0.003882,-0.000675,0.004684,-99.327057,109.703003,-121.671204,60.187689,24.83011,13.172254,21.84427,-1.0,-1.0,100.615089,-1.15205,3.130013,-0.030529,-1.941628
841913.157498,0.06122421,0.30386475,9.76240188,0.003882,-0.000675,0.004684,-99.327057,109.703003,-121.671204,60.187689,24.83011,13.172254,21.84427,-1.0,-1.0,100.615089,-1.15205,3.130013,-0.030529,-1.941628
841913.157498,0.06122421,0.30386475,9.76240188,0.003882,-0.000675,0.004684,-99.327057,109.703003,-121.671204,60.187689,24.83011,13.172254,21.84427,-1.0,-1.0,100.615089,-1.15205,3.130013,-0.030529,-1.941628
841913.157498,0.06122421,0.30386475,9.76240188,0.003882,-0.000675,0.004684,-99.327057,109.703003,-121.671204,60.187689,24.83011,13.172254,21.84427,-1.0,-1.0,100.615089,-1.15205,3.130013,-0.030529,-1.941628
841913.237446,0.06975891000000001,0.28965006000000004,9.74728467,0.002744,-0.000826,0.004483,-99.404266,109.58226,-122.163513,60.187689,24.83011,13.172254,21.84427,-1.0,-1.0,100.615089,-1.15205,3.130209,-0.030574,-1.941611
841913.257433,0.06825798,0.27437589,9.78844743,0.003518,-0.000663,0.002858,-99.520615,109.665802,-122.019257,60.187689,24.83011,13.172254,21.84427,-1.0,-1.0,100.615089,-1.15205,3.130251,-0.030589,-1.941612
841913.257433,0.06825798,0.27437589,9.78844743,0.003518,-0.000663,0.002858,-99.520615,109.665802,-122.019257,60.187689,24.83011,13.172254,21.84427,-1.0,-1.0,100.615089,-1.15205,3.130251,-0.030589,-1.941612
841913.297407,0.06421626,0.30147111000000004,9.73425699,0.001553,0.000824,0.00464,-99.208984,109.755814,-121.55101,60.187689,24.83011,13.172254,21.84427,-1.0,-1.0,100.615089,-1.15205,3.130333,-0.030617,-1.941606
841913.317394,0.08277678,0.28381311,9.77048532,0.004868,-0.001558,0.002968,-99.2966,109.589478,-121.611008,60.187689,24.83011,13.172254,21.84427,-1.0,-1.0,100.615089,-1.15205,3.130392,-0.030628,-1.941604
841913.337381,0.06122421,0.29818476,9.76972995,-7.5e-05,0.000723,0.004047,-99.350235,109.667694,-121.512009,60.187689,24.83011,13.172254,21.84427,-1.0,-1.0,100.615089,-1.15205,3.130427,-0.030638,-1.941593
841913.357368,0.0666099,0.29862621,9.75162069,0.002911,-0.00141,0.004618,-99.47731,109.472839,-121.90184,60.187689,24.83011,13.172254,21.84427,-1.0,-1.0,100.615089,-1.15205,3.130474,-0.030645,-1.941581
841913.377355,0.07184844,0.27482715,9.76688505,0.003314,0.000721,0.002111,-99.053696,109.797363,-121.660583,60.187689,24.83011,13.172254,21.84427,-1.0,-1.0,100.615089,-1.15205,3.130522,-0.030662,-1.941588
841913.397342,0.058977720000000004,0.29563416000000003,9.77797035,0.000497,-0.00056,0.004833,-99.230545,109.692413,-121.546036,60.187689,24.83011,13.172254,21.84427,-1.0,-1.0,100.615089,-1.15205,3.130574,-0.030663,-1.941581
841913.417329,0.06466752,0.2977335,9.73920123,0.004033,0.000229,0.0014,-99.097107,109.505585,-121.583786,60.187689,24.83011,13.172254,21.84427,-1.0,-1.0,100.615089,-1.15205,3.130622,-0.030676,-1.941588
841913.437316,0.07364367000000001,0.30206952000000004,9.76628664,0.002254,-0.002406,0.003685,-99.349762,109.61319,-121.767624,60.187689,24.83011,13.172254,21.84427,-1.0,-1.0,100.615089,-1.15205,3.130669,-0.030693,-1.941571
841913.457303,0.05912487,0.27946728,9.759252870000001,0.002255,-0.00084,0.004492,-99.403809,109.763016,-121.998657,60.187689,24.83011,13.172254,21.84427,-1.0,-1.0,100.615089,-1.15205,3.130713,-0.030695,-1.941575
841913.47729,0.06795387,0.28965006000000004,9.75716334,0.002546,-0.00153,0.003872,-99.262604,109.622025,-122.10994,60.187689,24.83011,13.172254,21.84427,-1.0,-1.0,100.615089,-1.15205,3.130754,-0.030701,-1.941571
841913.497277,0.06047865000000001,0.29069973,9.74099646,0.00104,-0.001682,0.003136,-99.456223,109.610825,-121.909653,60.187689,24.83011,13.172254,21.84427,-1.0,-1.0,100.615089,-1.15205,3.130794,-0.030704,-1.941558
841913.517264,0.06900354,0.28485297000000004,9.763598700000001,0.003589,-0.001963,0.005129,-99.29303,109.745575,-121.94342,60.187689,24.83011,13.172254,21.84427,-1.0,-1.0,100.615089,-1.15205,3.130815,-0.030705,-1.941543
841913.537251,0.07858791000000001,0.29398608000000004,9.751326390000001,0.000808,-0.00065,0.001518,-99.310684,109.731018,-121.943375,60.187689,24.83011,13.172254,21.84427,-1.0,-1.0,100.615089,-1.15205,3.130842,-0.03071,-1.941548
841913.577225,0.06751242,0.28650105,9.75491685,0.005431,-0.001814,0.004946,-99.279587,109.744247,-121.706055,60.187689,24.83011,13.172254,21.84427,-1.0,-1.0,100.615089,-1.15205,3.13094,-0.030724,-1.941533
841913.577225,0.06751242,0.28650105,9.75491685,0.005431,-0.001814,0.004946,-99.279587,109.744247,-121.706055,60.187689,24.83011,13.172254,21.84427,-1.0,-1.0,100.615089,-1.15205,3.13094,-0.030724,-1.941533
841913.617199,0.06541308000000001,0.29114118,9.740093940000001,0.00103,-0.000454,0.004732,-99.346039,109.685699,-121.707626,60.187689,24.83011,13.172254,21.84427,-1.0,-1.0,100.615089,-1.15205,3.131031,-0.030722,-1.94152
841913.617199,0.06541308000000001,0.29114118,9.740093940000001,0.00103,-0.000454,0.004732,-99.346039,109.685699,-121.707626,60.187689,24.83011,13.172254,21.84427,-1.0,-1.0,100.615089,-1.15205,3.131031,-0.030722,-1.94152
841913.657173,0.06316659000000001,0.29503575000000004,9.752219100000001,-0.000423,-0.001165,0.0037,-99.133911,109.609344,-121.398331,60.187689,24.83011,13.172254,21.84427,-1.0,-1.0,100.615593,-1.194328,3.131103,-0.030748,-1.9415
841913.657173,0.06316659000000001,0.29503575000000004,9.752219100000001,-0.000423,-0.001165,0.0037,-99.133911,109.609344,-121.398331,60.187689,24.83011,13.172254,21.84427,-1.0,-1.0,100.615593,-1.194328,3.131103,-0.030748,-1.9415
841913.67716,0.06706116000000001,0.29653668000000005,9.74607804,0.006516,-0.000847,0.004159,-99.416275,109.809555,-121.511108,60.187689,24.83011,13.172254,21.84427,-1.0,-1.0,100.615593,-1.194328,3.131139,-0.030756,-1.9415
841913.697147,0.06795387,0.28665801,9.75401433,0.001981,-0.002427,0.003137,-99.317108,109.735352,-121.903458,60.187689,24.83011,13.172254,21.84427,-1.0,-1.0,100.615593,-1.194328,3.131183,-0.030778,-1.941481
841913.737121,0.07364367000000001,0.3005784,9.75207195,0.004835,-0.003571,0.004288,-99.407547,109.793503,-121.461395,60.187689,24.83011,13.172254,21.84427,-1.0,-1.0,100.615593,-1.194328,3.131253,-0.030789,-1.941473
841913.737121,0.07364367000000001,0.3005784,9.75207195,0.004835,-0.003571,0.004288,-99.407547,109.793503,-121.461395,60.187689,24.83011,13.172254,21.84427,-1.0,-1.0,100.615593,-1.194328,3.131253,-0.030789,-1.941473
841913.777095,0.06706116000000001,0.28665801,9.75431844,0.003277,-0.002253,0.004853,-99.30983,109.803406,-121.591904,60.187689,24.83011,13.172254,21.84427,-1.0,-1.0,100.615593,-1.194328,3.131313,-0.030816,-1.941436
841913.777095,0.06706116000000001,0.28665801,9.75431844,0.003277,-0.002253,0.004853,-99.30983,109.803406,-121.591904,60.187689,24.83011,13.172254,21.84427,-1.0,-1.0,100.615593,-1.194328,3.131313,-0.030816,-1.941436
841913.817069,0.06780672,0.29922462000000005,9.740093940000001,0.000677,0.000397,0.004412,-99.275528,109.762115,-121.653961,60.187689,24.83011,13.172254,21.84427,-1.0,-1.0,100.615593,-1.194328,3.131397,-0.03085,-1.941436
841913.837056,0.07095573000000001,0.29039562,9.75312162,0.003214,-0.001189,0.004759,-99.30603,109.687531,-121.583954,60.187689,24.83011,13.172254,21.84427,-1.0,-1.0,100.615593,-1.194328,3.131442,-0.030852,-1.941426
841913.857043,0.04879494,0.30147111000000004,9.756564930000001,0.001397,-0.000603,0.004106,-99.410965,109.726456,-121.4487,60.187689,24.83011,13.172254,21.84427,-1.0,-1.0,100.615593,-1.194328,3.131498,-0.030857,-1.941411
841913.87703,0.07125003,0.29054277,9.73231461,0.001897,-0.000182,0.003992,-99.410965,109.726456,-121.4487,60.187689,24.83011,13.172254,21.84427,-1.0,-1.0,100.615593,-1.194328,3.131543,-0.030854,-1.941399
841913.897017,0.08188407,0.29683098,9.756113670000001,0.00517,-0.002669,0.003148,-99.308609,109.696899,-121.593613,60.187689,24.83011,13.172254,21.84427,-1.0,-1.0,100.615593,-1.194328,3.131574,-0.030879,-1.941387
841913.917004,0.06765957,0.28755072000000004,9.76913154,0.002227,0.000438,0.002738,-99.45166,109.680267,-121.941025,60.187689,24.83011,13.172254,21.84427,-1.0,-1.0,100.615593,-1.194328,3.131606,-0.030896,-1.941368
841913.936991,0.07289811,0.29173959000000005,9.76269618,0.002335,-0.002373,0.003636,-99.421204,109.589218,-121.674316,60.187689,24.83011,13.172254,21.84427,-1.0,-1.0,100.615593,-1.194328,3.131646,-0.030909,-1.941368
841913.956978,0.06421626,0.29353482000000003,9.752366250000001,0.004908,-0.001226,0.004165,-99.595642,109.570847,-121.937851,60.187689,24.83011,13.172254,21.84427,-1.0,-1.0,100.615593,-1.194328,3.131685,-0.030921,-1.941353
841913.976965,0.06601149,0.27781920000000004,9.759409830000001,0.000682,5.4e-05,0.003655,-99.361359,109.752106,-121.921326,60.187689,24.83011,13.172254,21.84427,-1.0,-1.0,100.615593,-1.194328,3.131722,-0.030932,-1.941352
841913.996952,0.07648857,0.28965006000000004,9.756564930000001,0.003616,-0.00204,0.00496,-99.381744,110.003464,-121.681183,60.187689,24.83011,13.172254,21.84427,-1.0,-1.0,100.615593,-1.194328,3.131762,-0.030924,-1.941341
841914.016939,0.06646275,0.30850488,9.76030254,0.002903,-0.000448,0.004576,-99.430618,109.881531,-121.879608,60.187689,24.83011,13.172254,21.84427,-1.0,-1.0,100.615593,-1.194328,3.131801,-0.030944,-1.941344
841914.036926,0.07035732,0.27991854,9.75027672,0.001422,-0.002075,0.005487,-99.514771,110.025986,-121.759109,60.187689,24.83011,13.172254,21.84427,-1.0,-1.0,100.615593,-1.194328,3.13185,-0.030957,-1.94133
841914.056913,0.07454619,0.30072555,9.75850731,0.004792,-0.000532,0.004027,-99.212875,109.871719,-121.845291,60.187689,24.83011,13.172254,21.84427,-1.0,-1.0,100.615593,-1.194328,3.131877,-0.030964,-1.941329
841914.056913,0.07454619,0.30072555,9.75850731,0.004792,-0.000532,0.004027,-99.212875,109.871719,-121.845291,60.187689,24.83011,13.172254,21.84427,-1.0,-1.0,100.615593,-1.194328,3.131877,-0.030964,-1.941329
841914.096887,0.07125003,0.29219085,9.74877579,0.003029,-0.002494,0.004576,-99.254868,109.996841,-121.633774,60.187689,24.83011,13.172254,21.84427,-1.0,-1.0,100.615593,-1.194328,3.131958,-0.030969,-1.941326
841914.116874,0.08053028999999999,0.29084688000000003,9.752219100000001,0.003998,-0.000762,0.004206,-99.593643,109.833221,-121.79776,60.187689,24.83011,13.172254,21.84427,-1.0,-1.0,100.615593,-1.194328,3.132009,-0.030984,-1.941315
841914.136861,0.08457201,0.27542556,9.76149936,0.000771,-0.000804,0.005175,-99.428665,109.89122,-122.040298,60.187689,24.83011,13.172254,21.84427,-1.0,-1.0,100.615593,-1.194328,3.132052,-0.030981,-1.941316
841914.156848,0.06421626,0.29293641,9.752219100000001,0.002962,-0.001422,0.002535,-99.223068,109.890411,-121.900024,60.187689,24.83011,13.172254,21.84427,-1.0,-1.0,100.615593,-1.194328,3.132089,-0.030983,-1.941307
841914.176835,0.07184844,0.29833191000000003,9.76135221,0.000963,-0.001358,0.002254,-99.235001,109.940811,-121.772446,60.187689,24.83011,13.172254,21.84427,-1.0,-1.0,100.615593,-1.194328,3.13212,-0.030992,-1.941297
841914.196822,0.06825798,0.29967588,9.74967831,0.003087,-0.003279,0.003791,-99.351257,109.675919,-122.053848,60.187689,24.83011,13.172254,21.84427,-1.0,-1.0,100.615593,-1.194328,3.132162,-0.030988,-1.941279
841914.216809,0.08248248000000001,0.29264211,9.74803023,0.004764,-0.001109,0.003262,-99.103943,109.786911,-122.091019,60.187689,24.83011,13.172254,21.84427,-1.0,-1.0,100.615593,-1.194328,3.132186,-0.031001,-1.94128
841914.236796,0.07753824,0.29338767,9.755966520000001,0.001645,0.00101,0.004043,-99.364304,109.837097,-121.850937,60.187689,24.83011,13.172254,21.84427,-1.0,-1.0,100.615593,-1.194328,3.132245,-0.031007,-1.941282
841914.256783,0.07199559,0.28994436,9.755662410000001,0.004214,-0.001521,0.004472,-99.661377,109.761749,-121.937363,60.187689,24.83011,13.172254,21.84427,-1.0,-1.0,100.615593,-1.194328,3.132278,-0.03101,-1.941287
841914.296757,0.07020036,0.2832147,9.743537250000001,0.002421,-0.000557,0.004,-99.32869,109.824738,-121.609192,60.187689,24.83011,13.172254,21.84427,-1.0,-1.0,100.615593,-1.194328,3.132356,-0.031006,-1.94128
841914.296757,0.07020036,0.2832147,9.743537250000001,0.002421,-0.000557,0.004,-99.32869,109.824738,-121.609192,60.187689,24.83011,13.172254,21.84427,-1.0,-1.0,100.615593,-1.194328,3.132356,-0.031006,-1.94128
841914.336731,0.07035732,0.30252078000000004,9.747726120000001,0.00236,-0.000174,0.001469,-99.464508,109.944778,-121.665009,60.187689,24.83011,13.172254,21.84427,-1.0,-1.0,100.615593,-1.194328,3.13243,-0.03103,-1.941274
841914.336731,0.07035732,0.30252078000000004,9.747726120000001,0.00236,-0.000174,0.001469,-99.464508,109.944778,-121.665009,60.187689,24.83011,13.172254,21.84427,-1.0,-1.0,100.615593,-1.194328,3.13243,-0.03103,-1.941274
841914.376705,0.08412075,0.29398608000000004,9.764942670000002,0.003932,-0.001627,0.004487,-99.313019,109.629883,-122.119614,60.187689,24.83011,13.172254,21.84427,-1.0,-1.0,100.615593,-1.194328,3.132524,-0.031039,-1.941257
841914.376705,0.08412075,0.29398608000000004,9.764942670000002,0.003932,-0.001627,0.004487,-99.313019,109.629883,-122.119614,60.187689,24.83011,13.172254,21.84427,-1.0,-1.0,100.615593,-1.194328,3.132524,-0.031039,-1.941257
841914.416679,0.08935929000000001,0.27991854,9.75372003,0.005129,-0.001976,0.004635,-99.556046,109.486969,-121.908401,60.187689,24.83011,13.172254,21.84427,-1.0,-1.0,100.615593,-1.194328,3.132602,-0.031044,-1.941257
841914.416679,0.08935929000000001,0.27991854,9.75372003,0.005129,-0.001976,0.004635,-99.556046,109.486969,-121.908401,60.187689,24.83011,13.172254,21.84427,-1.0,-1.0,100.615593,-1.194328,3.132602,-0.031044,-1.941257
841914.416679,0.08935929000000001,0.27991854,9.75372003,0.005129,-0.001976,0.004635,-99.556046,109.486969,-121.908401,60.187689,24.83011,13.172254,21.84427,-1.0,-1.0,100.615593,-1.194328,3.132602,-0.031044,-1.941257
841914.456653,0.06825798,0.30237363,9.75341592,0.002514,0.000106,0.006227,-99.586533,109.595764,-122.108459,60.187689,24.83011,13.172254,21.84427,-1.0,-1.0,100.615593,-1.194328,3.132668,-0.031049,-1.941249
841914.496627,0.0577809,0.29233800000000004,9.76809168,-0.000502,-0.00026,0.003557,-99.427414,109.647003,-122.056473,60.187689,24.83011,13.172254,21.84427,-1.0,-1.0,100.615593,-1.194328,3.132744,-0.031074,-1.941251
841914.496627,0.0577809,0.29233800000000004,9.76809168,-0.000502,-0.00026,0.003557,-99.427414,109.647003,-122.056473,60.187689,24.83011,13.172254,21.84427,-1.0,-1.0,100.615593,-1.194328,3.132744,-0.031074,-1.941251
841914.536601,0.06720831000000001,0.28979721,9.76613949,0.003916,0.000322,0.004019,-99.482681,109.5448,-122.113205,60.187689,24.83011,13.172254,21.84427,-1.0,-1.0,100.615593,-1.194328,3.132846,-0.031073,-1.941237
841914.556588,0.05478885,0.28994436,9.752817510000002,0.002048,0.000513,0.005631,-99.559677,109.711456,-122.181824,60.187689,24.83011,13.172254,21.84427,-1.0,-1.0,100.615593,-1.194328,3.132891,-0.031076,-1.941237
841914.576575,0.07095573000000001,0.30581694000000004,9.76300029,0.004353,-0.001038,0.003871,-99.636765,109.586548,-121.995728,60.187689,24.83011,13.172254,21.84427,-1.0,-1.0,100.615593,-1.194328,3.132943,-0.03108,-1.941245
841914.576575,0.07095573000000001,0.30581694000000004,9.76300029,0.004353,-0.001038,0.003871,-99.636765,109.586548,-121.995728,60.187689,24.83011,13.172254,21.84427,-1.0,-1.0,100.615593,-1.194328,3.132943,-0.03108,-1.941245
841914.616549,0.05972328,0.29503575000000004,9.76539393,0.001146,-0.001893,0.004262,-99.283081,109.880783,-121.876617,60.187689,24.83011,13.172254,21.84427,-1.0,-1.0,100.615593,-1.194328,3.133029,-0.031102,-1.941254
841914.636536,0.07663572,0.29578131,9.75836016,0.003836,-0.000985,0.002789,-99.485901,109.669815,-121.722595,60.187689,24.83011,13.172254,21.84427,-1.0,-1.0,100.615593,-1.194328,3.133058,-0.031094,-1.94126
841914.656523,0.08352234000000001,0.3008727,9.76044969,0.001862,-0.000105,0.003241,-99.257309,109.847366,-121.484024,60.187689,24.83011,13.172254,21.84427,-1.0,-1.0,100.615593,-1.194328,3.133097,-0.031088,-1.941241
841914.67651,0.06556023,0.30476727000000003,9.74188917,0.004837,-0.001179,0.002283,-99.410721,109.798965,-121.50592,60.187689,24.83011,13.172254,21.84427,-1.0,-1.0,100.615593,-1.194328,3.133146,-0.031092,-1.941231
841914.67651,0.06556023,0.30476727000000003,9.74188917,0.004837,-0.001179,0.002283,-99.410721,109.798965,-121.50592,60.187689,24.83011,13.172254,21.84427,-1.0,-1.0,100.615593,-1.194328,3.133146,-0.031092,-1.941231
841914.716484,0.07320222,0.29697813,9.75895857,0.000654,0.000775,0.005005,-99.276215,109.716904,-122.105408,60.187689,24.83011,13.172254,21.84427,-1.0,-1.0,100.616058,-1.231319,3.133242,-0.031101,-1.941218
841914.736471,0.06691401,0.30132396,9.752817510000002,0.00485,-0.000896,0.003968,-99.503372,109.554001,-121.821045,60.187689,24.83011,13.172254,21.84427,-1.0,-1.0,100.616058,-1.231319,3.133297,-0.031108,-1.941217
841914.756458,0.07439904,0.29039562,9.74803023,0.000809,-0.000367,0.004784,-99.529999,109.714798,-121.97757,60.187689,24.83011,13.172254,21.84427,-1.0,-1.0,100.616058,-1.231319,3.133349,-0.031121,-1.941208
841914.776445,0.07320222,0.29010132000000005,9.763451550000001,0.002877,0.000276,0.002537,-99.463348,109.873016,-122.025864,60.187689,24.83011,13.172254,21.84427,-1.0,-1.0,100.616058,-1.231319,3.133401,-0.0311,-1.941215
841914.776445,0.07320222,0.29010132000000005,9.763451550000001,0.002877,0.000276,0.002537,-99.463348,109.873016,-122.025864,60.187689,24.83011,13.172254,21.84427,-1.0,-1.0,100.616058,-1.231319,3.133401,-0.0311,-1.941215
841914.776445,0.07320222,0.29010132000000005,9.763451550000001,0.002877,0.000276,0.002537,-99.463348,109.873016,-122.025864,60.187689,24.83011,13.172254,21.84427,-1.0,-1.0,100.616058,-1.231319,3.133401,-0.0311,-1.941215
841914.776445,0.07320222,0.29010132000000005,9.763451550000001,0.002877,0.000276,0.002537,-99.463348,109.873016,-122.025864,60.187689,24.83011,13.172254,21.84427,-1.0,-1.0,100.616058,-1.231319,3.133401,-0.0311,-1.941215
841914.776445,0.07320222,0.29010132000000005,9.763451550000001,0.002877,0.000276,0.002537,-99.463348,109.873016,-122.025864,60.187689,24.83011,13.172254,21.84427,-1.0,-1.0,100.616058,-1.231319,3.133401,-0.0311,-1.941215
841914.776445,0.07320222,0.29010132000000005,9.763451550000001,0.002877,0.000276,0.002537,-99.463348,109.873016,-122.025864,60.187689,24.83011,13.172254,21.84427,-1.0,-1.0,100.616058,-1.231319,3.133401,-0.0311,-1.941215
841914.776445,0.07320222,0.29010132000000005,9.763451550000001,0.002877,0.000276,0.002537,-99.463348,109.873016,-122.025864,60.187689,24.83011,13.172254,21.84427,-1.0,-1.0,100.616058,-1.231319,3.133401,-0.0311,-1.941215
841914.816419,0.08067744,0.27677934,9.763598700000001,0.001579,0.0007,0.003485,-99.445908,109.665588,-121.911331,60.187689,24.83011,13.172254,21.84427,-1.0,-1.0,100.616058,-1.231319,3.133515,-0.03112,-1.94121
841914.936341,0.08007903000000001,0.29309337,9.77856876,0.003355,-6.8e-05,0.003666,-99.328186,109.692062,-122.299088,60.187689,24.83011,13.172254,21.84427,-1.0,-1.0,100.616058,-1.231319,3.133784,-0.031137,-1.941174
841914.956328,0.058977720000000004,0.28725642,9.76135221,0.002618,3.7e-05,0.003789,-99.469528,109.838074,-121.929184,60.187686,24.830172,12.975389,19.848743,-1.0,-1.0,100.616058,-1.231319,3.133837,-0.03113,-1.94116
841914.976315,0.06706116000000001,0.30221667,9.751326390000001,0.002618,3.7e-05,0.003789,-99.326675,109.894638,-122.273087,60.187686,24.830172,12.975389,19.848743,-1.0,-1.0,100.616058,-1.231319,3.133888,-0.031137,-1.94116
841914.976315,0.06706116000000001,0.30221667,9.751326390000001,0.002618,3.7e-05,0.003789,-99.326675,109.894638,-122.273087,60.187686,24.830172,12.975389,19.848743,-1.0,-1.0,100.616058,-1.231319,3.133888,-0.031137,-1.94116
841915.016289,0.0751446,0.29129814000000004,9.7547697,0.001721,0.000217,0.002985,-99.397079,109.781937,-121.822281,60.187686,24.830172,12.975389,19.848743,-1.0,-1.0,100.616058,-1.231319,3.133972,-0.031139,-1.941157
841915.036276,0.07963758,0.28979721,9.76628664,0.003977,0.001274,0.004281,-99.327759,109.922958,-121.801239,60.187686,24.830172,12.975389,19.848743,-1.0,-1.0,100.616058,-1.231319,3.134019,-0.031137,-1.941155
841915.056264,0.09176274,0.29563416000000003,9.77632227,0.003484,-0.001042,0.005258,-99.371277,109.888199,-121.577271,60.187686,24.830172,12.975389,19.848743,-1.0,-1.0,100.616058,-1.231319,3.13408,-0.031135,-1.941148
841915.07625,0.05912487,0.2951829,9.740398050000001,0.001167,0.001769,0.005165,-99.309769,110.008331,-122.181152,60.187686,24.830172,12.975389,19.848743,-1.0,-1.0,100.616058,-1.231319,3.134122,-0.031134,-1.941151
841915.096237,0.07858791000000001,0.29907747,9.755211150000001,0.004038,-0.000659,0.004246,-99.182068,109.903336,-121.672073,60.187686,24.830172,12.975389,19.848743,-1.0,-1.0,100.616058,-1.231319,3.134173,-0.031138,-1.941164
841915.116225,0.07364367000000001,0.28365615,9.783650340000001,0.003182,0.00267,0.003568,-99.143448,110.000778,-121.540558,60.187686,24.830172,12.975389,19.848743,-1.0,-1.0,100.616058,-1.231319,3.134212,-0.031135,-1.941169
841915.136212,0.07529175,0.30266793,9.759252870000001,0.000929,-0.001929,0.004234,-99.226395,109.854706,-121.673691,60.187686,24.830172,12.975389,19.848743,-1.0,-1.0,100.616058,-1.231319,3.134273,-0.031139,-1.941172
841915.156199,0.06167547,0.30730806,9.74997261,0.004965,0.000606,0.0043,-99.167252,109.952042,-121.420837,60.187686,24.830172,12.975389,19.848743,-1.0,-1.0,100.616058,-1.231319,3.134303,-0.031133,-1.941176
841915.176186,0.06182262000000001,0.28709946000000003,9.7667379,0.001942,-9.4e-05,0.001499,-99.131317,109.926041,-121.8311,60.187686,24.830172,12.975389,19.848743,-1.0,-1.0,100.616058,-1.231319,3.134348,-0.031141,-1.941164
841915.21616,0.07125003,0.29293641,9.74683341,0.003016,0.000593,0.005066,-99.295959,109.770004,-121.371292,60.187686,24.830172,12.975389,19.848743,-1.0,-1.0,100.616058,-1.231319,3.134423,-0.031146,-1.94114
841915.236147,0.053739180000000004,0.3034233,9.756113670000001,0.000824,0.002513,0.004812,-99.280502,109.960663,-121.617172,60.187686,24.830172,12.975389,19.848743,-1.0,-1.0,100.616058,-1.231319,3.134471,-0.031142,-1.941139
841915.256134,0.0754389,0.27617112,9.76164651,0.005162,-0.002624,0.003929,-99.3228,109.73053,-121.850586,60.187686,24.830172,12.975389,19.848743,-1.0,-1.0,100.616058,-1.231319,3.134531,-0.031125,-1.941139
841915.256134,0.0754389,0.27617112,9.76164651,0.005162,-0.002624,0.003929,-99.3228,109.73053,-121.850586,60.187686,24.830172,12.975389,19.848743,-1.0,-1.0,100.616058,-1.231319,3.134531,-0.031125,-1.941139
841915.296108,0.08083440000000001,0.29952873,9.74668626,0.002843,-0.000275,0.00568,-99.294037,109.946106,-121.465332,60.187686,24.830172,12.975389,19.848743,-1.0,-1.0,100.616058,-1.231319,3.134617,-0.031133,-1.941124
841915.316095,0.062116920000000006,0.29369178,9.75910572,0.004507,-0.00206,0.002184,-99.278412,109.948929,-121.451111,60.187686,24.830172,12.975389,19.848743,-1.0,-1.0,100.616058,-1.231319,3.13465,-0.031145,-1.941131
841915.336082,0.07260381,0.28515708,9.759704130000001,0.001581,2.2e-05,0.005434,-99.278412,109.948929,-121.451111,60.187686,24.830172,12.975389,19.848743,-1.0,-1.0,100.616058,-1.231319,3.134682,-0.03115,-1.941117
841915.356069,0.07454619,0.30311919,9.75011976,0.003755,-1.4e-05,0.003629,-99.03064,110.143402,-121.733246,60.187686,24.830172,12.975389,19.848743,-1.0,-1.0,100.616058,-1.231319,3.134723,-0.031139,-1.941121
841915.376056,0.07020036,0.29398608000000004,9.75087513,0.003956,0.000199,0.00197,-99.239456,109.87825,-121.651459,60.187686,24.830172,12.975389,19.848743,-1.0,-1.0,100.616058,-1.231319,3.134768,-0.031147,-1.941112
841915.376056,0.07020036,0.29398608000000004,9.75087513,0.003956,0.000199,0.00197,-99.239456,109.87825,-121.651459,60.187686,24.830172,12.975389,19.848743,-1.0,-1.0,100.616058,-1.231319,3.134768,-0.031147,-1.941112
841915.41603,0.08203122,0.29862621,9.759704130000001,0.004059,-0.00076,0.003828,-99.199219,109.956741,-121.786514,60.187686,24.830172,12.975389,19.848743,-1.0,-1.0,100.616058,-1.231319,3.134863,-0.031132,-1.94108
841915.436017,0.07873506000000001,0.28365615,9.748922940000002,0.00043,-0.001572,0.003165,-99.212341,110.067535,-121.51561,60.187686,24.830172,12.975389,19.848743,-1.0,-1.0,100.616058,-1.231319,3.134901,-0.031145,-1.941074
841915.456004,0.06481467,0.29578131,9.7465293,0.003443,-0.001323,0.003449,-99.233917,109.931519,-121.777557,60.187686,24.830172,12.975389,19.848743,-1.0,-1.0,100.616058,-1.231319,3.134928,-0.03114,-1.941071
841915.456004,0.06481467,0.29578131,9.7465293,0.003443,-0.001323,0.003449,-99.233917,109.931519,-121.777557,60.187686,24.830172,12.975389,19.848743,-1.0,-1.0,100.616058,-1.231319,3.134928,-0.03114,-1.941071
841915.495978,0.08442486000000002,0.3065625,9.747431820000001,0.000578,2.9e-05,0.004813,-99.293411,109.915054,-122.009109,60.187686,24.830172,12.975389,19.848743,-1.0,-1.0,100.616058,-1.231319,3.135005,-0.031157,-1.941055
841915.515965,0.07499745000000001,0.30491442,9.747578970000001,0.003101,-0.001492,0.005198,-99.339371,109.707794,-121.882019,60.187686,24.830172,12.975389,19.848743,-1.0,-1.0,100.616058,-1.231319,3.135035,-0.031157,-1.941059
841915.535952,0.07380063,0.2920437,9.77287896,0.00235,-0.001525,0.005477,-99.083542,109.900513,-121.946533,60.187686,24.830172,12.975389,19.848743,-1.0,-1.0,100.616058,-1.231319,3.135062,-0.031158,-1.941064
841915.555939,0.06481467,0.29637972,9.7582032,0.000315,-7e-06,0.003094,-99.21347,109.908493,-121.686981,60.187686,24.830172,12.975389,19.848743,-1.0,-1.0,100.616058,-1.231319,3.135095,-0.031148,-1.941064
841915.555939,0.06481467,0.29637972,9.7582032,0.000315,-7e-06,0.003094,-99.21347,109.908493,-121.686981,60.187686,24.830172,12.975389,19.848743,-1.0,-1.0,100.616058,-1.231319,3.135095,-0.031148,-1.941064
841915.555939,0.06481467,0.29637972,9.7582032,0.000315,-7e-06,0.003094,-99.21347,109.908493,-121.686981,60.187686,24.830172,12.975389,19.848743,-1.0,-1.0,100.616058,-1.231319,3.135095,-0.031148,-1.941064
841915.595913,0.07349652000000001,0.28515708,9.787544910000001,0.002086,0.000509,0.004217,-99.303238,110.0215,-121.519257,60.187686,24.830172,12.975389,19.848743,-1.0,-1.0,100.616058,-1.231319,3.135166,-0.031156,-1.941044
841915.635887,0.058232160000000005,0.28860039000000004,9.76628664,0.004939,-0.000778,0.001103,-99.305069,109.968002,-121.693649,60.187686,24.830172,12.975389,19.848743,-1.0,-1.0,100.616058,-1.231319,3.135213,-0.031169,-1.941058
841915.655874,0.06990606,0.29024847,9.77392863,0.000972,0.001404,0.003135,-99.251999,109.957703,-121.794296,60.187686,24.830172,12.975389,19.848743,-1.0,-1.0,100.616058,-1.231319,3.135247,-0.031169,-1.941023
841915.675861,0.07349652000000001,0.28650105,9.75162069,0.005327,-0.000669,0.004362,-99.16127,110.026489,-121.631653,60.187686,24.830172,12.975389,19.848743,-1.0,-1.0,100.616058,-1.231319,3.135292,-0.031164,-1.941011
841915.695848,0.07619427,0.30625839,9.74234043,0.003916,0.001846,0.002862,-99.189453,110.039062,-121.905853,60.187686,24.830172,12.975389,19.848743,-1.0,-1.0,100.616058,-1.231319,3.135333,-0.03118,-1.941013
841915.715835,0.08517042000000001,0.3097017,9.76688505,0.001145,0.001546,0.003269,-99.403824,109.820648,-121.996445,60.187686,24.830172,12.975389,19.848743,-1.0,-1.0,100.616058,-1.231319,3.135372,-0.031189,-1.941013
841915.715835,0.08517042000000001,0.3097017,9.76688505,0.001145,0.001546,0.003269,-99.403824,109.820648,-121.996445,60.187686,24.830172,12.975389,19.848743,-1.0,-1.0,100.616058,-1.231319,3.135372,-0.031189,-1.941013
841915.755809,0.06316659000000001,0.28740357,9.73036242,0.001643,0.000329,0.002492,-99.211655,109.871552,-122.233353,60.187686,24.830172,12.975389,19.848743,-1.0,-1.0,100.616058,-1.231319,3.135443,-0.031196,-1.941015
841915.755809,0.06316659000000001,0.28740357,9.73036242,0.001643,0.000329,0.002492,-99.211655,109.871552,-122.233353,60.187686,24.830172,12.975389,19.848743,-1.0,-1.0,100.616058,-1.231319,3.135443,-0.031196,-1.941015
841915.795783,0.07708698000000001,0.29159244,9.71899263,0.003308,0.000942,0.004265,-99.270554,109.969513,-121.839035,60.187686,24.830172,12.975389,19.848743,-1.0,-1.0,100.616356,-1.257744,3.135507,-0.031173,-1.941008
841915.795783,0.07708698000000001,0.29159244,9.71899263,0.003308,0.000942,0.004265,-99.270554,109.969513,-121.839035,60.187686,24.830172,12.975389,19.848743,-1.0,-1.0,100.616356,-1.257744,3.135507,-0.031173,-1.941008
841915.835757,0.07739109000000001,0.30761217,9.7203366,0.006214,-0.000425,0.003312,-99.279114,109.935471,-122.081039,60.187686,24.830172,12.975389,19.848743,-1.0,-1.0,100.616356,-1.257744,3.135583,-0.031185,-1.941002
841915.835757,0.07739109000000001,0.30761217,9.7203366,0.006214,-0.000425,0.003312,-99.279114,109.935471,-122.081039,60.187686,24.830172,12.975389,19.848743,-1.0,-1.0,100.616356,-1.257744,3.135583,-0.031185,-1.941002
841915.875731,0.07648857,0.2977335,9.755662410000001,0.003596,0.000699,0.004894,-99.060715,110.111725,-121.771927,60.187686,24.830172,12.975389,19.848743,-1.0,-1.0,100.616356,-1.257744,3.135665,-0.031202,-1.940987
841915.895718,0.05583852,0.30027429,9.73021527,0.004973,0.001329,0.003933,-99.082809,109.863373,-121.76535,60.187686,24.830172,12.975389,19.848743,-1.0,-1.0,100.616356,-1.257744,3.135699,-0.031205,-1.940982
841915.915705,0.07244685000000001,0.30101985000000003,9.760008240000001,0.002059,0.002356,0.004499,-99.212769,109.934433,-121.856171,60.187686,24.830172,12.975389,19.848743,-1.0,-1.0,100.616356,-1.257744,3.135739,-0.0312,-1.940981
841915.955679,0.06900354,0.28965006000000004,9.756564930000001,0.001592,0.000584,0.004199,-99.259094,110.01268,-121.696732,60.187686,24.830172,12.975389,19.848743,-1.0,-1.0,100.616356,-1.257744,3.135803,-0.03121,-1.940965
841915.955679,0.06900354,0.28965006000000004,9.756564930000001,0.001592,0.000584,0.004199,-99.259094,110.01268,-121.696732,60.187686,24.830172,12.975389,19.848743,-1.0,-1.0,100.616356,-1.257744,3.135803,-0.03121,-1.940965
841915.975666,0.08217837000000001,0.30670965,9.77646942,0.003045,0.000289,0.003585,-99.045074,110.043335,-121.995621,60.187686,24.830172,12.975389,19.848743,-1.0,-1.0,100.616356,-1.257744,3.135837,-0.0312,-1.940961
841916.01564,0.07394778,0.30132396,9.76539393,0.000837,0.000426,0.003921,-99.218063,109.903244,-121.611877,60.187686,24.830172,12.975389,19.848743,-1.0,-1.0,100.616356,-1.257744,3.135909,-0.031181,-1.940941
841916.035627,0.08547453,0.28874754,9.767189160000001,0.004705,0.00114,0.004419,-99.029587,109.765488,-121.910721,60.187686,24.830172,12.975389,19.848743,-1.0,-1.0,100.616356,-1.257744,3.135943,-0.031166,-1.940939
841916.055614,0.08457201,0.29578131,9.77302611,0.004509,-0.000162,0.002436,-98.997589,109.820206,-121.347336,60.187686,24.830172,12.975389,19.848743,-1.0,-1.0,100.616356,-1.257744,3.135981,-0.031169,-1.94095
841916.055614,0.08457201,0.29578131,9.77302611,0.004509,-0.000162,0.002436,-98.997589,109.820206,-121.347336,60.187686,24.830172,12.975389,19.848743,-1.0,-1.0,100.616356,-1.257744,3.135981,-0.031169,-1.94095
841916.095588,0.0754389,0.2803698,9.759704130000001,0.004495,-0.000925,0.004107,-99.262527,109.995453,-121.700012,60.187686,24.830172,12.975389,19.848743,-1.0,-1.0,100.616356,-1.257744,3.136064,-0.031167,-1.940957
841916.115575,0.06571719000000001,0.29338767,9.76419711,0.00274,5.1e-05,0.004719,-99.269043,109.821487,-121.721512,60.187686,24.830172,12.975389,19.848743,-1.0,-1.0,100.616356,-1.257744,3.136102,-0.031161,-1.940955
841916.135562,0.07724394000000001,0.30357045,9.73860282,0.002402,-0.001457,0.00248,-99.285187,109.73558,-121.629639,60.187686,24.830172,12.975389,19.848743,-1.0,-1.0,100.616356,-1.257744,3.136147,-0.03115,-1.94095
841916.155549,0.07634142000000001,0.29967588,9.77347737,0.00443,-0.001161,0.002733,-99.358063,109.555603,-121.571671,60.187686,24.830172,12.975389,19.848743,-1.0,-1.0,100.616356,-1.257744,3.136166,-0.031148,-1.940935
841916.175536,0.06646275,0.28740357,9.77302611,0.000559,0.000484,0.003533,-99.281525,109.835678,-121.850327,60.187686,24.830172,12.975389,19.848743,-1.0,-1.0,100.616356,-1.257744,3.136205,-0.031158,-1.940912
841916.195523,0.06900354,0.3122523,9.75671208,0.006038,-0.000636,0.004492,-99.087219,109.917282,-121.660614,60.187686,24.830172,12.975389,19.848743,-1.0,-1.0,100.616356,-1.257744,3.13624,-0.031151,-1.940912
841916.21551,0.06990606,0.30431601,9.7610481,0.00316,0.001802,0.003489,-99.316635,109.739136,-121.714493,60.187686,24.830172,12.975389,19.848743,-1.0,-1.0,100.616356,-1.257744,3.136276,-0.031172,-1.940916
841916.235497,0.07574301000000001,0.30357045,9.775871010000001,0.001477,0.000697,0.002811,-99.255005,109.634308,-121.305984,60.187686,24.830172,12.975389,19.848743,-1.0,-1.0,100.616356,-1.257744,3.136317,-0.03117,-1.940909
841916.255484,0.07035732,0.29398608000000004,9.77257485,0.004987,-0.001377,0.002702,-99.314682,109.966095,-121.527908,60.187686,24.830172,12.975389,19.848743,-1.0,-1.0,100.616356,-1.257744,3.136344,-0.03117,-1.940914
841916.275471,0.06496182,0.30416886,9.774968490000001,0.003211,0.003374,0.003098,-99.180527,109.874893,-121.341873,60.187686,24.830172,12.975389,19.848743,-1.0,-1.0,100.616356,-1.257744,3.136368,-0.031177,-1.940914
841916.295458,0.07739109000000001,0.29668383,9.76943565,0.003643,0.000299,0.003477,-99.21106,109.876297,-121.824692,60.187686,24.830172,12.975389,19.848743,-1.0,-1.0,100.616356,-1.257744,3.136424,-0.031178,-1.940897
841916.315445,0.06107706,0.30506157,9.796079610000001,0.005151,-9.7e-05,0.004827,-99.28595,109.948166,-121.406723,60.187686,24.830172,12.975389,19.848743,-1.0,-1.0,100.616356,-1.257744,3.136465,-0.031174,-1.94088
841916.335432,0.08756406,0.29383893,9.77856876,0.000541,0.000736,0.003718,-99.07901,109.751251,-121.708527,60.187686,24.830172,12.975389,19.848743,-1.0,-1.0,100.616356,-1.257744,3.136492,-0.031188,-1.940886
841916.355419,0.08592579,0.29878317000000004,9.76224492,0.004327,-0.000851,0.004296,-99.27063,110.022766,-121.616257,60.187686,24.830172,12.975389,19.848743,-1.0,-1.0,100.616356,-1.257744,3.136518,-0.031184,-1.940883
841916.375406,0.08157996,0.29353482000000003,9.77976558,0.002473,0.000227,0.004301,-98.99585,110.035583,-121.530304,60.187686,24.830172,12.975389,19.848743,-1.0,-1.0,100.616356,-1.257744,3.136545,-0.031187,-1.940886
841916.395393,0.08308089000000002,0.2980278,9.764491410000002,0.002079,-0.000758,0.006427,-99.08606,109.878021,-121.703415,60.187686,24.830172,12.975389,19.848743,-1.0,-1.0,100.616356,-1.257744,3.136572,-0.031186,-1.940877
841916.41538,0.07229970000000001,0.29563416000000003,9.7667379,0.004401,-0.00156,0.003844,-99.119354,109.829605,-121.765198,60.187686,24.830172,12.975389,19.848743,-1.0,-1.0,100.616356,-1.257744,3.136591,-0.03119,-1.940897
841916.435367,0.07139718,0.29967588,9.76913154,0.001199,0.001659,0.005239,-99.121216,109.886566,-121.799789,60.187686,24.830172,12.975389,19.848743,-1.0,-1.0,100.616356,-1.257744,3.136624,-0.031189,-1.940897
841916.455354,0.08038314,0.31165389,9.755662410000001,0.002797,-0.001346,0.003358,-99.172028,109.895309,-121.98851,60.187686,24.830172,12.975389,19.848743,-1.0,-1.0,100.616356,-1.257744,3.13664,-0.031181,-1.940885
841916.475341,0.07110288000000001,0.28680516,9.77257485,0.002715,-0.002085,0.001743,-99.290207,109.690903,-121.960052,60.187686,24.830172,12.975389,19.848743,-1.0,-1.0,100.616356,-1.257744,3.136659,-0.031188,-1.940872
841916.495328,0.06840513000000001,0.29982303,9.77976558,0.000564,0.000209,0.00481,-99.291962,109.798416,-121.897079,60.187686,24.830172,12.975389,19.848743,-1.0,-1.0,100.616356,-1.257744,3.136674,-0.031186,-1.940839
841916.515315,0.07648857,0.30072555,9.76030254,0.004016,-0.001201,0.003317,-99.153687,109.750839,-121.902267,60.187686,24.830172,12.975389,19.848743,-1.0,-1.0,100.616356,-1.257744,3.136696,-0.031173,-1.940848
841916.555289,0.07559586,0.28560834,9.77347737,0.00182,-0.000671,0.002778,-99.324173,109.746246,-121.653442,60.187686,24.830172,12.975389,19.848743,-1.0,-1.0,100.616356,-1.257744,3.136735,-0.03119,-1.940825
841916.555289,0.07559586,0.28560834,9.77347737,0.00182,-0.000671,0.002778,-99.324173,109.746246,-121.653442,60.187686,24.830172,12.975389,19.848743,-1.0,-1.0,100.616356,-1.257744,3.136735,-0.03119,-1.940825
841916.575276,0.06526593,0.29668383,9.75910572,0.004677,-0.001488,0.004294,-99.177856,109.693726,-121.789841,60.187686,24.830172,12.975389,19.848743,-1.0,-1.0,100.616356,-1.257744,3.136765,-0.031189,-1.940811
841916.61525,0.08007903000000001,0.30117681,9.779314320000001,0.003728,-0.002318,0.005287,-99.099457,109.698395,-121.458176,60.187686,24.830172,12.975389,19.848743,-1.0,-1.0,100.616356,-1.257744,3.136834,-0.031186,-1.940827
841916.635237,0.07559586,0.29369178,9.77856876,0.002739,-0.000817,0.004812,-99.203552,109.781387,-121.208282,60.187686,24.830172,12.975389,19.848743,-1.0,-1.0,100.616356,-1.257744,3.136865,-0.031179,-1.940824
841916.655224,0.06990606,0.29129814000000004,9.7607538,0.002578,-5.6e-05,0.003962,-98.982376,109.776657,-121.651703,60.187686,24.830172,12.975389,19.848743,-1.0,-1.0,100.616356,-1.257744,3.136906,-0.031174,-1.94083
841916.655224,0.06990606,0.29129814000000004,9.7607538,0.002578,-5.6e-05,0.003962,-98.982376,109.776657,-121.651703,60.187686,24.830172,12.975389,19.848743,-1.0,-1.0,100.616356,-1.257744,3.136906,-0.031174,-1.94083
841916.695198,0.0666099,0.29233800000000004,9.768385980000001,0.001028,-0.000179,0.003611,-99.178909,109.90152,-121.661469,60.187686,24.830172,12.975389,19.848743,-1.0,-1.0,100.616356,-1.257744,3.136977,-0.031202,-1.940829
841916.715185,0.08007903000000001,0.29414304,9.77333022,0.004092,-0.000545,0.003135,-99.277649,110.024597,-121.342087,60.187686,24.830172,12.975389,19.848743,-1.0,-1.0,100.616356,-1.257744,3.137007,-0.031207,-1.940837
841916.735172,0.0782838,0.30730806,9.77287896,0.0039,-0.000313,0.00398,-98.976913,110.01535,-121.725815,60.187686,24.830172,12.975389,19.848743,-1.0,-1.0,100.616356,-1.257744,3.137033,-0.031222,-1.940829
841916.755159,0.08592579,0.29578131,9.7926363,0.002001,0.000692,0.003953,-99.023163,110.023773,-121.688049,60.187686,24.830172,12.975389,19.848743,-1.0,-1.0,100.616356,-1.257744,3.137064,-0.031216,-1.940822
841916.775146,0.08517042000000001,0.29683098,9.77392863,0.004215,-0.000806,0.006444,-98.897141,109.986649,-121.641953,60.187686,24.830172,12.975389,19.848743,-1.0,-1.0,100.616356,-1.257744,3.137084,-0.031219,-1.94082
841916.775146,0.08517042000000001,0.29683098,9.77392863,0.004215,-0.000806,0.006444,-98.897141,109.986649,-121.641953,60.187686,24.830172,12.975389,19.848743,-1.0,-1.0,100.616356,-1.257744,3.137084,-0.031219,-1.94082
841916.81512,0.07005321,0.283509,9.767934720000001,0.001341,-0.00024,0.00412,-99.156479,110.076279,-121.519165,60.187686,24.830172,12.975389,19.848743,-1.0,-1.0,100.616356,-1.257744,3.137136,-0.031229,-1.940844
841916.835107,0.07020036,0.29443734,9.77976558,0.003351,-0.002345,0.002356,-99.061295,109.967087,-121.422241,60.187686,24.830172,12.975389,19.848743,-1.0,-1.0,100.616356,-1.257744,3.137154,-0.031221,-1.940853
841916.855094,0.07394778,0.32407335000000004,9.752670360000002,0.003178,0.00076,0.003843,-99.072235,109.949326,-121.505447,60.187686,24.830172,12.975389,19.848743,-1.0,-1.0,100.616356,-1.257744,3.137174,-0.03122,-1.940852
841916.875081,0.08067744,0.2894931,9.799375770000001,0.004024,-0.002351,0.003974,-99.146591,109.99295,-121.583817,60.187686,24.830172,12.975389,19.848743,-1.0,-1.0,100.616356,-1.257744,3.137204,-0.031234,-1.940841
841916.895068,0.07079877000000001,0.30416886,9.77407578,0.001308,0.000448,0.004593,-99.074722,109.994263,-121.440231,60.187686,24.830172,12.975389,19.848743,-1.0,-1.0,100.616356,-1.257744,3.137222,-0.03124,-1.940828
841916.915055,0.06392196,0.30536568000000003,9.759252870000001,0.003359,0.00103,0.004179,-99.154861,109.82901,-121.531219,60.187686,24.830172,12.975389,19.848743,-1.0,-1.0,100.616356,-1.257744,3.137258,-0.031222,-1.940833
841916.935042,0.07079877000000001,0.27482715,9.80041563,0.003765,-0.001153,0.004912,-99.033508,109.95108,-121.58168,60.187686,24.830172,12.975389,19.848743,-1.0,-1.0,100.616356,-1.257744,3.137287,-0.031231,-1.940833
841916.955029,0.0666099,0.30386475,9.76988691,0.000998,-0.000475,0.002525,-99.047302,109.848816,-121.223007,60.187686,24.830172,12.975389,19.848743,-1.0,-1.0,100.616356,-1.257744,3.137295,-0.03123,-1.940846
841916.975016,0.08172711,0.3008727,9.75836016,0.002719,0.000705,0.004326,-99.174805,109.930054,-121.42775,60.187686,24.830172,12.975389,19.848743,-1.0,-1.0,100.616356,-1.257744,3.137313,-0.031229,-1.940836
841916.995003,0.07574301000000001,0.28965006000000004,9.77347737,0.00406,-0.001831,0.003721,-99.084564,110.084564,-121.380234,60.187686,24.830172,12.975389,19.848743,-1.0,-1.0,100.616356,-1.257744,3.137344,-0.031243,-1.940842
841917.01499,0.07199559,0.28785483,9.77781339,0.001472,0.000869,0.002399,-99.051666,110.046249,-121.669495,60.187686,24.830172,12.975389,19.848743,-1.0,-1.0,100.616356,-1.257744,3.137368,-0.031239,-1.940844
841917.034977,0.07409493,0.29503575000000004,9.75895857,0.004434,0.000252,0.005438,-99.066162,109.721771,-121.61911,60.187686,24.830172,12.975389,19.848743,-1.0,-1.0,100.616356,-1.257744,3.137393,-0.031225,-1.94083
841917.054964,0.07184844,0.29293641,9.76809168,0.002688,1.1e-05,0.003428,-99.008102,110.052628,-121.256912,60.187686,24.830172,12.975389,19.848743,-1.0,-1.0,100.616356,-1.257744,3.137422,-0.031231,-1.940838
841917.074951,0.08517042000000001,0.29173959000000005,9.779010210000001,0.002385,0.000904,0.004386,-99.178406,109.915085,-121.439285,60.187686,24.830172,12.975389,19.848743,-1.0,-1.0,100.616356,-1.257744,3.137454,-0.031216,-1.940842
841917.094938,0.08831943,0.28905165000000005,9.77856876,0.004548,-0.002919,0.004834,-99.135239,110.040085,-121.391037,60.187686,24.830172,12.975389,19.848743,-1.0,-1.0,100.616356,-1.257744,3.137479,-0.031213,-1.940839
841917.114926,0.07784234999999999,0.30311919,9.77347737,0.002524,0.000907,0.003341,-99.473816,109.903381,-121.552917,60.187686,24.830172,12.975389,19.848743,-1.0,-1.0,100.616356,-1.257744,3.137492,-0.031207,-1.940843
841917.1549,0.05149269000000001,0.29159244,9.780511140000002,0.003429,-0.000524,0.004281,-99.342163,109.924561,-121.465851,60.187686,24.830172,12.975389,19.848743,-1.0,-1.0,100.616356,-1.257744,3.137517,-0.031227,-1.94083
841917.174887,0.06765957,0.30625839,9.7695828,0.001605,0.001064,0.002119,-99.282898,110.003525,-121.470001,60.187686,24.830172,12.975389,19.848743,-1.0,-1.0,100.616356,-1.257744,3.137521,-0.031216,-1.940823
841917.174887,0.06765957,0.30625839,9.7695828,0.001605,0.001064,0.002119,-99.282898,110.003525,-121.470001,60.187686,24.830172,12.975389,19.848743,-1.0,-1.0,100.616356,-1.257744,3.137521,-0.031216,-1.940823
841917.214861,0.07484049000000001,0.29458449000000003,9.79203789,0.00254,-0.002203,0.004659,-99.192307,109.858917,-121.655304,60.187686,24.830172,12.975389,19.848743,-1.0,-1.0,100.616356,-1.257744,3.137557,-0.031228,-1.940808
841917.214861,0.07484049000000001,0.29458449000000003,9.79203789,0.00254,-0.002203,0.004659,-99.192307,109.858917,-121.655304,60.187686,24.830172,12.975389,19.848743,-1.0,-1.0,100.616356,-1.257744,3.137557,-0.031228,-1.940808
841917.254835,0.06720831000000001,0.29338767,9.75356307,0.004434,0.0004,0.004673,-99.136047,109.929901,-122.229782,60.187686,24.830172,12.975389,19.848743,-1.0,-1.0,100.616356,-1.257744,3.137602,-0.031219,-1.940805
841917.254835,0.06720831000000001,0.29338767,9.75356307,0.004434,0.0004,0.004673,-99.136047,109.929901,-122.229782,60.187686,24.830172,12.975389,19.848743,-1.0,-1.0,100.616356,-1.257744,3.137602,-0.031219,-1.940805
841917.294809,0.06990606,0.30955455000000004,9.77482134,0.00393,-0.002198,0.003256,-99.347534,109.948502,-122.166702,60.187686,24.830172,12.975389,19.848743,-1.0,-1.0,100.616356,-1.257744,3.137633,-0.031194,-1.940807
841917.294809,0.06990606,0.30955455000000004,9.77482134,0.00393,-0.002198,0.003256,-99.347534,109.948502,-122.166702,60.187686,24.830172,12.975389,19.848743,-1.0,-1.0,100.616356,-1.257744,3.137633,-0.031194,-1.940807
841917.334783,0.08696565,0.29818476,9.79218504,0.000566,-0.000618,0.004043,-99.175751,109.961838,-121.611313,60.187686,24.830172,12.975389,19.848743,-1.0,-1.0,100.616356,-1.257744,3.137656,-0.031201,-1.940806
841917.35477,0.08157996,0.30117681,9.77706783,0.00677,-0.001623,0.004475,-99.257385,110.021881,-121.842438,60.187686,24.830172,12.975389,19.848743,-1.0,-1.0,100.616356,-1.257744,3.137657,-0.031193,-1.940813
841917.374757,0.07708698000000001,0.29593827,9.79084107,0.002583,0.000953,0.00368,-99.394577,110.046432,-121.66008,60.187686,24.830172,12.975389,19.848743,-1.0,-1.0,100.616356,-1.257744,3.137665,-0.031203,-1.940796
841917.394744,0.07903917,0.29278926000000005,9.77108373,0.002699,0.000483,0.005524,-99.344528,109.866837,-121.97641,60.187686,24.830172,12.975389,19.848743,-1.0,-1.0,100.616356,-1.257744,3.137679,-0.031203,-1.94078
841917.414731,0.08098155,0.30237363,9.76508982,0.002298,-0.001394,0.005417,-99.133911,109.82991,-121.925308,60.187686,24.830172,12.975389,19.848743,-1.0,-1.0,100.616356,-1.257744,3.137688,-0.031204,-1.940788
841917.434718,0.06586434000000001,0.29338767,9.775723860000001,0.00169,-0.001337,0.004469,-99.271667,110.016113,-121.599655,60.187686,24.830172,12.975389,19.848743,-1.0,-1.0,100.616356,-1.257744,3.137692,-0.031186,-1.940787
841917.474692,0.06930765,0.29069973,9.7812567,0.003502,-0.000863,0.006077,-99.514328,109.691193,-122.111893,60.187686,24.830172,12.975389,19.848743,-1.0,-1.0,100.616356,-1.257744,3.137691,-0.031169,-1.940766
841917.494679,0.06840513000000001,0.30147111000000004,9.760008240000001,0.00072,0.000467,0.004637,-99.313354,109.883011,-121.976593,60.187686,24.830172,12.975389,19.848743,-1.0,-1.0,100.616356,-1.257744,3.137705,-0.031177,-1.940779
841917.494679,0.06840513000000001,0.30147111000000004,9.760008240000001,0.00072,0.000467,0.004637,-99.313354,109.883011,-121.976593,60.187686,24.830172,12.975389,19.848743,-1.0,-1.0,100.616356,-1.257744,3.137705,-0.031177,-1.940779
841917.534653,0.05972328,0.31239945,9.771525180000001,0.002401,0.000998,0.005053,-99.245453,109.905258,-121.849869,60.187686,24.830172,12.975389,19.848743,-1.0,-1.0,100.616356,-1.257744,3.137722,-0.031181,-1.940781
841917.55464,0.07559586,0.28620675,9.77437008,0.003515,-0.001537,0.003889,-99.111435,109.945724,-121.837555,60.187686,24.830172,12.975389,19.848743,-1.0,-1.0,100.616356,-1.257744,3.137736,-0.031182,-1.940785
841917.574627,0.07215255000000001,0.29788065,9.77677353,0.004681,-0.002124,0.002481,-99.232025,109.704712,-121.940186,60.187686,24.830172,12.975389,19.848743,-1.0,-1.0,100.616356,-1.257744,3.137743,-0.03119,-1.940779
841917.594614,0.05852646,0.29054277,9.75776175,0.002463,-0.00016,0.002717,-99.071198,109.981247,-121.825211,60.187686,24.830172,12.975389,19.848743,-1.0,-1.0,100.616356,-1.257744,3.137749,-0.031201,-1.940781
841917.614601,0.08277678,0.29084688000000003,9.79892451,0.004138,-0.002388,0.004801,-99.266205,109.975937,-121.714218,60.187686,24.830172,12.975389,19.848743,-1.0,-1.0,100.616356,-1.257744,3.137763,-0.031208,-1.94078
841917.634588,0.07574301000000001,0.2863539,9.77737194,0.002441,-0.000615,0.003999,-99.234085,109.947586,-122.021225,60.187686,24.830172,12.975389,19.848743,-1.0,-1.0,100.616356,-1.257744,3.13776,-0.031199,-1.940773
841917.654575,0.0865242,0.31449879,9.76164651,0.003383,-0.000367,0.005526,-99.278076,109.946671,-121.825485,60.187686,24.830172,12.975389,19.848743,-1.0,-1.0,100.616356,-1.257744,3.137783,-0.031182,-1.940755
841917.674562,0.06960195,0.28994436,9.78829047,0.00409,-0.001058,0.00346,-99.276489,109.930023,-121.778381,60.187686,24.830172,12.975389,19.848743,-1.0,-1.0,100.616356,-1.257744,3.137788,-0.031171,-1.940754
841917.694549,0.07125003,0.28680516,9.780815250000002,0.001146,0.001279,0.004708,-99.243851,109.842957,-121.689011,60.187686,24.830172,12.975389,19.848743,-1.0,-1.0,100.616356,-1.257744,3.137802,-0.031147,-1.940743
841917.734523,0.07079877000000001,0.29533986,9.765246780000002,0.004402,-0.001743,0.003486,-99.363617,109.823029,-122.00238,60.187686,24.830172,12.975389,19.848743,-1.0,-1.0,100.616356,-1.257744,3.137824,-0.031145,-1.940735
841917.734523,0.07079877000000001,0.29533986,9.765246780000002,0.004402,-0.001743,0.003486,-99.363617,109.823029,-122.00238,60.187686,24.830172,12.975389,19.848743,-1.0,-1.0,100.616356,-1.257744,3.137824,-0.031145,-1.940735
841917.774497,0.07184844,0.29159244,9.77392863,0.003136,-0.000591,0.004317,-99.186005,109.947922,-121.639648,60.187686,24.830172,12.975389,19.848743,-1.0,-1.0,100.616356,-1.257744,3.137832,-0.031138,-1.940738
841917.794484,0.07380063,0.29278926000000005,9.75640797,0.002596,0.000545,0.002597,-99.13916,109.763123,-121.867676,60.187686,24.830172,12.975389,19.848743,-1.0,-1.0,100.616356,-1.257744,3.137845,-0.031138,-1.940736
841917.814471,0.07813665,0.29952873,9.78560253,0.003454,-0.000878,0.005108,-99.214218,109.985046,-121.828415,60.187686,24.830172,12.975389,19.848743,-1.0,-1.0,100.616356,-1.257744,3.137852,-0.031138,-1.94072
841917.834458,0.07275096,0.29189655000000003,9.79817895,0.004075,0.000328,0.00459,-99.177505,110.157028,-121.783981,60.187686,24.830172,12.975389,19.848743,-1.0,-1.0,100.616356,-1.257744,3.137864,-0.031135,-1.940729
841917.854445,0.08292393,0.30266793,9.767189160000001,0.002166,0.001979,0.005231,-99.184601,109.920425,-121.593643,60.187686,24.830172,12.975389,19.848743,-1.0,-1.0,100.616356,-1.257744,3.137872,-0.031129,-1.940729
841917.854445,0.08292393,0.30266793,9.767189160000001,0.002166,0.001979,0.005231,-99.184601,109.920425,-121.593643,60.187686,24.830172,12.975389,19.848743,-1.0,-1.0,100.616356,-1.257744,3.137872,-0.031129,-1.940729
841917.894419,0.08382645000000001,0.30161826,9.77886306,0.004737,0.001434,0.002705,-99.067871,109.943436,-121.660553,60.187686,24.830172,12.975389,19.848743,-1.0,-1.0,100.616356,-1.257744,3.137903,-0.031168,-1.940745
841917.914406,0.07693983,0.29878317000000004,9.75446559,0.002867,-0.000431,0.004263,-99.144562,109.990921,-121.26944,60.187686,24.830172,12.975389,19.848743,-1.0,-1.0,100.616356,-1.257744,3.137924,-0.031172,-1.940741
841917.934393,0.07005321,0.3122523,9.76628664,0.005557,0.001337,0.003474,-99.070801,109.913086,-121.516449,60.187686,24.830172,12.975389,19.848743,-1.0,-1.0,100.616188,-1.24189,3.137938,-0.031182,-1.940739
841917.95438,0.06706116000000001,0.30027429,9.774968490000001,0.002132,-0.000154,0.002793,-99.014297,109.962463,-121.529129,60.187686,24.830172,12.975389,19.848743,-1.0,-1.0,100.616188,-1.24189,3.137945,-0.031205,-1.940728
841917.974367,0.08053028999999999,0.29578131,9.75416148,0.003839,-0.001471,0.004363,-99.059799,109.919449,-121.588226,60.187686,24.830172,12.975389,19.848743,-1.0,-1.0,100.616188,-1.24189,3.137959,-0.0312,-1.940733
841917.994354,0.08471916,0.29713509,9.780511140000002,0.004336,-0.00072,0.004218,-99.144791,109.843796,-121.722931,60.187686,24.830172,12.975389,19.848743,-1.0,-1.0,100.616188,-1.24189,3.137986,-0.031213,-1.940728
841918.014341,0.07035732,0.30446316,9.78904584,0.000511,-0.000658,0.003944,-99.220551,109.922195,-121.707184,60.187686,24.830172,12.975389,19.848743,-1.0,-1.0,100.616188,-1.24189,3.137999,-0.031208,-1.940715
841918.054315,0.08188407,0.29369178,9.803260530000001,0.003187,7.4e-05,0.004106,-99.508881,109.70694,-121.860504,60.187686,24.830172,12.975389,19.848743,-1.0,-1.0,100.616188,-1.24189,3.138017,-0.031213,-1.940706
841918.054315,0.08188407,0.29369178,9.803260530000001,0.003187,7.4e-05,0.004106,-99.508881,109.70694,-121.860504,60.187686,24.830172,12.975389,19.848743,-1.0,-1.0,100.616188,-1.24189,3.138017,-0.031213,-1.940706
841918.094289,0.07739109000000001,0.31030011,9.78859458,0.003739,0.000592,0.002709,-99.295898,109.643799,-121.711517,60.187686,24.830172,12.975389,19.848743,-1.0,-1.0,100.616188,-1.24189,3.137987,-0.031203,-1.940666
841918.114276,0.08007903000000001,0.29249496,9.79892451,0.001069,6.3e-05,0.005904,-99.243439,109.754181,-121.776215,60.187686,24.830172,12.975389,19.848743,-1.0,-1.0,100.616188,-1.24189,3.137996,-0.031188,-1.940651
841918.134264,0.0782838,0.30266793,9.780658290000002,0.003025,0.001017,0.004329,-99.150513,109.7901,-121.509354,60.187686,24.830172,12.975389,19.848743,-1.0,-1.0,100.616188,-1.24189,3.137967,-0.03118,-1.940656
841918.154251,0.07260381,0.30027429,9.7724277,0.003225,-0.000297,0.003475,-99.215088,110.016373,-121.594086,60.187686,24.830172,12.975389,19.848743,-1.0,-1.0,100.616188,-1.24189,3.137978,-0.031185,-1.940666
841918.174238,0.07724394000000001,0.28725642,9.79727643,0.000304,9.8e-05,0.004218,-99.227295,109.849503,-121.674683,60.187686,24.830172,12.975389,19.848743,-1.0,-1.0,100.616188,-1.24189,3.137988,-0.031193,-1.94066
841918.194225,0.07693983,0.29982303,9.772280550000001,0.005827,-0.000403,0.004,-99.289612,109.935287,-121.428833,60.187686,24.830172,12.975389,19.848743,-1.0,-1.0,100.616188,-1.24189,3.137987,-0.031181,-1.940656
841918.214212,0.07903917,0.3005784,9.78560253,0.002546,-0.00144,0.002562,-99.188721,109.867615,-121.68634,60.187686,24.830172,12.975389,19.848743,-1.0,-1.0,100.616188,-1.24189,3.137996,-0.031193,-1.940656
841918.234199,0.07320222,0.28845324,9.7954812,0.003022,0.000712,0.003475,-99.01123,109.892914,-121.592346,60.187686,24.830172,12.975389,19.848743,-1.0,-1.0,100.616188,-1.24189,3.137991,-0.031182,-1.940655
841918.254186,0.06271533,0.30072555,9.779010210000001,0.004178,-0.001257,0.003571,-99.01123,109.892914,-121.592346,60.187686,24.830172,12.975389,19.848743,-1.0,-1.0,100.616188,-1.24189,3.137996,-0.031173,-1.940644
841918.274173,0.07289811,0.28800198,9.80236782,0.001002,0.001425,0.004062,-99.071579,109.861984,-121.683319,60.187686,24.830172,12.975389,19.848743,-1.0,-1.0,100.616188,-1.24189,3.138006,-0.031169,-1.940644
841918.274173,0.07289811,0.28800198,9.80236782,0.001002,0.001425,0.004062,-99.071579,109.861984,-121.683319,60.187686,24.830172,12.975389,19.848743,-1.0,-1.0,100.616188,-1.24189,3.138006,-0.031169,-1.940644
841918.314147,0.07693983,0.29847906,9.77601816,0.002556,-0.00271,0.004126,-99.186218,109.841599,-121.35553,60.187686,24.830172,12.975389,19.848743,-1.0,-1.0,100.616188,-1.24189,3.138013,-0.031176,-1.940632
841918.334134,0.07020036,0.29233800000000004,9.799670070000001,0.001037,-0.002618,0.005345,-99.138168,109.835052,-121.679764,60.187686,24.830172,12.975389,19.848743,-1.0,-1.0,100.616188,-1.24189,3.137999,-0.031162,-1.940625
841918.374108,0.08188407,0.30221667,9.765246780000002,0.003586,0.001457,0.005508,-99.096085,110.060822,-121.376831,60.187686,24.830172,12.975389,19.848743,-1.0,-1.0,100.616188,-1.24189,3.137976,-0.031164,-1.940626
841918.374108,0.08188407,0.30221667,9.765246780000002,0.003586,0.001457,0.005508,-99.096085,110.060822,-121.376831,60.187686,24.830172,12.975389,19.848743,-1.0,-1.0,100.616188,-1.24189,3.137976,-0.031164,-1.940626
841918.414082,0.08442486000000002,0.28785483,9.791292330000001,0.005107,-0.003099,0.00311,-99.192703,109.862122,-121.47319,60.187686,24.830172,12.975389,19.848743,-1.0,-1.0,100.616188,-1.24189,3.137982,-0.031156,-1.940644
841918.414082,0.08442486000000002,0.28785483,9.791292330000001,0.005107,-0.003099,0.00311,-99.192703,109.862122,-121.47319,60.187686,24.830172,12.975389,19.848743,-1.0,-1.0,100.616188,-1.24189,3.137982,-0.031156,-1.940644
841918.454056,0.07574301000000001,0.28905165000000005,9.768385980000001,0.003935,-0.00158,0.005508,-99.196915,110.103287,-121.380569,60.187686,24.830172,12.975389,19.848743,-1.0,-1.0,100.616188,-1.24189,3.137965,-0.031162,-1.940628
841918.474043,0.06601149,0.27932013,9.791292330000001,0.002702,5e-06,0.003074,-98.923187,110.004349,-121.485107,60.187686,24.830172,12.975389,19.848743,-1.0,-1.0,100.616188,-1.24189,3.137966,-0.031167,-1.940634
841918.49403,0.06691401,0.30670965,9.780962400000002,0.003272,-0.000988,0.003662,-99.12648,109.939651,-121.58255,60.187686,24.830172,12.975389,19.848743,-1.0,-1.0,100.616188,-1.24189,3.137972,-0.031158,-1.940633
841918.514017,0.07334937000000001,0.29668383,9.77302611,0.00528,-0.001051,0.004565,-99.166443,109.914139,-121.42334,60.187686,24.830172,12.975389,19.848743,-1.0,-1.0,100.616188,-1.24189,3.13797,-0.031155,-1.940641
841918.534004,0.0663156,0.30386475,9.755662410000001,0.000891,-6e-05,0.003887,-99.33371,109.96492,-121.780899,60.187686,24.830172,12.975389,19.848743,-1.0,-1.0,100.616188,-1.24189,3.137958,-0.031167,-1.940642
841918.553991,0.08248248000000001,0.29757654,9.74848149,0.004448,-0.002433,0.004191,-99.221649,110.027527,-121.621399,60.187686,24.830172,12.975389,19.848743,-1.0,-1.0,100.616188,-1.24189,3.137959,-0.031156,-1.940633
841918.573978,0.06990606,0.29398608000000004,9.787093650000001,0.004232,-0.001175,0.003605,-99.077682,110.003906,-121.601334,60.187686,24.830172,12.975389,19.848743,-1.0,-1.0,100.616188,-1.24189,3.137948,-0.031153,-1.940637
841918.593965,0.07469334000000001,0.29069973,9.771525180000001,0.001717,0.000208,0.004424,-99.278778,109.872406,-121.828781,60.187686,24.830172,12.975389,19.848743,-1.0,-1.0,100.616188,-1.24189,3.137936,-0.031143,-1.940621
841918.613952,0.07380063,0.31674527999999996,9.760008240000001,0.004726,-0.00215,0.003693,-98.949036,110.131561,-121.589722,60.187686,24.830172,12.975389,19.848743,-1.0,-1.0,100.616188,-1.24189,3.137932,-0.031132,-1.940618
841918.633939,0.07304526,0.29114118,9.77452704,0.002817,-0.000434,0.005289,-99.201447,109.959213,-121.525528,60.187686,24.830172,12.975389,19.848743,-1.0,-1.0,100.616188,-1.24189,3.137937,-0.031133,-1.940597
841918.653926,0.07079877000000001,0.3065625,9.77692068,0.001614,-0.001169,0.003239,-99.102646,110.037109,-121.607697,60.187686,24.830172,12.975389,19.848743,-1.0,-1.0,100.616188,-1.24189,3.137934,-0.03112,-1.940596
841918.6939,0.08846658,0.30551283,9.76508982,0.002328,0.000636,0.004317,-99.175537,110.014999,-121.456711,60.187686,24.830172,12.975389,19.848743,-1.0,-1.0,100.616188,-1.24189,3.137977,-0.03111,-1.940584
841918.6939,0.08846658,0.30551283,9.76508982,0.002328,0.000636,0.004317,-99.175537,110.014999,-121.456711,60.187686,24.830172,12.975389,19.848743,-1.0,-1.0,100.616188,-1.24189,3.137977,-0.03111,-1.940584
841918.733874,0.07005321,0.30252078000000004,9.780658290000002,0.003788,-0.000175,0.003374,-98.841736,110.117676,-121.434692,60.187686,24.830172,12.975389,19.848743,-1.0,-1.0,100.616188,-1.24189,3.137983,-0.031127,-1.940571
841918.753861,0.07873506000000001,0.29593827,9.7781175,0.000365,0.000214,0.005442,-98.989655,109.993179,-121.688721,60.187686,24.830172,12.975389,19.848743,-1.0,-1.0,100.616188,-1.24189,3.137982,-0.03112,-1.940554
841918.773849,0.06900354,0.30221667,9.77317326,0.004658,-4.8e-05,0.003366,-98.934692,110.003967,-121.464142,60.187686,24.830172,12.975389,19.848743,-1.0,-1.0,100.616188,-1.24189,3.137983,-0.031104,-1.940556
841918.793836,0.06511878,0.29623257000000003,9.763598700000001,0.002879,0.001706,0.003374,-99.203079,109.928802,-121.621964,60.187686,24.830172,12.975389,19.848743,-1.0,-1.0,100.616188,-1.24189,3.137987,-0.031117,-1.940562
