timestamp,time_rel,x,y,theta,vx,vy,accel_x,accel_y,accel_z,gyro_x,gyro_y,gyro_z
0.0,0.0,0.0,0.0,0.0,0.0,0.0,-8.92130229,-2.9776096800000005,1.80838521,-0.037936,0.117247,0.040217
0.059951000032015145,0.059951000032015145,0.0,0.0,0.002921453636798077,0.0,0.0,-8.956029690000001,-2.94108705,1.81542879,0.007139,-0.035774,0.06292
0.09991900000022724,0.09991900000022724,0.0,0.0,0.00508949070778586,0.0,0.0,-8.8498953,-3.04331706,1.85898519,-0.000808,-0.128687,0.055626
0.11990300001343712,0.11990300001343712,0.0,0.0,0.00582821967234981,0.0,0.0,-8.923695930000001,-3.10813173,1.89266292,-0.013041,-0.169671,0.041048
0.1398860000190325,0.1398860000190325,0.0,0.0,0.006795944401190468,0.0,0.0,-9.13789728,-3.08148777,1.84626162,-0.030952,-0.185673,0.04851
0.1598700000322424,0.1598700000322424,0.0,0.0,0.00816231973386694,0.0,0.0,-9.20510559,-2.9033577900000003,1.86391962,-0.048741,-0.210238,0.064943
0.1798539999872446,0.1798539999872446,0.0,0.0,0.00928254060798439,0.0,0.0,-9.27426609,-2.82043386,1.84102308,-0.037036,-0.19555,0.055492
0.19983800000045449,0.19983800000045449,0.0,0.0,0.009930690586342994,0.0,0.0,-9.31947057,-2.83150935,1.8495577800000005,-0.010238,-0.169566,0.034507
0.21982200001366436,0.21982200001366436,0.0,0.0,0.010521540033967991,0.0,0.0,-9.44341011,-2.72972079,1.8362358000000003,0.020563,-0.138939,0.03105
0.23980500001925975,0.23980500001925975,0.0,0.0,0.01116360839935826,0.0,0.0,-9.32425785,-2.6819755200000004,1.95074793,0.039686,-0.125291,0.032839
0.25978900003246963,0.25978900003246963,0.0,0.0,0.011156847559224747,0.0,0.0,-9.1390941,-2.89527435,1.97094672,0.046595,-0.123231,0.000827
0.27977299998747185,0.27977299998747185,0.0,0.0,0.010672138165774836,0.0,0.0,-9.05107878,-3.0287982600000003,1.97034831,0.038732,-0.120193,-0.023901
0.29975700000068173,0.29975700000068173,0.0,0.0,0.01010793783838837,0.0,0.0,-8.820710550000001,-3.05978805,2.14608465,0.016912,-0.165836,-0.028951
0.3197410000138916,0.3197410000138916,0.0,0.0,0.009997975207785004,0.0,0.0,-8.748558000000001,-3.07086354,2.02858047,-0.005483,-0.170099,-0.006271
0.339724000019487,0.339724000019487,0.0,0.0,0.010341783568944773,0.0,0.0,-8.5171401,-3.08942406,1.87919379,-0.043019,-0.20379,0.017191
0.3597080000326969,0.3597080000326969,0.0,0.0,0.011353706443505196,0.0,0.0,-8.58075795,-3.0687642,1.64687337,-0.062604,-0.212554,0.052494
0.3796919999876991,0.3796919999876991,0.0,0.0,0.013652675205338305,0.0,0.0,-8.5979745,-2.86743357,1.69207785,-0.066758,-0.237093,0.121308
0.39967600000090897,0.39967600000090897,0.0,0.0,0.016960747746626037,0.0,0.0,-8.34394455,-2.67643287,1.81497753,-0.039937,-0.264237,0.175643
0.41966000001411885,0.41966000001411885,0.0,0.0,0.020700384847215147,0.0,0.0,-8.30368431,-2.8403481600000005,1.85927949,-0.003072,-0.295343,0.198666
0.43964400002732873,0.43964400002732873,0.0,0.0,0.025109172604013796,0.0,0.0,-8.371196730000001,-2.9386934100000004,1.98607374,0.016173,-0.337259,0.234567
0.47961099998792633,0.47961099998792633,0.0,0.0,0.03431022832706798,0.0,0.0,-8.44034742,-2.75397111,2.22841998,0.006525,-0.409886,0.364189
0.47961099998792633,0.47961099998792633,0.0,0.0,0.038332454907417546,0.0,0.0,-8.44034742,-2.75397111,2.22841998,0.006525,-0.409886,0.364189
0.5195790000143461,0.5195790000143461,0.0,0.0,0.04999725153227397,0.0,0.0,-8.6993118,-2.7804679200000004,2.41163154,0.02318,-0.477591,0.42772
0.539563000027556,0.539563000027556,0.0,0.0,0.05893488198576602,0.0,0.0,-8.82295704,-2.57868603,2.5706025900000005,0.03333,-0.495081,0.458307
0.5595460000331514,0.5595460000331514,0.0,0.0,0.06762139224154895,0.0,0.0,-8.74721403,-2.50833852,2.74469085,0.046733,-0.525577,0.445997
0.5795299999881536,0.5795299999881536,0.0,0.0,0.07556272976857104,0.0,0.0,-9.00812079,-2.64425607,2.83660074,0.052938,-0.552115,0.406337
0.5995140000013635,0.5995140000013635,0.0,0.0,0.08377441109247385,0.0,0.0,-8.95347909,-2.6220952800000004,3.52412478,0.028694,-0.557588,0.420717
0.6194980000145733,0.6194980000145733,0.0,0.0,0.09253306860387944,0.0,0.0,-8.867857410000001,-2.39142294,3.94115769,-0.008021,-0.556436,0.44998
0.6194980000145733,0.6194980000145733,0.0,0.0,0.09457560540882248,0.0,0.0,-8.867857410000001,-2.39142294,3.94115769,-0.008021,-0.556436,0.44998
0.6594659999827854,0.6594659999827854,0.0,0.0,0.10939960148914185,0.0,0.0,-8.86292298,-2.93284665,4.2011619300000005,-0.215809,-0.487238,0.409714
0.6794489999883808,0.6794489999883808,0.0,0.0,0.11846998585270851,0.0,0.0,-8.75109879,-2.36104137,3.764675790000001,-0.268519,-0.578475,0.465589
0.6994330000015907,0.6994330000015907,0.0,0.0,0.12759706284015504,0.0,0.0,-8.94330612,-2.22452541,3.28402503,-0.230867,-0.693372,0.4674
0.7194170000148006,0.7194170000148006,0.0,0.0,0.13698257207135578,0.0,0.0,-9.20840175,-1.9579288500000005,3.53025603,-0.172438,-0.688818,0.480614
0.7394010000280105,0.7394010000280105,0.0,0.0,0.14687220145647384,0.0,0.0,-9.01260396,-1.656909,3.99174786,-0.144806,-0.616658,0.507615
0.7593849999830127,0.7593849999830127,0.0,0.0,0.15700559650704538,0.0,0.0,-8.669224530000001,-1.60525935,4.20490935,-0.131772,-0.601159,0.519752
0.7793679999886081,0.7793679999886081,0.0,0.0,0.16723372260059932,0.0,0.0,-8.69227803,-1.65062079,4.225412250000001,-0.157988,-0.641275,0.523489
0.7993530000094324,0.7993530000094324,0.0,0.0,0.17725040798979563,0.0,0.0,-8.836720470000001,-1.52338509,4.322707830000001,-0.187546,-0.674949,0.509909
0.8193370000226423,0.8193370000226423,0.0,0.0,0.18667376434467453,0.0,0.0,-8.87923701,-1.3192095600000002,4.39755813,-0.19864,-0.712408,0.475055
0.8393209999776445,0.8393209999776445,0.0,0.0,0.1951780475937106,0.0,0.0,-8.36221077,-1.1335945500000002,4.5295811100000005,-0.177721,-0.775239,0.422269
0.8593049999908544,0.8593049999908544,0.0,0.0,0.20249249140207715,0.0,0.0,-7.85177685,-1.27879236,4.63256649,-0.164517,-0.879691,0.354903
0.8792879999964498,0.8792879999964498,0.0,0.0,0.20881566019648634,0.0,0.0,-7.81540137,-1.52443476,4.55727474,-0.170064,-1.012006,0.299906
0.8992720000096597,0.8992720000096597,0.0,0.0,0.21492401707569986,0.0,0.0,-7.634720790000001,-1.2766930200000002,4.76549199,-0.175129,-1.182679,0.289952
0.8992720000096597,0.8992720000096597,0.0,0.0,0.21322986235542496,0.0,0.0,-7.634720790000001,-1.2766930200000002,4.76549199,-0.175129,-1.182679,0.289952
0.9392399999778718,0.9392399999778718,0.0,0.0,0.22770225106909736,0.0,0.0,-7.63651602,-1.09872,5.33116602,-0.204796,-1.483873,0.330072
0.9592239999910817,0.9592239999910817,0.0,0.0,0.2348157350747515,0.0,0.0,-7.75417716,-1.13434011,5.50375335,-0.222789,-1.600095,0.352516
0.979206999996677,0.979206999996677,0.0,0.0,0.2423983716683371,0.0,0.0,-7.75506987,-1.19032578,5.7119706,-0.234572,-1.688458,0.380038
1.0191750000230968,1.0191750000230968,0.0,0.0,0.2590646613976104,0.0,0.0,-7.8638922,-0.74290149,6.105655710000001,-0.228566,-1.75942,0.460413
1.0191750000230968,1.0191750000230968,0.0,0.0,0.26027660433425925,0.0,0.0,-7.8638922,-0.74290149,6.105655710000001,-0.228566,-1.75942,0.460413
1.059142999991309,1.059142999991309,0.0,0.0,0.2773900887343639,0.0,0.0,-8.22988368,-0.21330864,6.397101,-0.08954,-1.608249,0.46215
1.0791259999969043,1.0791259999969043,0.0,0.0,0.28627757326368997,0.0,0.0,-7.914345030000001,-0.30221667,6.481673010000001,0.000408,-1.518646,0.447407
1.0791259999969043,1.0791259999969043,0.0,0.0,0.286842935840971,0.0,0.0,-7.914345030000001,-0.30221667,6.481673010000001,0.000408,-1.518646,0.447407
1.119094000023324,1.119094000023324,0.0,0.0,0.3008395500314882,0.0,0.0,-6.66968166,-0.6993450900000001,6.756048900000001,0.158265,-1.377669,0.270994
1.1390779999783263,1.1390779999783263,0.0,0.0,0.30491694439274486,0.0,0.0,-6.39485451,-0.81175788,7.22951874,0.206544,-1.332026,0.18508
1.1590619999915361,1.1590619999915361,0.0,0.0,0.30846947802132174,0.0,0.0,-5.98500252,-0.98390376,7.40509812,0.214676,-1.326056,0.157964
1.1790449999971315,1.1790449999971315,0.0,0.0,0.31205487972617885,0.0,0.0,-5.81810499,-1.02910824,7.36393536,0.184472,-1.331626,0.16192
1.1790449999971315,1.1790449999971315,0.0,0.0,0.30963231260880963,0.0,0.0,-5.81810499,-1.02910824,7.36393536,0.184472,-1.331626,0.16192
1.2190130000235513,1.2190130000235513,0.0,0.0,0.31930343541120454,0.0,0.0,-5.720358150000001,-0.66596166,7.914345030000001,0.101756,-1.32481,0.174029
1.2389969999785535,1.2389969999785535,0.0,0.0,0.32264876922209096,0.0,0.0,-5.91509646,-0.57046131,8.37299196,0.069763,-1.339363,0.153231
1.2589809999917634,1.2589809999917634,0.0,0.0,0.3260017930978458,0.0,0.0,-5.646106260000001,-0.31838355,8.46010476,0.042771,-1.351198,0.155574
1.2789639999973588,1.2789639999973588,0.0,0.0,0.32973151634955533,0.0,0.0,-5.508697590000001,-0.30237363,8.69871339,0.005711,-1.334821,0.178574
1.2989490000181831,1.2989490000181831,0.0,0.0,0.3335704776873576,0.0,0.0,-5.27413068,-0.5032530000000001,9.06066315,-0.040497,-1.257746,0.18585
1.318933000031393,1.318933000031393,0.0,0.0,0.33677276202464856,0.0,0.0,-5.04660735,-0.83660661,9.3070413,-0.089332,-1.154926,0.150537
1.3389159999787807,1.3389159999787807,0.0,0.0,0.3390999872578928,0.0,0.0,-4.64783085,-0.8640059400000001,9.38877822,-0.146225,-1.090786,0.102082
1.3588999999919906,1.3588999999919906,0.0,0.0,0.3405762988057015,0.0,0.0,-4.50248589,-0.6167154600000001,9.311083020000002,-0.179789,-1.025534,0.055576
1.378882999997586,1.378882999997586,0.0,0.0,0.34113913253817696,0.0,0.0,-4.3755543,-0.4050549,9.33728553,-0.193157,-0.966396,0.006029
1.3988680000184104,1.3988680000184104,0.0,0.0,0.34073459014091645,0.0,0.0,-4.25968839,-0.6162642,9.4339827,-0.210537,-0.895481,-0.046118
1.4188520000316203,1.4188520000316203,0.0,0.0,0.33968235940925373,0.0,0.0,-3.84086025,-0.69470496,9.49040982,-0.227477,-0.83695,-0.079444
1.4388359999866225,1.4388359999866225,0.0,0.0,0.3384518637789693,0.0,0.0,-3.43999422,-0.72464508,9.37799703,-0.241702,-0.82643,-0.085772
1.4588189999922179,1.4588189999922179,0.0,0.0,0.33761452685542803,0.0,0.0,-2.93958612,-0.83107377,9.23384889,-0.250326,-0.892902,-0.059709
1.4788019999978133,1.4788019999978133,0.0,0.0,0.336937081139554,0.0,0.0,-2.89737369,-0.90502155,9.21349314,-0.255527,-0.961858,-0.047932
1.4987870000186376,1.4987870000186376,0.0,0.0,0.33559887603632266,0.0,0.0,-3.2497390800000003,-0.8572664700000001,9.31542885,-0.246094,-0.939697,-0.083795
1.5187710000318475,1.5187710000318475,0.0,0.0,0.33356418480835526,0.0,0.0,-3.0656250000000003,-0.7370645400000001,9.46152918,-0.205973,-0.913417,-0.121301
1.5387549999868497,1.5387549999868497,0.0,0.0,0.3313004779216939,0.0,0.0,-2.58647517,-0.8672922900000001,9.577836540000002,-0.150392,-0.958375,-0.131571
1.5587379999924451,1.5587379999924451,0.0,0.0,0.3288823952622022,0.0,0.0,-2.4025082400000004,-0.942741,9.55493019,-0.08526,-1.033479,-0.137726
1.5987060000188649,1.5987060000188649,0.0,0.0,0.3242952858359067,0.0,0.0,-2.45474649,-0.71656164,9.51032412,0.060162,-1.01813,-0.210008
1.6186900000320747,1.6186900000320747,0.0,0.0,0.31965836119915503,0.0,0.0,-2.3932279800000003,-0.83496834,9.573637860000002,0.129562,-0.926998,-0.240409
1.6186900000320747,1.6186900000320747,0.0,0.0,0.31696695697003596,0.0,0.0,-2.3932279800000003,-0.83496834,9.573637860000002,0.129562,-0.926998,-0.240409
1.6586569999926724,1.6586569999926724,0.0,0.0,0.3098738361979567,0.0,0.0,-1.60331697,-1.14062832,9.45239607,0.207634,-0.787874,-0.266848
1.6786420000134967,1.6786420000134967,0.0,0.0,0.3046481477358154,0.0,0.0,-1.50631569,-1.34869842,9.342818370000002,0.200674,-0.697848,-0.272797
1.6986250000190921,1.6986250000190921,0.0,0.0,0.2996141810392583,0.0,0.0,-1.05051366,-1.26217422,9.18145368,0.186295,-0.643831,-0.261607
1.718609000032302,1.718609000032302,0.0,0.0,0.2948343591995495,0.0,0.0,-1.01713023,-0.7565275800000001,9.0813132,0.19753,-0.567938,-0.246862
1.718609000032302,1.718609000032302,0.0,0.0,0.2936320669139776,0.0,0.0,-1.01713023,-0.7565275800000001,9.0813132,0.19753,-0.567938,-0.246862
1.7585759999928996,1.7585759999928996,0.0,0.0,0.28757486550509803,0.0,0.0,-0.61282089,-0.26824464,10.06072398,0.265676,-0.40256,-0.115622
1.778561000013724,1.778561000013724,0.0,0.0,0.28662466096387007,0.0,0.0,-0.31689243,-0.64440909,10.10458449,0.256577,-0.390789,-0.032938
1.7985450000269338,1.7985450000269338,0.0,0.0,0.2868076591227111,0.0,0.0,-0.13591755,-0.86999004,9.91927359,0.221505,-0.433669,0.028824
1.8185280000325292,1.8185280000325292,0.0,0.0,0.28796584872630415,0.0,0.0,0.02918475,-0.81744768,9.840234420000002,0.189029,-0.507989,0.081212
1.8385119999875315,1.8385119999875315,0.0,0.0,0.2900578326334706,0.0,0.0,0.23261472,-0.5944173300000001,9.89188407,0.164938,-0.605051,0.130914
1.8584949999931268,1.8584949999931268,0.0,0.0,0.2928887693554181,0.0,0.0,0.3210813,-0.46882971,10.00339434,0.151364,-0.684991,0.169265
1.8784800000139512,1.8784800000139512,0.0,0.0,0.29609370410685054,0.0,0.0,0.27827046,-0.50939406,9.97226721,0.130835,-0.736524,0.186776
1.898464000027161,1.898464000027161,0.0,0.0,0.2991536384663629,0.0,0.0,0.27932013,-0.47122335,9.9429255,0.116592,-0.766959,0.174939
1.9184479999821633,1.9184479999821633,0.0,0.0,0.3015093811944167,0.0,0.0,0.24129657,-0.51193485,9.89636724,0.103173,-0.74629,0.131842
1.9384319999953732,1.9384319999953732,0.0,0.0,0.3030686042513926,0.0,0.0,0.27841761,-0.52121511,9.81868185,0.085344,-0.676668,0.084481
1.958413999993354,1.958413999993354,0.0,0.0,0.3046437044572259,0.0,0.0,0.42047622,-0.34219242,9.81224649,0.085344,-0.676668,0.084481
1.9783990000141785,1.9783990000141785,0.0,0.0,0.3042942425867077,0.0,0.0,0.63991611,-0.17977806,9.76345155,0.08083,-0.532774,-0.026337
1.9983830000273883,1.9983830000273883,0.0,0.0,0.3029400504268205,0.0,0.0,0.64620432,-0.03322647,9.62797545,0.090305,-0.441536,-0.082553
2.0183669999823906,2.0183669999823906,0.0,0.0,0.30093134496013807,0.0,0.0,0.65503332,-0.05957613,9.63306684,0.102632,-0.297269,-0.117899
2.0383509999956004,2.0383509999956004,0.0,0.0,0.29863711649649627,0.0,0.0,0.74784573,-0.14804271,9.63217413,0.096863,-0.158347,-0.131735
2.058334000001196,2.058334000001196,0.0,0.0,0.29630243234449916,0.0,0.0,0.83870595,-0.10882233,9.71554932,0.09647,-0.064648,-0.13158
2.0783180000144057,2.0783180000144057,0.0,0.0,0.2942604961400139,0.0,0.0,0.84619098,-0.07289811,9.75042387,0.09818,0.01858,-0.112609
2.0983020000276156,2.0983020000276156,0.0,0.0,0.2919571280561213,0.0,0.0,0.6914088,-0.01676529,9.873166590000002,0.115633,0.094158,-0.126082
2.0983020000276156,2.0983020000276156,0.0,0.0,0.2908328771211126,0.0,0.0,0.6914088,-0.01676529,9.873166590000002,0.115633,0.094158,-0.126082
2.0983020000276156,2.0983020000276156,0.0,0.0,0.2899431175836047,0.0,0.0,0.6914088,-0.01676529,9.873166590000002,0.115633,0.094158,-0.126082
2.0983020000276156,2.0983020000276156,0.0,0.0,0.2892214140453775,0.0,0.0,0.6914088,-0.01676529,9.873166590000002,0.115633,0.094158,-0.126082
2.0983020000276156,2.0983020000276156,0.0,0.0,0.28862426191561896,0.0,0.0,0.6914088,-0.01676529,9.873166590000002,0.115633,0.094158,-0.126082
2.0983020000276156,2.0983020000276156,0.0,0.0,0.28812197982170185,0.0,0.0,0.6914088,-0.01676529,9.873166590000002,0.115633,0.094158,-0.126082
2.0983020000276156,2.0983020000276156,0.0,0.0,0.28769362337216675,0.0,0.0,0.6914088,-0.01676529,9.873166590000002,0.115633,0.094158,-0.126082
2.0983020000276156,2.0983020000276156,0.0,0.0,0.2873239907522147,0.0,0.0,0.6914088,-0.01676529,9.873166590000002,0.115633,0.094158,-0.126082
2.0983020000276156,2.0983020000276156,0.0,0.0,0.287001780837302,0.0,0.0,0.6914088,-0.01676529,9.873166590000002,0.115633,0.094158,-0.126082
2.0983020000276156,2.0983020000276156,0.0,0.0,0.28671841749644367,0.0,0.0,0.6914088,-0.01676529,9.873166590000002,0.115633,0.094158,-0.126082
2.1782380000222474,2.1782380000222474,0.0,0.0,0.28299978386898283,0.0,0.0,0.04730382,-0.6406714800000001,11.40793128,0.008532,0.635314,0.236248
2.258173000009265,2.258173000009265,0.0,0.0,0.28253323243028117,0.0,0.0,0.6736036500000001,-0.44697303,9.67063914,-0.100861,0.212787,0.159691
2.338107999996282,2.338107999996282,0.0,0.0,0.27887493622763815,0.0,0.0,0.56328039,-1.08074808,11.405527830000002,-0.033849,0.090106,-0.110871
2.378076000022702,2.378076000022702,0.0,0.0,0.27297869541984454,0.0,0.0,0.07844076,-1.01833686,10.1105784,-0.010174,0.062485,-0.204932
2.398059999977704,2.398059999977704,0.0,0.0,0.2673236886376156,0.0,0.0,0.35416062,-0.13876245,10.00205037,0.007801,0.012023,-0.239973
2.418043999990914,2.418043999990914,0.0,0.0,0.2621790803282882,0.0,0.0,0.40715424,-0.13561344,9.1883403,0.004737,0.017818,-0.231736
2.4380269999965094,2.4380269999965094,0.0,0.0,0.2578292716875925,0.0,0.0,0.5333402700000001,0.0170694,9.95594337,-0.009127,0.011913,-0.205253
2.4580120000173338,2.4580120000173338,0.0,0.0,0.25470461890610796,0.0,0.0,0.56596833,0.1793268,9.97675038,0.008727,0.012195,-0.154118
2.4779960000305437,2.4779960000305437,0.0,0.0,0.2530888008154757,0.0,0.0,0.46134468,0.05957613,9.66734298,0.003824,-0.001344,-0.084701
2.4979789999779314,2.4979789999779314,0.0,0.0,0.25218721024991897,0.0,0.0,-0.06361785,-0.16839846,9.79353882,0.010118,0.013414,-0.048864
2.5179629999911413,2.5179629999911413,0.0,0.0,2.337033230001861,0.0,0.0,-0.03951468,-0.4896269099999999,9.74458692,-0.012675,-0.004758,-0.034422
2.5379459999967366,2.5379459999967366,0.0,0.0,2.1735242832586668,0.0,0.0,0.12933504,-0.28620675,9.83814489,0.002941,0.000145,0.003748
2.557931000017561,2.557931000017561,0.0,0.0,2.0101438136244223,0.0,0.0,0.28994436,-0.58633389,9.72287739,-0.007215,-0.00078,0.034411
2.577915000030771,2.577915000030771,0.0,0.0,2.0111938546509567,0.0,0.0,0.27542556,-0.6168626100000001,9.77976558,-0.000341,-0.011863,0.063346
2.597898999985773,2.597898999985773,0.0,0.0,2.012688143809645,0.0,0.0,0.37661571,-0.6779396700000001,9.70491528,0.010982,-0.019021,0.086943
2.6178819999913685,2.6178819999913685,0.0,0.0,2.014606522211773,0.0,0.0,0.37018035,-0.7839171,9.71045793,-0.009138,-0.001972,0.109308
2.637864999996964,2.637864999996964,0.0,0.0,2.0160523683255818,0.0,0.0,0.51987114,-0.32407335,9.89772102,0.018289,0.00288,0.081912
2.6578500000177883,2.6578500000177883,0.0,0.0,2.015783550029683,0.0,0.0,0.5224119300000001,-0.30730806,9.68740443,0.000468,-0.002347,-0.014486
2.677834000030998,2.677834000030998,0.0,0.0,2.015110144507137,0.0,0.0,0.51911577,-0.04969746,9.81299205,-0.008122,0.001825,-0.036988
2.6978179999860004,2.6978179999860004,0.0,0.0,2.014420602644843,0.0,0.0,0.23471406,-0.14490351,9.85176117,-0.000826,0.008554,-0.037511
2.7178009999915957,2.7178009999915957,0.0,0.0,2.0142026070021934,0.0,0.0,0.23261472,-0.4076055,9.82152675,-0.00225,-0.009992,-0.010595
2.73778600001242,2.73778600001242,0.0,0.0,2.014458071788929,0.0,0.0,0.19235448,-0.27123669,9.752817510000002,0.006883,-0.005132,0.016106
2.7577690000180155,2.7577690000180155,0.0,0.0,2.0148520002647095,0.0,0.0,0.35461188,-0.12962934,9.69024933,0.005749,-0.00408,0.023515
2.7977369999862276,2.7977369999862276,0.0,0.0,2.014919721784583,0.0,0.0,0.18561501,-0.01002582,9.8043102,0.002731,0.00389,0.008546
2.7977369999862276,2.7977369999862276,0.0,0.0,2.015115225658718,0.0,0.0,0.18561501,-0.01002582,9.8043102,0.002731,0.00389,0.008546
2.8177209999994375,2.8177209999994375,0.0,0.0,2.0151604215996137,0.0,0.0,0.28740357,-0.29338767,9.78275763,0.001055,0.000973,0.002888
2.8576890000258572,2.8576890000258572,0.0,0.0,2.015277191292858,0.0,0.0,0.35326791,-0.54037404,9.76135221,-1e-06,-0.000905,0.00711
2.8776729999808595,2.8776729999808595,0.0,0.0,2.0154040513773364,0.0,0.0,0.30955455,-0.45804852,9.78574968,0.003023,0.001352,0.006723
2.897655999986455,2.897655999986455,0.0,0.0,2.0154889209897746,0.0,0.0,0.33500169,-0.37556604,9.76044969,0.001837,0.001056,0.004468
2.9176399999996647,2.9176399999996647,0.0,0.0,2.01554527013574,0.0,0.0,0.33155838,-0.37795968,9.76898439,0.001493,-0.001132,0.002916
2.9376240000128746,2.9376240000128746,0.0,0.0,2.0156183605206106,0.0,0.0,0.33231375,-0.40430934,9.768533130000002,0.002764,-0.000987,0.003823
2.9576080000260845,2.9576080000260845,0.0,0.0,2.0156823585768997,0.0,0.0,0.32766381,-0.42915807,9.7610481,0.002243,-0.005308,0.003311
2.9775919999810867,2.9775919999810867,0.0,0.0,2.0157667396771304,0.0,0.0,0.33470739,-0.40940073,9.76180347,0.000669,-0.003317,0.004427
2.9975759999942966,2.9975759999942966,0.0,0.0,2.0159129401612654,0.0,0.0,0.35506314,-0.38694564,9.749227050000002,-0.004388,-0.003842,0.007839
3.0175600000075065,3.0175600000075065,0.0,0.0,2.016085320019326,0.0,0.0,0.32467176,-0.25028253,9.79143948,0.000347,-0.000937,0.009243
3.0175600000075065,3.0175600000075065,0.0,0.0,2.016167551006532,0.0,0.0,0.32467176,-0.25028253,9.79143948,0.000347,-0.000937,0.009243
3.0575270000263117,3.0575270000263117,0.0,0.0,2.016345978755033,0.0,0.0,0.29668383,-0.26105391,9.78440571,0.002427,-6.2e-05,0.004224
3.077510999981314,3.077510999981314,0.0,0.0,2.016453425431399,0.0,0.0,0.33650262,-0.26525259,9.77587101,0.001916,0.000453,0.005478
3.097494999994524,3.097494999994524,0.0,0.0,2.016548817096009,0.0,0.0,0.33365772,-0.33440328,9.77512545,0.00237,0.000461,0.004781
3.1174790000077337,3.1174790000077337,0.0,0.0,2.0166016041141948,0.0,0.0,0.31913892,-0.33485454,9.76613949,0.002317,0.001613,0.002361
3.1374630000209436,3.1374630000209436,0.0,0.0,2.0166457583991964,0.0,0.0,0.32182686,-0.31404753,9.78275763,0.001578,0.000799,0.001909
3.1574470000341535,3.1574470000341535,0.0,0.0,2.0167196832247676,0.0,0.0,0.33155838,-0.34188831,9.76764042,0.002878,0.00065,0.003647
3.1774309999891557,3.1774309999891557,0.0,0.0,2.0167959329390444,0.0,0.0,0.32318064,-0.3876912,9.76044969,0.002094,0.000325,0.003787
3.197413999994751,3.197413999994751,0.0,0.0,2.01684654565309,0.0,0.0,0.30326634,-0.39457782,9.77991273,0.001722,0.001928,0.002327
3.217398000007961,3.217398000007961,0.0,0.0,2.0169249253286274,0.0,0.0,0.31913892,-0.41868099,9.76688505,0.000977,-0.0024,0.003944
3.237382000021171,3.237382000021171,0.0,0.0,2.016952011007297,0.0,0.0,0.33650262,-0.40685013,9.77273181,0.002507,-3.1e-05,0.001005
3.2573660000343807,3.2573660000343807,0.0,0.0,2.0170662419985828,0.0,0.0,0.34772526,-0.37736127,9.78021684,0.002372,-0.000126,0.006048
3.277349999989383,3.277349999989383,0.0,0.0,2.017151559788042,0.0,0.0,0.30895614,-0.36194976,9.78620094,0.003442,-0.000216,0.004342
3.297334000002593,3.297334000002593,0.0,0.0,2.017246720535944,0.0,0.0,0.33500169,-0.35281665,9.76809168,0.003746,-0.000386,0.004896
3.3173180000158027,3.3173180000158027,0.0,0.0,2.0173444379959626,0.0,0.0,0.33231375,-0.30790647,9.77661657,0.004284,-0.000964,0.005023
3.337301000021398,3.337301000021398,0.0,0.0,2.0174474392274515,0.0,0.0,0.3210813,-0.30386475,9.75925287,0.003557,-0.000116,0.005307
3.3572849999764003,3.3572849999764003,0.0,0.0,2.0175160816929942,0.0,0.0,0.33186249,-0.30161826,9.77901021,0.002033,0.00062,0.00331
3.37726899998961,3.37726899998961,0.0,0.0,2.0175858972399334,0.0,0.0,0.31494024,-0.32377905,9.76733631,0.002596,-0.001263,0.003396
3.39725300000282,3.39725300000282,0.0,0.0,2.017631146153917,0.0,0.0,0.30311919,-0.37123002,9.76793472,0.004409,0.0001,0.001998
3.41723700001603,3.41723700001603,0.0,0.0,2.017722803292779,0.0,0.0,0.3333536099999999,-0.37123002,9.78245352,0.002378,-0.002002,0.004707
3.43722100002924,3.43722100002924,0.0,0.0,2.017818180839428,0.0,0.0,0.33006726,-0.3674826,9.76704201,0.003486,-0.000371,0.004903
3.477188999997452,3.477188999997452,0.0,0.0,2.0179812498123653,0.0,0.0,0.32631984,-0.37751823,9.77032836,0.004063,0.000151,0.004129
3.4971720000030473,3.4971720000030473,0.0,0.0,2.0180685708474835,0.0,0.0,0.32258223,-0.3746733299999999,9.77512545,0.002389,0.000376,0.004385
3.4971720000030473,3.4971720000030473,0.0,0.0,2.0180733942366444,0.0,0.0,0.32258223,-0.3746733299999999,9.77512545,0.002389,0.000376,0.004385
3.537140000029467,3.537140000029467,0.0,0.0,2.0182313406752783,0.0,0.0,0.32347494,-0.36119439,9.76733631,0.001902,-0.00146,0.003745
3.537140000029467,3.537140000029467,0.0,0.0,2.018225919316884,0.0,0.0,0.32347494,-0.36119439,9.76733631,0.001902,-0.00146,0.003745
3.577107999997679,3.577107999997679,0.0,0.0,2.0183679585456717,0.0,0.0,0.31180104,-0.32751666,9.78021684,0.004026,-0.000774,0.002981
3.597092000010889,3.597092000010889,0.0,0.0,2.0184376815296625,0.0,0.0,0.30775932,-0.34368354,9.77916717,0.003561,-0.00174,0.003449
3.617076000024099,3.617076000024099,0.0,0.0,2.0185224351249627,0.0,0.0,0.33170553,-0.3381507,9.77392863,0.002994,-0.001022,0.004285
3.617076000024099,3.617076000024099,0.0,0.0,2.0185287212856196,0.0,0.0,0.33170553,-0.3381507,9.77392863,0.002994,-0.001022,0.004285
3.6570429999846965,3.6570429999846965,0.0,0.0,2.018663019759865,0.0,0.0,0.34263387,-0.37436922,9.77677353,0.002855,-0.001168,0.002645
3.6770269999979064,3.6770269999979064,0.0,0.0,2.0187095131280115,0.0,0.0,0.33170553,-0.39712842,9.76568823,0.002924,-0.000857,0.00215
3.6970110000111163,3.6970110000111163,0.0,0.0,2.0187582888240794,0.0,0.0,0.32901759,-0.3817071,9.7667379,0.003798,2.2e-05,0.002302
3.716995000024326,3.716995000024326,0.0,0.0,2.0188695296118135,0.0,0.0,0.34997175,-0.36374499,9.74997261,0.003737,0.00076,0.00585
3.7369789999793284,3.7369789999793284,0.0,0.0,2.018943269450343,0.0,0.0,0.34009308,-0.33440328,9.77916717,0.002457,-0.001584,0.003688
3.7569629999925382,3.7569629999925382,0.0,0.0,2.0190044578398876,0.0,0.0,0.31943322,-0.30042144,9.77886306,0.00426,-0.001325,0.002976
3.776947000005748,3.776947000005748,0.0,0.0,2.0190410237142817,0.0,0.0,0.33126408,-0.33859215,9.77168214,0.002765,-0.000498,0.001588
3.796929000003729,3.796929000003729,0.0,0.0,2.019128074983513,0.0,0.0,0.32377905,-0.34937334,9.78141366,0.002463,-0.001141,0.004497
3.816913000016939,3.816913000016939,0.0,0.0,2.019227929441093,0.0,0.0,0.32318064,-0.37048446,9.77392863,0.001214,-0.001442,0.005207
3.8368970000301488,3.8368970000301488,0.0,0.0,2.0193147695894407,0.0,0.0,0.31838355,-0.37063161,9.78215922,0.001834,-0.001216,0.004434
3.856880999985151,3.856880999985151,0.0,0.0,2.0194069213390513,0.0,0.0,0.32916474,-0.34488036,9.7784118,0.00217,0.000511,0.004725
3.876864999998361,3.876864999998361,0.0,0.0,2.019473951664498,0.0,0.0,0.31644117,-0.32467176,9.78889869,0.00295,-0.000239,0.003271
3.8968490000115708,3.8968490000115708,0.0,0.0,2.019590982858306,0.0,0.0,0.32527017,-0.35207109,9.77916717,0.003497,-0.000575,0.006147
3.8968490000115708,3.8968490000115708,0.0,0.0,2.0196217899040896,0.0,0.0,0.32527017,-0.35207109,9.77916717,0.003497,-0.000575,0.006147
3.8968490000115708,3.8968490000115708,0.0,0.0,2.0196461649494726,0.0,0.0,0.32527017,-0.35207109,9.77916717,0.003497,-0.000575,0.006147
3.936816000030376,3.936816000030376,0.0,0.0,2.019797235912149,0.0,0.0,0.33784659,-0.42197715,9.76733631,0.005715,-0.002394,0.002566
3.936816000030376,3.936816000030376,0.0,0.0,2.01977283634546,0.0,0.0,0.33784659,-0.42197715,9.76733631,0.005715,-0.002394,0.002566
3.936816000030376,3.936816000030376,0.0,0.0,2.0197533524840914,0.0,0.0,0.33784659,-0.42197715,9.76733631,0.005715,-0.002394,0.002566
3.936816000030376,3.936816000030376,0.0,0.0,2.0197374347479613,0.0,0.0,0.33784659,-0.42197715,9.76733631,0.005715,-0.002394,0.002566
4.016752000025008,4.016752000025008,0.0,0.0,2.020230342013841,0.0,0.0,0.329616,-0.17258733,9.75640797,0.002736,-0.003401,0.015501
4.016752000025008,4.016752000025008,0.0,0.0,2.020369152949696,0.0,0.0,0.329616,-0.17258733,9.75640797,0.002736,-0.003401,0.015501
4.07670400000643,4.07670400000643,0.0,0.0,2.0207382390196234,0.0,0.0,0.17693316,-0.40146444,9.82182105,0.003414,5.8e-05,0.004647
4.096687000012025,4.096687000012025,0.0,0.0,2.0207209507267834,0.0,0.0,0.34518447,-0.44097912,9.70686747,0.003426,-0.004364,-0.001622
4.116671000025235,4.116671000025235,0.0,0.0,2.0206980234015894,0.0,0.0,0.44891541,-0.40835106,9.67438656,0.00162,-0.001972,-0.001834
4.136654999980237,4.136654999980237,0.0,0.0,2.020798093795249,0.0,0.0,0.34743096,-0.41089185,9.71479395,0.004337,0.00309,0.005096
4.156638999993447,4.156638999993447,0.0,0.0,2.020887403163945,0.0,0.0,0.38634723,-0.44921952,9.74204613,0.002908,-0.001375,0.004484
4.176623000006657,4.176623000006657,0.0,0.0,2.0209291947787307,0.0,0.0,0.26180928,-0.45295713,9.746235,0.005387,0.001206,0.001821
4.216591000033077,4.216591000033077,0.0,0.0,2.021081831093632,0.0,0.0,0.31419468,-0.38380644,9.76898439,0.002227,-0.000509,0.003625
4.216591000033077,4.216591000033077,0.0,0.0,2.0210761953629515,0.0,0.0,0.31419468,-0.38380644,9.76898439,0.002227,-0.000509,0.003625
4.2565579999936745,4.2565579999936745,0.0,0.0,2.0212730007328776,0.0,0.0,0.33634566,-0.29742939,9.77781339,0.00213,-0.00091,0.006023
4.276542000006884,4.276542000006884,0.0,0.0,2.0213513958510365,0.0,0.0,0.30746502,-0.30446316,9.77287896,0.002956,-0.000488,0.003907
4.296526000020094,4.296526000020094,0.0,0.0,2.0214352025907036,0.0,0.0,0.3239262,-0.28740357,9.77871591,0.000908,-0.000892,0.004195
4.316510000033304,4.316510000033304,0.0,0.0,2.0215148651875836,0.0,0.0,0.3094074,-0.31374342,9.7635987,0.002846,-0.000429,0.003972
4.336493999988306,4.336493999988306,0.0,0.0,2.021596561474855,0.0,0.0,0.32572143,-0.33994593,9.7784118,0.002745,-0.001188,0.004083
4.336493999988306,4.336493999988306,0.0,0.0,2.021595644653786,0.0,0.0,0.32572143,-0.33994593,9.7784118,0.002745,-0.001188,0.004083
4.376462000014726,4.376462000014726,0.0,0.0,2.021740028611476,0.0,0.0,0.32751666,-0.38395359,9.77287896,0.003615,0.000333,0.002985
4.396446000027936,4.396446000027936,0.0,0.0,2.021831253445141,0.0,0.0,0.32751666,-0.38140299,9.75865446,0.004372,0.00012,0.004629
4.416429000033531,4.416429000033531,0.0,0.0,2.0219399564023224,0.0,0.0,0.32796792,-0.38919213,9.77437008,0.003802,-0.000762,0.005596
4.416429000033531,4.416429000033531,0.0,0.0,2.0219609055301877,0.0,0.0,0.32796792,-0.38919213,9.77437008,0.003802,-0.000762,0.005596
4.456397000001743,4.456397000001743,0.0,0.0,2.0221435230707954,0.0,0.0,0.33874911,-0.35176698,9.77737194,0.002033,-0.000243,0.004745
4.476381000014953,4.476381000014953,0.0,0.0,2.0222200912723753,0.0,0.0,0.32452461,-0.34009308,9.78036399,0.003173,0.000306,0.003749
4.496365000028163,4.496365000028163,0.0,0.0,2.0222959647955676,0.0,0.0,0.33365772,-0.32722236,9.77108373,0.00304,0.00052,0.003721
4.516348999983165,4.516348999983165,0.0,0.0,2.0223964788093696,0.0,0.0,0.3179421,-0.31913892,9.77766624,0.002545,-0.00078,0.005129
4.536332999996375,4.536332999996375,0.0,0.0,2.0224958098677295,0.0,0.0,0.3210813,-0.32287653,9.768533130000002,0.003093,0.000599,0.005048
4.556317000009585,4.556317000009585,0.0,0.0,2.0225739308052972,0.0,0.0,0.32167971,-0.34802937,9.77901021,0.004105,-0.000688,0.00383
4.576300000015181,4.576300000015181,0.0,0.0,2.0226431147266686,0.0,0.0,0.33110712,-0.35521029,9.77407578,0.003434,0.001029,0.003332
4.59628400002839,4.59628400002839,0.0,0.0,2.0227255754297433,0.0,0.0,0.32887044,-0.3586536,9.77587101,0.003944,0.00016,0.004108
4.616267999983393,4.616267999983393,0.0,0.0,2.0228202753713713,0.0,0.0,0.31943322,-0.37676286,9.77766624,0.002414,-0.00306,0.00481
4.6362519999966025,4.6362519999966025,0.0,0.0,2.0229131615236087,0.0,0.0,0.32722236,-0.3583593,9.780962400000002,0.00385,-0.001722,0.004696
4.656236000009812,4.656236000009812,0.0,0.0,2.023021748274715,0.0,0.0,0.32827203,-0.34667559,9.76329459,0.002096,-0.001209,0.005588
4.676220000023022,4.676220000023022,0.0,0.0,2.0231277603025166,0.0,0.0,0.32122845,-0.3643434,9.77512545,0.003916,-0.000977,0.005418
4.6962039999780245,4.6962039999780245,0.0,0.0,2.0232509067385855,0.0,0.0,0.32512302,-0.34054434,9.77751909,0.002855,-0.000721,0.006384
4.716187999991234,4.716187999991234,0.0,0.0,2.0233357922754642,0.0,0.0,0.31868766,-0.33021441,9.77737194,0.003621,0.001789,0.004156
4.73617099999683,4.73617099999683,0.0,0.0,2.0234246178315836,0.0,0.0,0.33650262,-0.33081282,9.7664436,0.00277,-6.1e-05,0.004396
4.75615500001004,4.75615500001004,0.0,0.0,2.0235236802417322,0.0,0.0,0.32736951,-0.35116857,9.7724277,0.004562,0.000818,0.004991
4.796122999978252,4.796122999978252,0.0,0.0,2.0236961933992683,0.0,0.0,0.32871348,-0.35311095,9.77572386,0.003613,-0.000464,0.003841
4.816106999991462,4.816106999991462,0.0,0.0,2.0237897866507115,0.0,0.0,0.32182686,-0.36119439,9.77496849,0.003843,-0.001291,0.004686
4.816106999991462,4.816106999991462,0.0,0.0,2.0237906264285153,0.0,0.0,0.32182686,-0.36119439,9.77496849,0.003843,-0.001291,0.004686
4.856075000017881,4.856075000017881,0.0,0.0,2.0239563497719217,0.0,0.0,0.3327552,-0.34802937,9.77317326,0.002672,-0.002797,0.003579
4.856075000017881,4.856075000017881,0.0,0.0,2.0239414535497486,0.0,0.0,0.3327552,-0.34802937,9.77317326,0.002672,-0.002797,0.003579
4.8960429999860935,4.8960429999860935,0.0,0.0,2.0240834600203144,0.0,0.0,0.32811507,-0.34398765,9.76314744,0.002797,-0.000627,0.002574
4.916025999991689,4.916025999991689,0.0,0.0,2.0241616174860084,0.0,0.0,0.32811507,-0.33934752,9.76628664,0.00274,0.000421,0.00389
4.936010000004899,4.936010000004899,0.0,0.0,2.024239251833153,0.0,0.0,0.32452461,-0.34428195,9.768690090000002,0.002699,0.001192,0.003863
4.936010000004899,4.936010000004899,0.0,0.0,2.0242361126167863,0.0,0.0,0.32452461,-0.34428195,9.768690090000002,0.002699,0.001192,0.003863
4.9759780000313185,4.9759780000313185,0.0,0.0,2.0243888342443572,0.0,0.0,0.33260805,-0.35745678,9.76419711,0.004035,-0.000976,0.003554
4.995961999986321,4.995961999986321,0.0,0.0,2.0244477577954054,0.0,0.0,0.3267711,-0.35745678,9.7664436,0.003898,0.000223,0.002823
5.015945999999531,5.015945999999531,0.0,0.0,2.024522058511325,0.0,0.0,0.33305931,-0.35985042,9.77048532,0.003012,0.000847,0.003706
5.015945999999531,5.015945999999531,0.0,0.0,2.0245206080750657,0.0,0.0,0.33305931,-0.35985042,9.77048532,0.003012,0.000847,0.003706
5.05591400002595,5.05591400002595,0.0,0.0,2.0246921477383903,0.0,0.0,0.329616,-0.3441348,9.76749327,0.002047,0.000794,0.004933
5.075897000031546,5.075897000031546,0.0,0.0,2.0247880461255443,0.0,0.0,0.3242303099999999,-0.35640711,9.76778757,0.002788,-0.000683,0.004916
5.095880999986548,5.095880999986548,0.0,0.0,2.0248690118001758,0.0,0.0,0.3153915,-0.3444291,9.77092677,0.002002,0.001183,0.004048
5.115864999999758,5.115864999999758,0.0,0.0,2.0249201948537587,0.0,0.0,0.31749084,-0.35416062,9.77137803,0.001928,-0.001959,0.00235
5.135849000012968,5.135849000012968,0.0,0.0,2.024983801757747,0.0,0.0,0.31898196,-0.35071731,9.76090095,0.002391,-0.0003,0.00309
5.155833000026178,5.155833000026178,0.0,0.0,2.02505091689956,0.0,0.0,0.3270654,-0.3498246,9.76628664,0.002606,-6e-06,0.003304
5.17581699998118,5.17581699998118,0.0,0.0,2.0251395704525255,0.0,0.0,0.32542713,-0.35116857,9.7755669,0.003071,0.000173,0.004544
5.19580099999439,5.19580099999439,0.0,0.0,2.025225634259826,0.0,0.0,0.33021441,-0.36119439,9.77092677,0.003285,1.9e-05,0.00438
5.2157850000076,5.2157850000076,0.0,0.0,2.025327052241817,0.0,0.0,0.32766381,-0.35207109,9.76733631,0.003882,-0.000515,0.005249
5.2357690000208095,5.2357690000208095,0.0,0.0,2.0254157828741315,0.0,0.0,0.32377905,-0.35491599,9.76823883,0.004591,-0.000796,0.004496
5.255752000026405,5.255752000026405,0.0,0.0,2.0254899070635686,0.0,0.0,0.33231375,-0.34607718,9.77706783,0.003978,-0.001246,0.00365
5.275735999981407,5.275735999981407,0.0,0.0,2.025561077844202,0.0,0.0,0.32198382,-0.35416062,9.7582032,0.003886,-0.00034,0.003489
5.295719999994617,5.295719999994617,0.0,0.0,2.025649874304766,0.0,0.0,0.32572143,-0.3583593,9.76314744,0.002005,-0.000253,0.004512
5.315704000007827,5.315704000007827,0.0,0.0,2.025739213665746,0.0,0.0,0.32153256,-0.34219242,9.7721334,0.002808,-0.000754,0.004533
5.335688000021037,5.335688000021037,0.0,0.0,2.025848130721557,0.0,0.0,0.3239262,-0.35671122,9.77287896,0.00381,0.000134,0.005649
5.355672000034247,5.355672000034247,0.0,0.0,2.0259575636883778,0.0,0.0,0.32751666,-0.36194976,9.78141366,0.00381,0.000134,0.005649
5.375655999989249,5.375655999989249,0.0,0.0,2.0260532760849372,0.0,0.0,0.33186249,-0.35386632,9.76883724,0.00415,-0.000654,0.004834
5.395640000002459,5.395640000002459,0.0,0.0,2.02611818137955,0.0,0.0,0.32347494,-0.34667559,9.77512545,0.003855,-0.000969,0.003055
5.415624000015669,5.415624000015669,0.0,0.0,2.0261994234922343,0.0,0.0,0.31000581,-0.34563573,9.77496849,0.00463,-0.001741,0.004024
5.455591000034474,5.455591000034474,0.0,0.0,2.0263607174075444,0.0,0.0,0.31569561,-0.3526695,9.77273181,0.003333,-0.000937,0.003754
5.475574999989476,5.475574999989476,0.0,0.0,2.02644917009974,0.0,0.0,0.32916474,-0.3445860599999999,9.77377167,0.002566,8.5e-05,0.004436
5.495559000002686,5.495559000002686,0.0,0.0,2.0265297079741877,0.0,0.0,0.32318064,-0.34667559,9.77706783,0.001526,-0.000439,0.004017
5.515543000015896,5.515543000015896,0.0,0.0,2.0265999779297736,0.0,0.0,0.32302368,-0.32557428,9.76000824,0.002645,-1.7e-05,0.003467
5.535527000029106,5.535527000029106,0.0,0.0,2.0266790279640707,0.0,0.0,0.32586858,-0.34323228,9.76584519,0.002049,0.001133,0.003943
5.535527000029106,5.535527000029106,0.0,0.0,2.0266766202276516,0.0,0.0,0.32586858,-0.34323228,9.76584519,0.002049,0.001133,0.003943
5.575494999997318,5.575494999997318,0.0,0.0,2.0268232558665753,0.0,0.0,0.32033574,-0.34892208,9.77333022,0.003292,0.001547,0.003184
5.595479000010528,5.595479000010528,0.0,0.0,2.026885075991294,0.0,0.0,0.33141123,-0.3526695,9.76749327,0.003983,0.000156,0.003003
5.615462000016123,5.615462000016123,0.0,0.0,2.02696923851103,0.0,0.0,0.32213097,-0.35207109,9.76345155,0.004859,-0.000416,0.004255
5.615462000016123,5.615462000016123,0.0,0.0,2.0269751816474617,0.0,0.0,0.32213097,-0.35207109,9.76345155,0.004859,-0.000416,0.004255
5.655429999984335,5.655429999984335,0.0,0.0,2.0271477631749626,0.0,0.0,0.32901759,-0.35161983,9.76044969,0.003276,-0.000307,0.004809
5.675413999997545,5.675413999997545,0.0,0.0,2.027221383470229,0.0,0.0,0.3153915,-0.35999757,9.77137803,0.0034,-0.001462,0.003638
5.695398000010755,5.695398000010755,0.0,0.0,2.027282651805802,0.0,0.0,0.32482872,-0.3543175799999999,9.77422293,0.001643,-0.001262,0.002946
5.715382000023965,5.715382000023965,0.0,0.0,2.0273634553938766,0.0,0.0,0.31898196,-0.34383069,9.77706783,0.003217,-0.001652,0.004069
5.735365999978967,5.735365999978967,0.0,0.0,2.0274551204500266,0.0,0.0,0.32916474,-0.3583593,9.77572386,0.002459,-0.001334,0.004682
5.755349999992177,5.755349999992177,0.0,0.0,2.027524682907414,0.0,0.0,0.33215679,-0.35595585,9.76809168,0.00194,-0.000504,0.003412
5.775332999997772,5.775332999997772,0.0,0.0,2.027594686812609,0.0,0.0,0.3371010299999999,-0.3376994400000001,9.77587101,0.002882,0.000387,0.003447
5.795318000018597,5.795318000018597,0.0,0.0,2.027662963954909,0.0,0.0,0.3333536099999999,-0.33904341,9.78500412,0.004489,-0.001194,0.003356
5.8153020000318065,5.8153020000318065,0.0,0.0,2.027756337285907,0.0,0.0,0.31883481,-0.3583593,9.77632227,0.005191,0.000852,0.004798
5.835285999986809,5.835285999986809,0.0,0.0,2.02784493540962,0.0,0.0,0.3267711,-0.34847082,9.77960862,0.005002,0.000139,0.004507
5.855270000000019,5.855270000000019,0.0,0.0,2.0279290534156322,0.0,0.0,0.3270654,-0.35236539,9.75491685,0.003813,-0.00084,0.00424
5.8752540000132285,5.8752540000132285,0.0,0.0,2.027990169553121,0.0,0.0,0.32602554,-0.34712685,9.79009551,0.003351,-0.000676,0.002918
5.895238000026438,5.895238000026438,0.0,0.0,2.028084474913605,0.0,0.0,0.32407335,-0.35176698,9.77063247,0.002398,-0.002543,0.004841
5.915221999981441,5.915221999981441,0.0,0.0,2.0281588175190333,0.0,0.0,0.32662395,-0.34547877,9.7635987,0.004144,-0.001698,0.003678
5.9352059999946505,5.9352059999946505,0.0,0.0,2.028241867888444,0.0,0.0,0.33305931,-0.35939916,9.76599234,0.000521,-0.001939,0.004184
5.955189000000246,5.955189000000246,0.0,0.0,2.0283331709040526,0.0,0.0,0.31854051,-0.34308513,9.7547697,0.002518,-0.001095,0.004654
5.975173000013456,5.975173000013456,0.0,0.0,2.028393750640589,0.0,0.0,0.32467176,-0.36194976,9.77826465,0.003243,-9.6e-05,0.002876
5.995157000026666,5.995157000026666,0.0,0.0,2.028470160996436,0.0,0.0,0.32617269,-0.35161983,9.77706783,0.002613,0.000736,0.003809
6.015140999981668,6.015140999981668,0.0,0.0,2.028550759884462,0.0,0.0,0.32976315,-0.35625996,9.7752726,0.003461,0.001746,0.004052
6.055109000008088,6.055109000008088,0.0,0.0,2.028709896924486,0.0,0.0,0.32946885,-0.34353639,9.77108373,0.003292,-0.000112,0.004041
6.055109000008088,6.055109000008088,0.0,0.0,2.028711553036727,0.0,0.0,0.32946885,-0.34353639,9.77108373,0.003292,-0.000112,0.004041
6.0750930000212975,6.0750930000212975,0.0,0.0,2.028792045923252,0.0,0.0,0.32497587,-0.3412899,9.77063247,0.003292,-0.000112,0.004041
6.11506099998951,6.11506099998951,0.0,0.0,2.0289737333593116,0.0,0.0,0.33874911,-0.34712685,9.77991273,0.004368,0.000394,0.005193
6.135043999995105,6.135043999995105,0.0,0.0,2.029068057168164,0.0,0.0,0.32138541,-0.33889626,9.77317326,0.002385,-0.000884,0.00476
6.135043999995105,6.135043999995105,0.0,0.0,2.0290767305589865,0.0,0.0,0.32138541,-0.33889626,9.77317326,0.002385,-0.000884,0.00476
6.175012000021525,6.175012000021525,0.0,0.0,2.02927375910361,0.0,0.0,0.32662395,-0.34219242,9.77706783,0.001516,-0.000219,0.005678
6.175012000021525,6.175012000021525,0.0,0.0,2.029292839152361,0.0,0.0,0.32662395,-0.34219242,9.77706783,0.001516,-0.000219,0.005678
6.214979999989737,6.214979999989737,0.0,0.0,2.029468421280476,0.0,0.0,0.32572143,-0.35461188,9.7667379,0.00367,0.000948,0.004097
6.214979999989737,6.214979999989737,0.0,0.0,2.0294610770725026,0.0,0.0,0.32572143,-0.35461188,9.7667379,0.00367,0.000948,0.004097
6.254948000016157,6.254948000016157,0.0,0.0,2.0296277137502745,0.0,0.0,0.31015296,-0.34772526,9.77137803,0.00444,-0.00121,0.003754
6.2749320000293665,6.2749320000293665,0.0,0.0,2.0297306904741035,0.0,0.0,0.33305931,-0.35475903,9.76584519,0.003386,-0.000417,0.005246
6.294915999984369,6.294915999984369,0.0,0.0,2.0297955460830295,0.0,0.0,0.32018859,-0.35161983,9.76988691,0.002921,0.000281,0.003085
6.314899999997579,6.314899999997579,0.0,0.0,2.0298991549677154,0.0,0.0,0.32527017,-0.34922619,9.780962400000002,0.003366,0.000324,0.005296
6.334883000003174,6.334883000003174,0.0,0.0,2.0299674727417756,0.0,0.0,0.33021441,-0.3505701599999999,9.75491685,0.002719,-0.001639,0.003283
6.354867000016384,6.354867000016384,0.0,0.0,2.030048792162849,0.0,0.0,0.33650262,-0.35207109,9.75626082,0.002197,-0.000576,0.004039
6.374851000029594,6.374851000029594,0.0,0.0,2.030150976045137,0.0,0.0,0.33066567,-0.36104724,9.780962400000002,0.003867,-0.001863,0.005229
6.394834999984596,6.394834999984596,0.0,0.0,2.0302117768533803,0.0,0.0,0.32302368,-0.3555144,9.76913154,0.00254,-0.000335,0.002857
6.414818999997806,6.414818999997806,0.0,0.0,2.030279328611716,0.0,0.0,0.32167971,-0.34353639,9.77467419,0.003704,-0.000124,0.003268
6.434803000011016,6.434803000011016,0.0,0.0,2.0303424670916668,0.0,0.0,0.32766381,-0.34233957,9.780511140000002,0.004335,-0.000325,0.003032
6.454787000024226,6.454787000024226,0.0,0.0,2.0303884022285033,0.0,0.0,0.3198844799999999,-0.34338924,9.76838598,0.003528,-0.000796,0.002067
6.474770999979228,6.474770999979228,0.0,0.0,2.0304418648073757,0.0,0.0,0.32347494,-0.35207109,9.7781175,0.0055,0.000182,0.002531
6.494754999992438,6.494754999992438,0.0,0.0,2.0305395102270234,0.0,0.0,0.3204828899999999,-0.34743096,9.764491410000002,0.004235,-0.000982,0.005082
6.514737999998033,6.514737999998033,0.0,0.0,2.0306311584972683,0.0,0.0,0.3179421,-0.35566155,9.76120506,0.00334,-0.000418,0.00471
6.534722000011243,6.534722000011243,0.0,0.0,2.0307185230820552,0.0,0.0,0.33755229,-0.35640711,9.77317326,0.004044,-0.001117,0.004446
6.554706000024453,6.554706000024453,0.0,0.0,2.030817927326094,0.0,0.0,0.31629402,-0.34203546,9.77871591,0.002261,-0.00038,0.005126
6.574689999979455,6.574689999979455,0.0,0.0,2.0308948893091507,0.0,0.0,0.32617269,-0.35087427,9.76749327,0.001858,0.0004,0.003815
6.594673999992665,6.594673999992665,0.0,0.0,2.0309642378510384,0.0,0.0,0.34383069,-0.3543175799999999,9.78470001,0.003128,0.000485,0.003383
6.614658000005875,6.614658000005875,0.0,0.0,2.0310663871977166,0.0,0.0,0.32931189,-0.35042301,9.76883724,0.004354,0.001659,0.005281
6.634642000019085,6.634642000019085,0.0,0.0,2.031160521969994,0.0,0.0,0.33695388,-0.3580551899999999,9.78110955,0.004032,0.001172,0.004795
6.6546260000322945,6.6546260000322945,0.0,0.0,2.031252372128475,0.0,0.0,0.31854051,-0.35027586,9.77333022,0.004748,0.000684,0.004651
6.674609999987297,6.674609999987297,0.0,0.0,2.0313312921860636,0.0,0.0,0.32093415,-0.3586536,9.76284333,0.004059,-0.000933,0.003899
6.714577000006102,6.714577000006102,0.0,0.0,2.031509205673162,0.0,0.0,0.32497587,-0.35116857,9.77452704,0.003108,-0.000865,0.004684
6.734561000019312,6.734561000019312,0.0,0.0,2.031600116802232,0.0,0.0,0.33351057,-0.33470739,9.764942670000002,0.005435,-0.002198,0.004561
6.734561000019312,6.734561000019312,0.0,0.0,2.031603856604013,0.0,0.0,0.33351057,-0.33470739,9.764942670000002,0.005435,-0.002198,0.004561
6.774528999987524,6.774528999987524,0.0,0.0,2.031766940153762,0.0,0.0,0.3267711,-0.34338924,9.7755669,0.003079,0.00013,0.003754
6.794513000000734,6.794513000000734,0.0,0.0,2.031819729272547,0.0,0.0,0.31808925,-0.35521029,9.77152518,0.004277,-0.000112,0.002507
6.814496000006329,6.814496000006329,0.0,0.0,2.0318905679485386,0.0,0.0,0.3239262,-0.3646377,9.77617512,0.00156,0.001367,0.003501
6.834480000019539,6.834480000019539,0.0,0.0,2.031959597134506,0.0,0.0,0.33650262,-0.35071731,9.768533130000002,0.003304,0.000108,0.003405
6.854464000032749,6.854464000032749,0.0,0.0,2.032040853629737,0.0,0.0,0.32946885,-0.35042301,9.77257485,0.004188,0.000165,0.004085
6.854464000032749,6.854464000032749,0.0,0.0,2.032043628237652,0.0,0.0,0.32946885,-0.35042301,9.77257485,0.004188,0.000165,0.004085
6.894430999993347,6.894430999993347,0.0,0.0,2.0321990575991595,0.0,0.0,0.31898196,-0.34368354,9.768533130000002,0.003259,0.000916,0.003836
6.9144150000065565,6.9144150000065565,0.0,0.0,2.0322735990306207,0.0,0.0,0.32782077,-0.34398765,9.78515127,0.003609,-6.9e-05,0.003707
6.934399000019766,6.934399000019766,0.0,0.0,2.032382300359835,0.0,0.0,0.32512302,-0.34233957,9.7667379,0.00215,-0.001596,0.005634
6.934399000019766,6.934399000019766,0.0,0.0,2.032405913599713,0.0,0.0,0.32512302,-0.34233957,9.7667379,0.00215,-0.001596,0.005634
6.9743669999879785,6.9743669999879785,0.0,0.0,2.032584729308839,0.0,0.0,0.31778514,-0.34279083,9.78620094,0.003079,-4.5e-05,0.00469
6.994351000001188,6.994351000001188,0.0,0.0,2.032698815543027,0.0,0.0,0.31778514,-0.35566155,9.77541975,0.001921,0.000127,0.005894
7.014335000014398,7.014335000014398,0.0,0.0,2.0327771925833957,0.0,0.0,0.31569561,-0.35356221,9.77032836,0.003321,0.001075,0.003833
7.034319000027608,7.034319000027608,0.0,0.0,2.0328641633935636,0.0,0.0,0.31854051,-0.33934752,9.78560253,0.003048,0.000381,0.004336
7.05430299998261,7.05430299998261,0.0,0.0,2.0329108773675726,0.0,0.0,0.32272938,-0.3555144,9.77826465,0.004282,0.000599,0.00204
7.07428699999582,7.07428699999582,0.0,0.0,2.0329938784087256,0.0,0.0,0.32841918,-0.34219242,9.77572386,0.00342,-0.000538,0.004157
7.094270000001416,7.094270000001416,0.0,0.0,2.033072724029682,0.0,0.0,0.31180104,-0.35730963,9.77018121,0.002857,-0.001193,0.003919
7.1142540000146255,7.1142540000146255,0.0,0.0,2.033152099755406,0.0,0.0,0.31644117,-0.35102142,9.76195062,0.0028,-0.001303,0.003953
7.134238000027835,7.134238000027835,0.0,0.0,2.033233835513764,0.0,0.0,0.32856633,-0.35521029,9.77137803,0.003499,-0.000801,0.004091
7.154221999982838,7.154221999982838,0.0,0.0,2.033266304346588,0.0,0.0,0.33664977,-0.35671122,9.768690090000002,0.004113,-0.003353,0.001266
7.1742059999960475,7.1742059999960475,0.0,0.0,2.033350577099407,0.0,0.0,0.3353058,-0.33455043,9.76764042,0.002835,-0.001874,0.004291
7.194190000009257,7.194190000009257,0.0,0.0,2.0334411024243932,0.0,0.0,0.33605136,-0.35102142,9.77077962,0.002682,7.9e-05,0.004639
7.214174000022467,7.214174000022467,0.0,0.0,2.033535809379824,0.0,0.0,0.32318064,-0.35341506,9.76300029,0.003979,0.000334,0.004863
7.214174000022467,7.214174000022467,0.0,0.0,2.0335486584133946,0.0,0.0,0.32318064,-0.35341506,9.76300029,0.003979,0.000334,0.004863
7.214174000022467,7.214174000022467,0.0,0.0,2.033558825421215,0.0,0.0,0.32318064,-0.35341506,9.76300029,0.003979,0.000334,0.004863
7.274126000003889,7.274126000003889,0.0,0.0,2.0337853662198153,0.0,0.0,0.31658832,-0.36359784,9.77048532,0.003861,-0.000846,0.002727
7.294110000017099,7.294110000017099,0.0,0.0,2.0338568856221304,0.0,0.0,0.31134978,-0.34503732,9.77422293,0.004234,0.00067,0.003513
7.3140930000226945,7.3140930000226945,0.0,0.0,2.0339357566921823,0.0,0.0,0.32691825,-0.35236539,9.76688505,0.004727,-0.000347,0.00395
7.334076999977697,7.334076999977697,0.0,0.0,2.0340255569943686,0.0,0.0,0.32751666,-0.3580551899999999,9.76823883,0.004142,-0.000595,0.004581
7.354060999990907,7.354060999990907,0.0,0.0,2.0341176118760806,0.0,0.0,0.3324609,-0.34428195,9.764942670000002,0.003884,2e-06,0.004697
7.3740450000041164,7.3740450000041164,0.0,0.0,2.0342050136010137,0.0,0.0,0.32242527,-0.3526695,9.76044969,0.003344,-0.000934,0.004414
7.394029000017326,7.394029000017326,0.0,0.0,2.034298281227975,0.0,0.0,0.34038738,-0.35042301,9.77018121,0.00125,-0.000676,0.004746
7.414013000030536,7.414013000030536,0.0,0.0,2.034402947704348,0.0,0.0,0.32931189,-0.35715267,9.77407578,0.002713,-0.0008,0.005391
7.433996999985538,7.433996999985538,0.0,0.0,2.0344845050981206,0.0,0.0,0.31854051,-0.35071731,9.75985128,0.001295,0.000687,0.004035
7.453980999998748,7.453980999998748,0.0,0.0,2.0345672057581456,0.0,0.0,0.32377905,-0.3586536,9.75955698,0.002292,0.000697,0.004108
7.473965000011958,7.473965000011958,0.0,0.0,2.034638617007337,0.0,0.0,0.32512302,-0.34188831,9.76898439,0.002557,-0.000443,0.003462
7.493949000025168,7.493949000025168,0.0,0.0,2.0347120926824322,0.0,0.0,0.32662395,-0.34652844,9.78156081,0.004487,-2.5e-05,0.003598
7.533915999985766,7.533915999985766,0.0,0.0,2.034879027253126,0.0,0.0,0.32557428,-0.35102142,9.77646942,0.002829,-0.002474,0.004241
7.533915999985766,7.533915999985766,0.0,0.0,2.0348808113471533,0.0,0.0,0.32557428,-0.35102142,9.77646942,0.002829,-0.002474,0.004241
7.573884000012185,7.573884000012185,0.0,0.0,2.035077194138509,0.0,0.0,0.31943322,-0.34638129,9.76749327,0.002839,-0.001774,0.005775
7.593868000025395,7.593868000025395,0.0,0.0,2.035151245984731,0.0,0.0,0.3270654,-0.34338924,9.77152518,0.003043,-8.9e-05,0.003656
7.6138519999803975,7.6138519999803975,0.0,0.0,2.0352453459645066,0.0,0.0,0.32063004,-0.35461188,9.76913154,0.002596,-0.00157,0.004744
7.633835999993607,7.633835999993607,0.0,0.0,2.035347260028731,0.0,0.0,0.31270356,-0.3529638,9.7755669,0.001233,-0.000372,0.005168
7.653820000006817,7.653820000006817,0.0,0.0,2.035435400371542,0.0,0.0,0.32856633,-0.34772526,9.77541975,0.002365,0.001488,0.004406
7.673804000020027,7.673804000020027,0.0,0.0,2.035532819003377,0.0,0.0,0.32467176,-0.3586536,9.77946147,0.004363,-0.000556,0.004919
7.693788000033237,7.693788000033237,0.0,0.0,2.035610888463154,0.0,0.0,0.32751666,-0.35776089,9.77692068,0.003078,0.000384,0.00384
7.713771999988239,7.713771999988239,0.0,0.0,2.0356773022442223,0.0,0.0,0.32691825,-0.35655426,9.77273181,0.003335,-0.001626,0.003197
7.733754999993835,7.733754999993835,0.0,0.0,2.035770301914968,0.0,0.0,0.33006726,-0.34683255,9.78036399,0.004005,-0.000611,0.004701
7.7537390000070445,7.7537390000070445,0.0,0.0,2.0358649008177094,0.0,0.0,0.33410898,-0.35221824,9.780815250000002,0.003356,-0.001595,0.004785
7.773723000020254,7.773723000020254,0.0,0.0,2.0359558359604915,0.0,0.0,0.33395202,-0.34906923,9.78500412,0.002169,-0.001273,0.004572
7.793707000033464,7.793707000033464,0.0,0.0,2.0360403831846146,0.0,0.0,0.32931189,-0.338445,9.77257485,0.001725,-0.001365,0.004208
7.8136909999884665,7.8136909999884665,0.0,0.0,2.036111646699908,0.0,0.0,0.32871348,-0.34922619,9.77856876,0.00271,-0.000561,0.003458
7.833675000001676,7.833675000001676,0.0,0.0,2.036186879792351,0.0,0.0,0.33724818,-0.35446473,9.77273181,0.002933,1e-05,0.003698
7.853659000014886,7.853659000014886,0.0,0.0,2.0362853929233653,0.0,0.0,0.32901759,-0.35116857,9.77317326,0.001826,-0.000921,0.005032
7.853659000014886,7.853659000014886,0.0,0.0,2.0362968215965385,0.0,0.0,0.32901759,-0.35116857,9.77317326,0.001826,-0.000921,0.005032
7.893626999983098,7.893626999983098,0.0,0.0,2.036496539567352,0.0,0.0,0.31090833,-0.35176698,9.764795520000002,0.003196,-0.000244,0.005791
7.913610999996308,7.913610999996308,0.0,0.0,2.0365788531440545,0.0,0.0,0.32153256,-0.36403929,9.780658290000002,0.004219,-0.001337,0.004053
7.933595000009518,7.933595000009518,0.0,0.0,2.036649622059496,0.0,0.0,0.32542713,-0.34922619,9.7607538,0.002423,-0.00102,0.003401
7.953579000022728,7.953579000022728,0.0,0.0,2.0367437302155498,0.0,0.0,0.34293798,-0.33904341,9.77048532,0.003797,-0.001585,0.004761
7.973562000028323,7.973562000028323,0.0,0.0,2.0368449044856956,0.0,0.0,0.3381507,-0.3441348,9.78350319,0.003071,-0.00171,0.005159
7.993545999983326,7.993545999983326,0.0,0.0,2.036905698006711,0.0,0.0,0.32512302,-0.35925201,9.77601816,0.002099,0.00024,0.002826
8.013529999996535,8.013529999996535,0.0,0.0,2.036978098998972,0.0,0.0,0.32617269,-0.34997175,9.76972995,0.001814,-0.000482,0.003525
8.033514000009745,8.033514000009745,0.0,0.0,2.037051828874084,0.0,0.0,0.30985866,-0.35776089,9.7752726,0.002555,-0.002568,0.003616
8.053498000022955,8.053498000022955,0.0,0.0,2.0371556414012417,0.0,0.0,0.3267711,-0.35895771,9.76539393,0.003211,0.000152,0.005356
8.073481999977957,8.073481999977957,0.0,0.0,2.0372437674473636,0.0,0.0,0.31959018,-0.34862778,9.780511140000002,0.002979,-0.000244,0.00443
8.093465999991167,8.093465999991167,0.0,0.0,2.0373246950373414,0.0,0.0,0.329616,-0.3505701599999999,9.77392863,0.004606,-0.000144,0.004013
8.133434000017587,8.133434000017587,0.0,0.0,2.0374943128291925,0.0,0.0,0.31734369,-0.35176698,9.76838598,0.002453,0.001047,0.004229
8.153418000030797,8.153418000030797,0.0,0.0,2.0375590724012156,0.0,0.0,0.32542713,-0.3498246,9.78021684,0.004114,0.000186,0.003193
8.1734019999858,8.1734019999858,0.0,0.0,2.037650462774871,0.0,0.0,0.32482872,-0.34906923,9.77886306,0.005033,-0.002387,0.004601
8.1734019999858,8.1734019999858,0.0,0.0,2.0376575651419726,0.0,0.0,0.32482872,-0.34906923,9.77886306,0.005033,-0.002387,0.004601
8.213369000004604,8.213369000004604,0.0,0.0,2.037835848572568,0.0,0.0,0.33470739,-0.34293798,9.79173378,0.003561,-0.000912,0.004736
8.233353000017814,8.233353000017814,0.0,0.0,2.0379136198034216,0.0,0.0,0.32302368,-0.34757811,9.77257485,0.002648,0.0001,0.003855
8.253337000031024,8.253337000031024,0.0,0.0,2.0379775905632673,0.0,0.0,0.3299103,-0.35236539,9.77362452,0.001468,0.00116,0.0031
8.273320999986026,8.273320999986026,0.0,0.0,2.0380274878771445,0.0,0.0,0.32153256,-0.35042301,9.78156081,0.003479,0.001663,0.002332
8.293304999999236,8.293304999999236,0.0,0.0,2.0381023257583806,0.0,0.0,0.32213097,-0.34368354,9.7667379,0.001727,0.001028,0.003734
8.313289000012446,8.313289000012446,0.0,0.0,2.0381908731446217,0.0,0.0,0.31868766,-0.34578288,9.77362452,0.004323,-5e-06,0.0045
8.333273000025656,8.333273000025656,0.0,0.0,2.0382780993193013,0.0,0.0,0.33320646,-0.34832367,9.77737194,0.004179,-0.000751,0.004418
8.353256999980658,8.353256999980658,0.0,0.0,2.0383621129531626,0.0,0.0,0.32033574,-0.3543175799999999,9.7664436,0.00412,-0.001952,0.004231
8.373240999993868,8.373240999993868,0.0,0.0,2.0384486691633175,0.0,0.0,0.32258223,-0.34578288,9.77377167,0.003511,-0.002471,0.004371
8.393225000007078,8.393225000007078,0.0,0.0,2.038530964945844,0.0,0.0,0.32213097,-0.35221824,9.76269618,0.002894,-0.001432,0.004125
8.413209000020288,8.413209000020288,0.0,0.0,2.038613276792182,0.0,0.0,0.3239262,-0.35176698,9.78156081,0.002894,-0.001432,0.004125
8.433193000033498,8.433193000033498,0.0,0.0,2.038704916530488,0.0,0.0,0.31973733,-0.34892208,9.77197644,0.002218,-0.000734,0.004654
8.453175999980886,8.453175999980886,0.0,0.0,2.038787876977553,0.0,0.0,0.33874911,-0.35446473,9.7721334,0.001774,0.000218,0.004151
8.473159999994095,8.473159999994095,0.0,0.0,2.0388587697336913,0.0,0.0,0.32377905,-0.35671122,9.77018121,0.003151,0.000184,0.003463
8.493144000007305,8.493144000007305,0.0,0.0,2.0389370756926652,0.0,0.0,0.32467176,-0.35176698,9.76554108,0.003356,-0.000318,0.003898
8.493144000007305,8.493144000007305,0.0,0.0,2.038934849523038,0.0,0.0,0.32467176,-0.35176698,9.76554108,0.003356,-0.000318,0.003898
8.533112000033725,8.533112000033725,0.0,0.0,2.03908813128713,0.0,0.0,0.30821058,-0.34922619,9.77287896,0.003294,0.000413,0.003589
8.553095999988727,8.553095999988727,0.0,0.0,2.0391715665837413,0.0,0.0,0.32452461,-0.34114275,9.77467419,0.004776,0.001488,0.004206
8.573080000001937,8.573080000001937,0.0,0.0,2.0392378495955796,0.0,0.0,0.32527017,-0.35730963,9.76120506,0.003176,-0.000147,0.003216
8.593064000015147,8.593064000015147,0.0,0.0,2.0393041611237717,0.0,0.0,0.32407335,-0.35790804,9.77512545,0.003156,-0.001039,0.003233
8.613048000028357,8.613048000028357,0.0,0.0,2.0393644354952896,0.0,0.0,0.3299103,-0.33829785,9.77317326,0.002704,-0.001252,0.002899
8.63303199998336,8.63303199998336,0.0,0.0,2.0394500121115033,0.0,0.0,0.33050871,-0.34772526,9.78215922,0.002638,-0.001037,0.004371
8.653015999996569,8.653015999996569,0.0,0.0,2.0395575638118952,0.0,0.0,0.32213097,-0.36599148,9.77572386,0.00037,-0.000457,0.005621
8.673000000009779,8.673000000009779,0.0,0.0,2.0396282489904047,0.0,0.0,0.320787,-0.34353639,9.78036399,0.002083,0.000381,0.003465
8.692984000022989,8.692984000022989,0.0,0.0,2.0397175049811738,0.0,0.0,0.33739533,-0.35251254,9.77541975,0.002451,0.0006,0.004544
8.712967000028584,8.712967000028584,0.0,0.0,2.0397771495672696,0.0,0.0,0.34069149,-0.34862778,9.77362452,0.002438,0.000213,0.002829
8.732950999983586,8.732950999983586,0.0,0.0,2.0398810713736246,0.0,0.0,0.32586858,-0.33395202,9.77452704,0.004545,-0.000242,0.0054
8.752934999996796,8.752934999996796,0.0,0.0,2.0399702425360413,0.0,0.0,0.3270654,-0.36673704,9.768690090000002,0.004553,-0.000339,0.004521
8.772919000010006,8.772919000010006,0.0,0.0,2.0400418474814552,0.0,0.0,0.31973733,-0.35611281,9.77632227,0.003526,-0.000307,0.003501
8.812886999978218,8.812886999978218,0.0,0.0,2.040233075513262,0.0,0.0,0.32736951,-0.3469797,9.77661657,0.002631,-0.001207,0.005573
8.832870999991428,8.832870999991428,0.0,0.0,2.040318750888815,0.0,0.0,0.30955455,-0.34832367,9.77661657,0.001968,-0.000497,0.004288
8.852855000004638,8.852855000004638,0.0,0.0,2.0404175131087623,0.0,0.0,0.32318064,-0.34772526,9.77003406,0.002946,-0.000357,0.004982
8.872839000017848,8.872839000017848,0.0,0.0,2.0404655654705675,0.0,0.0,0.33186249,-0.35221824,9.75491685,0.002713,-4.2e-05,0.002266
8.892823000031058,8.892823000031058,0.0,0.0,2.040564033708833,0.0,0.0,0.32931189,-0.34712685,9.77482134,0.000785,-0.0001,0.004995
8.892823000031058,8.892823000031058,0.0,0.0,2.040576877294768,0.0,0.0,0.32931189,-0.34712685,9.77482134,0.000785,-0.0001,0.004995
8.93279099999927,8.93279099999927,0.0,0.0,2.04077014830853,0.0,0.0,0.32332779,-0.34353639,9.77496849,0.004213,-0.000953,0.005477
8.95277500001248,8.95277500001248,0.0,0.0,2.04083871389929,0.0,0.0,0.32093415,-0.35730963,9.77496849,0.003584,0.000287,0.003322
8.97275900002569,8.97275900002569,0.0,0.0,2.0409058811522485,0.0,0.0,0.33200964,-0.3444291,9.77333022,0.005139,-0.000693,0.003256
8.992742000031285,8.992742000031285,0.0,0.0,2.040979063573987,0.0,0.0,0.31734369,-0.34906923,9.77737194,0.004451,-0.000252,0.003604
9.012725999986287,9.012725999986287,0.0,0.0,2.041066596330566,0.0,0.0,0.32856633,-0.34473321,9.78036399,0.002685,-0.00243,0.004415
9.032709999999497,9.032709999999497,0.0,0.0,2.0411749549289633,0.0,0.0,0.3299103,-0.34009308,9.77077962,0.003248,-0.000149,0.005582
9.052694000012707,9.052694000012707,0.0,0.0,2.041278796553649,0.0,0.0,0.33021441,-0.34398765,9.76809168,0.003304,0.000285,0.005307
9.072678000025917,9.072678000025917,0.0,0.0,2.041379267742548,0.0,0.0,0.3353058,-0.35475903,9.76898439,0.00265,0.00025,0.005102
9.092661999980919,9.092661999980919,0.0,0.0,2.0414878323850996,0.0,0.0,0.32302368,-0.34174116,9.77063247,0.002935,-0.000823,0.005551
9.112645999994129,9.112645999994129,0.0,0.0,2.0415824033561973,0.0,0.0,0.32467176,-0.35176698,9.7607538,0.003293,0.000319,0.00474
9.132630000007339,9.132630000007339,0.0,0.0,2.0416504975592673,0.0,0.0,0.329616,-0.35116857,9.77856876,0.003768,0.000867,0.003232
9.152614000020549,9.152614000020549,0.0,0.0,2.041736161841884,0.0,0.0,0.33155838,-0.34428195,9.77333022,0.004751,0.00011,0.004258
9.172598000033759,9.172598000033759,0.0,0.0,2.0418299536591764,0.0,0.0,0.33050871,-0.35386632,9.77706783,0.00439,0.000125,0.004726
9.19258199998876,9.19258199998876,0.0,0.0,2.0418950983202944,0.0,0.0,0.3153915,-0.34952049,9.76015539,0.003706,-0.000593,0.003084
9.21256600000197,9.21256600000197,0.0,0.0,2.0419882379657217,0.0,0.0,0.33066567,-0.33964182,9.77601816,0.003608,-0.001144,0.004711
9.23255000001518,9.23255000001518,0.0,0.0,2.042076755053836,0.0,0.0,0.31763799,-0.35131572,9.77257485,0.002713,-0.000435,0.004439
9.25253400002839,9.25253400002839,0.0,0.0,2.042209820603899,0.0,0.0,0.3242303099999999,-0.3543175799999999,9.780658290000002,0.003214,9.3e-05,0.006991
9.272517999983393,9.272517999983393,0.0,0.0,2.0422650521548356,0.0,0.0,0.3270654,-0.35401347,9.78605379,0.003751,-0.000119,0.002478
9.292501999996603,9.292501999996603,0.0,0.0,2.0423503569728716,0.0,0.0,0.32153256,-0.35161983,9.77976558,0.00275,-0.000335,0.004246
9.312485000002198,9.312485000002198,0.0,0.0,2.042424088489857,0.0,0.0,0.3270654,-0.34233957,9.780962400000002,0.003675,9.8e-05,0.003585
9.332469000015408,9.332469000015408,0.0,0.0,2.0425093033744286,0.0,0.0,0.32242527,-0.35161983,9.77077962,0.004704,-0.000146,0.00426
9.352453000028618,9.352453000028618,0.0,0.0,2.042583737660327,0.0,0.0,0.31180104,-0.35700552,9.78275763,0.004,0.000337,0.003641
9.37243699998362,9.37243699998362,0.0,0.0,2.0426509980296803,0.0,0.0,0.31000581,-0.34219242,9.780815250000002,0.002956,-0.000516,0.003241
9.39242099999683,9.39242099999683,0.0,0.0,2.042744171915344,0.0,0.0,0.3267711,-0.35326791,9.77152518,0.004434,-0.000833,0.00475
9.41240500001004,9.41240500001004,0.0,0.0,2.0428123341308417,0.0,0.0,0.33410898,-0.35251254,9.77137803,0.003386,-0.001252,0.003298
9.43238900002325,9.43238900002325,0.0,0.0,2.042888335489775,0.0,0.0,0.31239945,-0.36269532,9.7579089,0.00274,-0.000595,0.003766
9.452372999978252,9.452372999978252,0.0,0.0,2.0429689833946565,0.0,0.0,0.3270654,-0.36269532,9.780815250000002,0.002016,-0.001115,0.004039
9.492341000004672,9.492341000004672,0.0,0.0,2.043161639195546,0.0,0.0,0.3333536099999999,-0.35042301,9.76508982,0.002253,0.000265,0.005679
9.492341000004672,9.492341000004672,0.0,0.0,2.0431855506281513,0.0,0.0,0.3333536099999999,-0.35042301,9.76508982,0.002253,0.000265,0.005679
9.532309000031091,9.532309000031091,0.0,0.0,2.0433576993809828,0.0,0.0,0.33380487,-0.34009308,9.7724277,0.004642,0.001949,0.004156
9.552292999986093,9.552292999986093,0.0,0.0,2.043431788770084,0.0,0.0,0.32662395,-0.3529638,9.77422293,0.003803,0.001105,0.003657
9.572276999999303,9.572276999999303,0.0,0.0,2.043519524039562,0.0,0.0,0.32796792,-0.36164565,9.76300029,0.00432,0.000391,0.004398
9.592261000012513,9.592261000012513,0.0,0.0,2.043603455090948,0.0,0.0,0.31134978,-0.34952049,9.76180347,0.004563,-0.001037,0.00419
9.612245000025723,9.612245000025723,0.0,0.0,2.043665116414356,0.0,0.0,0.33695388,-0.34293798,9.77032836,0.004181,-0.001031,0.002968
9.632228999980725,9.632228999980725,0.0,0.0,2.0437522189912425,0.0,0.0,0.32841918,-0.35461188,9.77797035,0.003527,-0.000289,0.004384
9.652212999993935,9.652212999993935,0.0,0.0,2.0438387373962748,0.0,0.0,0.31718673,-0.36224406,9.75970413,0.002223,-0.001998,0.004349
9.67219599999953,9.67219599999953,0.0,0.0,2.043948057604247,0.0,0.0,0.32841918,-0.33605136,9.78529842,0.002544,7.4e-05,0.005619
9.69218000001274,9.69218000001274,0.0,0.0,2.0440224414665895,0.0,0.0,0.33470739,-0.35042301,9.76329459,0.000711,-0.000285,0.003645
9.71216400002595,9.71216400002595,0.0,0.0,2.044100823483717,0.0,0.0,0.32347494,-0.35671122,9.78634809,0.00157,-0.000265,0.003879
9.732147999980953,9.732147999980953,0.0,0.0,2.044189750748293,0.0,0.0,0.31045707,-0.35416062,9.78185511,0.002575,0.000941,0.004479
9.752131999994162,9.752131999994162,0.0,0.0,2.0442658159117997,0.0,0.0,0.32976315,-0.36164565,9.77737194,0.00311,-0.000723,0.003748
9.772116000007372,9.772116000007372,0.0,0.0,2.044323997539017,0.0,0.0,0.32856633,-0.35939916,9.77003406,0.003086,0.000285,0.002742
9.772116000007372,9.772116000007372,0.0,0.0,2.0443044424246795,0.0,0.0,0.32856633,-0.35939916,9.77003406,0.003086,0.000285,0.002742
9.812084999983199,9.812084999983199,0.0,0.0,2.0444306387236093,0.0,0.0,0.33934752,-0.3583593,9.77661657,0.003875,-5.9e-05,0.002268
9.832068999996409,9.832068999996409,0.0,0.0,2.044528420979626,0.0,0.0,0.32662395,-0.35506314,9.77273181,0.003099,-0.000934,0.005072
9.852053000009619,9.852053000009619,0.0,0.0,2.044607072955655,0.0,0.0,0.31464594,-0.34847082,9.77976558,0.003381,-0.000654,0.003951
9.872037000022829,9.872037000022829,0.0,0.0,2.044692577019802,0.0,0.0,0.33231375,-0.34623414,9.79098822,0.001129,-0.000353,0.004341
9.89202099997783,9.89202099997783,0.0,0.0,2.044766371840703,0.0,0.0,0.33380487,-0.35475903,9.78455286,0.003794,-0.000285,0.003661
9.91200499999104,9.91200499999104,0.0,0.0,2.0448286408770304,0.0,0.0,0.32452461,-0.34248672,9.77333022,0.00209,0.00036,0.003005
9.93198900000425,9.93198900000425,0.0,0.0,2.0449315432234503,0.0,0.0,0.32557428,-0.36823797,9.76688505,0.002192,-7.2e-05,0.005352
9.95197300001746,9.95197300001746,0.0,0.0,2.045033209053516,0.0,0.0,0.32318064,-0.34757811,9.764795520000002,0.002421,0.000213,0.005251
9.97195700003067,9.97195700003067,0.0,0.0,2.045104522350762,0.0,0.0,0.32827203,-0.34114275,9.77646942,0.00433,-0.000271,0.003484
9.991940999985673,9.991940999985673,0.0,0.0,2.045182841677674,0.0,0.0,0.32302368,-0.35311095,9.77632227,0.006118,-0.001469,0.003899
10.011924999998882,10.011924999998882,0.0,0.0,2.045267773925353,0.0,0.0,0.32407335,-0.35221824,9.77257485,0.004115,-0.000879,0.004282
10.031909000012092,10.031909000012092,0.0,0.0,2.045347292067211,0.0,0.0,0.32437746,-0.35506314,9.76568823,0.004196,-0.000493,0.003966
10.051893000025302,10.051893000025302,0.0,0.0,2.0454178026953906,0.0,0.0,0.31763799,-0.3498246,9.75985128,0.002103,-0.001047,0.00345
10.091860999993514,10.091860999993514,0.0,0.0,2.045579249095824,0.0,0.0,0.33215679,-0.32482872,9.77152518,0.003452,-0.000605,0.004109
10.091860999993514,10.091860999993514,0.0,0.0,2.045581189946992,0.0,0.0,0.33215679,-0.32482872,9.77152518,0.003452,-0.000605,0.004109
10.131829000019934,10.131829000019934,0.0,0.0,2.0457356557827007,0.0,0.0,0.31270356,-0.35251254,9.77317326,0.002974,5.3e-05,0.003703
10.151813000033144,10.151813000033144,0.0,0.0,2.0458046222196824,0.0,0.0,0.32782077,-0.34712685,9.78036399,0.002945,-0.000113,0.003414
10.171795999980532,10.171795999980532,0.0,0.0,2.045885900180057,0.0,0.0,0.32287653,-0.34772526,9.77677353,0.004486,-0.000618,0.004082
10.191779999993742,10.191779999993742,0.0,0.0,2.045941576442866,0.0,0.0,0.32796792,-0.36867942,9.77092677,0.003465,5.6e-05,0.002685
10.211764000006951,10.211764000006951,0.0,0.0,2.0460150703085462,0.0,0.0,0.32557428,-0.35446473,9.77496849,0.004767,-0.000953,0.003671
10.231748000020161,10.231748000020161,0.0,0.0,2.0460846594626627,0.0,0.0,0.32631984,-0.36299943,9.77632227,0.002838,-0.000556,0.003456
10.251732000033371,10.251732000033371,0.0,0.0,2.046152201387688,0.0,0.0,0.32497587,-0.3586536,9.77333022,0.003131,-0.002606,0.003345
10.271715999988373,10.271715999988373,0.0,0.0,2.046235886119117,0.0,0.0,0.33215679,-0.35506314,9.7781175,0.004002,-0.001067,0.004249
10.291700000001583,10.291700000001583,0.0,0.0,2.046346680273354,0.0,0.0,0.33455043,-0.35895771,9.7695828,0.001831,-0.000169,0.00576
10.331668000028003,10.331668000028003,0.0,0.0,2.0464930094471327,0.0,0.0,0.32258223,-0.34054434,9.77797035,0.002862,0.000955,0.003314
10.351651999983005,10.351651999983005,0.0,0.0,2.0465462499546803,0.0,0.0,0.33320646,-0.34862778,9.77137803,0.003098,-0.001898,0.00263
10.371635999996215,10.371635999996215,0.0,0.0,2.046599683706761,0.0,0.0,0.32347494,-0.3526695,9.76120506,0.003098,-0.001898,0.00263
10.371635999996215,10.371635999996215,0.0,0.0,2.046583967000604,0.0,0.0,0.32347494,-0.3526695,9.76120506,0.003098,-0.001898,0.00263
10.411604000022635,10.411604000022635,0.0,0.0,2.0467106879772423,0.0,0.0,0.32916474,-0.3501189,9.76149936,0.002721,-0.000841,0.002853
10.431587999977637,10.431587999977637,0.0,0.0,2.04678860547709,0.0,0.0,0.329616,-0.347274,9.77751909,0.004959,-0.00068,0.003941
10.451571999990847,10.451571999990847,0.0,0.0,2.046845964007268,0.0,0.0,0.33215679,-0.35341506,9.77422293,0.003913,-0.001093,0.00282
10.471556000004057,10.471556000004057,0.0,0.0,2.0469321821254347,0.0,0.0,0.32722236,-0.35087427,9.77347737,0.003516,-0.000758,0.004405
10.491540000017267,10.491540000017267,0.0,0.0,2.04701857978373,0.0,0.0,0.31658832,-0.33664977,9.76209777,0.003466,-0.000621,0.004407
10.511524000030477,10.511524000030477,0.0,0.0,2.0470815295237994,0.0,0.0,0.32766381,-0.35760393,9.77123088,0.002213,0.000245,0.003099
10.511524000030477,10.511524000030477,0.0,0.0,2.0470743063600407,0.0,0.0,0.32766381,-0.35760393,9.77123088,0.002213,0.000245,0.003099
10.551491999998689,10.551491999998689,0.0,0.0,2.047206379548604,0.0,0.0,0.3327552,-0.3409956,9.78261048,0.00294,-0.000671,0.003062
10.571476000011899,10.571476000011899,0.0,0.0,2.0472883558781625,0.0,0.0,0.32272938,-0.35521029,9.765246780000002,0.002736,2.8e-05,0.004185
10.591460000025108,10.591460000025108,0.0,0.0,2.047362749533712,0.0,0.0,0.33021441,-0.34607718,9.76809168,0.002629,0.000684,0.003746
10.61144399998011,10.61144399998011,0.0,0.0,2.047453420756444,0.0,0.0,0.31658832,-0.3412899,9.77856876,0.003886,-0.001207,0.004664
10.63142799999332,10.63142799999332,0.0,0.0,2.047565766358927,0.0,0.0,0.33260805,-0.34233957,9.77721498,0.003115,-0.001037,0.005876
10.65141200000653,10.65141200000653,0.0,0.0,2.047689425431649,0.0,0.0,0.32347494,-0.35880075,9.78395445,0.00407,-0.000893,0.006484
10.69138000003295,10.69138000003295,0.0,0.0,2.0478790581352975,0.0,0.0,0.33440328,-0.35446473,9.76464837,0.004536,-0.000939,0.005176
10.69138000003295,10.69138000003295,0.0,0.0,2.0478913060927173,0.0,0.0,0.33440328,-0.35446473,9.76464837,0.004536,-0.000939,0.005176
10.731348000001162,10.731348000001162,0.0,0.0,2.048095516769969,0.0,0.0,0.33829785,-0.36314658,9.75865446,0.003168,-0.000395,0.00573
10.751332000014372,10.751332000014372,0.0,0.0,2.048165427045271,0.0,0.0,0.3239262,-0.35176698,9.76688505,0.001047,0.000236,0.003419
10.771316000027582,10.771316000027582,0.0,0.0,2.0482442510960777,0.0,0.0,0.31703958,-0.3526695,9.77228055,0.002841,0.000967,0.0039
10.791299999982584,10.791299999982584,0.0,0.0,2.048329691955483,0.0,0.0,0.32811507,-0.34967745,9.77063247,0.004272,0.002211,0.004261
10.811283999995794,10.811283999995794,0.0,0.0,2.0484188301230626,0.0,0.0,0.31060422,-0.35386632,9.77437008,0.003916,0.0003,0.004464
10.831268000009004,10.831268000009004,0.0,0.0,2.04851433720634,0.0,0.0,0.31598991,-0.36075294,9.765246780000002,0.003451,0.00117,0.004814
10.851252000022214,10.851252000022214,0.0,0.0,2.0485904156480466,0.0,0.0,0.31749084,-0.34997175,9.76659075,0.004078,-0.000688,0.003736
10.871235999977216,10.871235999977216,0.0,0.0,2.0486663632888007,0.0,0.0,0.32272938,-0.35461188,9.78649524,0.004078,-0.000688,0.003736
10.891219999990426,10.891219999990426,0.0,0.0,2.048773195736703,0.0,0.0,0.32796792,-0.34383069,9.77737194,0.004073,-0.001519,0.005468
10.911204000003636,10.911204000003636,0.0,0.0,2.0488550806964794,0.0,0.0,0.31973733,-0.35910486,9.76733631,0.003558,0.000891,0.004055
10.931188000016846,10.931188000016846,0.0,0.0,2.0489653637018046,0.0,0.0,0.32827203,-0.35790804,9.78679935,0.002211,-0.001116,0.005658
10.951172000030056,10.951172000030056,0.0,0.0,2.049047394230837,0.0,0.0,0.3327552,-0.34787241,9.77587101,0.001867,-0.000327,0.004046
10.971154999977443,10.971154999977443,0.0,0.0,2.0491371675169425,0.0,0.0,0.3267711,-0.34967745,9.765246780000002,0.002703,0.000926,0.004492
10.991138999990653,10.991138999990653,0.0,0.0,2.049209102676536,0.0,0.0,0.3182364,-0.35760393,9.77617512,0.00199,0.00049,0.00348
11.031107000017073,11.031107000017073,0.0,0.0,2.0493848994414243,0.0,0.0,0.31614687,-0.34847082,9.77362452,0.004347,0.001065,0.004437
11.051091000030283,11.051091000030283,0.0,0.0,2.049446473338813,0.0,0.0,0.3167452799999999,-0.36135135,9.77646942,0.003404,-0.000781,0.003033
11.051091000030283,11.051091000030283,0.0,0.0,2.0494271191862516,0.0,0.0,0.3167452799999999,-0.36135135,9.77646942,0.003404,-0.000781,0.003033
11.071074999985285,11.071074999985285,0.0,0.0,2.0495051763298147,0.0,0.0,0.31868766,-0.3409956,9.77287896,0.002757,-0.000843,0.003882
11.091058999998495,11.091058999998495,0.0,0.0,2.0496063365852706,0.0,0.0,0.31598991,-0.35939916,9.76809168,0.00259,-7.6e-05,0.005249
11.131027000024915,11.131027000024915,0.0,0.0,2.049805587668045,0.0,0.0,0.32018859,-0.33784659,9.78350319,0.00301,-0.001009,0.005889
11.151010999979917,11.151010999979917,0.0,0.0,2.0499050273392676,0.0,0.0,0.33291216,-0.34533162,9.77302611,0.003801,-0.001322,0.005014
11.170994999993127,11.170994999993127,0.0,0.0,2.049961545075046,0.0,0.0,0.32796792,-0.3529638,9.77587101,0.003466,0.000213,0.002697
11.190979000006337,11.190979000006337,0.0,0.0,2.0500439838325555,0.0,0.0,0.31598991,-0.35790804,9.77572386,0.002526,0.000701,0.004114
11.210963000019547,11.210963000019547,0.0,0.0,2.050127192676862,0.0,0.0,0.33231375,-0.35356221,9.77032836,0.002893,0.000455,0.004157
11.230947000032756,11.230947000032756,0.0,0.0,2.050189541834955,0.0,0.0,0.32736951,-0.35595585,9.77856876,0.004884,-0.000754,0.003008
11.250930999987759,11.250930999987759,0.0,0.0,2.050273151245241,0.0,0.0,0.32542713,-0.35611281,9.7664436,0.003486,-0.001332,0.004197
11.270915000000969,11.270915000000969,0.0,0.0,2.0503531042251604,0.0,0.0,0.32003163,-0.34937334,9.77362452,0.003897,-0.000411,0.003992
11.290899000014178,11.290899000014178,0.0,0.0,2.050445806465226,0.0,0.0,0.32722236,-0.33978897,9.77901021,0.003172,-0.001514,0.004706
11.310883000027388,11.310883000027388,0.0,0.0,2.0505386498243574,0.0,0.0,0.32856633,-0.3526695,9.77377167,0.003172,-0.001514,0.004706
11.33086699998239,11.33086699998239,0.0,0.0,2.050654225549456,0.0,0.0,0.30641535,-0.34712685,9.76764042,0.003421,-0.001303,0.005979
11.3508509999956,11.3508509999956,0.0,0.0,2.0507519001460874,0.0,0.0,0.33200964,-0.35475903,9.77692068,0.001386,6.9e-05,0.004943
11.39081900002202,11.39081900002202,0.0,0.0,2.0509347373992215,0.0,0.0,0.32182686,-0.35939916,9.76823883,0.003713,0.000955,0.004629
11.410802999977022,11.410802999977022,0.0,0.0,2.0509998229625888,0.0,0.0,0.33141123,-0.35027586,9.77646942,0.002386,-0.001363,0.003213
11.430786999990232,11.430786999990232,0.0,0.0,2.0510846730962324,0.0,0.0,0.3327552,-0.35116857,9.78934014,0.003963,-0.000514,0.004241
11.450771000003442,11.450771000003442,0.0,0.0,2.051158594796263,0.0,0.0,0.33425613,-0.35356221,9.77991273,0.003949,-0.001286,0.003661
11.470755000016652,11.470755000016652,0.0,0.0,2.0512233026367124,0.0,0.0,0.32796792,-0.35236539,9.77362452,0.003798,2e-06,0.003167
11.490739000029862,11.490739000029862,0.0,0.0,2.051292003475135,0.0,0.0,0.33724818,-0.34817652,9.7812567,0.00455,-0.000393,0.003385
11.510722999984864,11.510722999984864,0.0,0.0,2.051402526415579,0.0,0.0,0.32782077,-0.34279083,9.7667379,0.005371,-0.000466,0.005667
11.530706999998074,11.530706999998074,0.0,0.0,2.051498926671954,0.0,0.0,0.31194819,-0.34892208,9.77032836,0.004078,-0.001831,0.004882
11.550691000011284,11.550691000011284,0.0,0.0,2.0515941507728845,0.0,0.0,0.32347494,-0.35715267,9.77976558,0.002919,-6.8e-05,0.004812
11.570675000024494,11.570675000024494,0.0,0.0,2.0516649587367644,0.0,0.0,0.32856633,-0.35116857,9.79038981,0.003292,-0.000265,0.003452
11.590658999979496,11.590658999979496,0.0,0.0,2.0517355928388508,0.0,0.0,0.32003163,-0.34593003,9.76240188,0.003292,-0.000265,0.003452
11.610642999992706,11.610642999992706,0.0,0.0,2.051803971129875,0.0,0.0,0.33126408,-0.3558087,9.78185511,0.003525,0.001626,0.003335
11.630627000005916,11.630627000005916,0.0,0.0,2.05187216603915,0.0,0.0,0.33590421,-0.3505701599999999,9.78005988,0.003525,0.001626,0.003335
11.650611000019126,11.650611000019126,0.0,0.0,2.0519552104346914,0.0,0.0,0.32782077,-0.35685837,9.77422293,0.002478,4.3e-05,0.004182
11.670595000032336,11.670595000032336,0.0,0.0,2.0520383145883603,0.0,0.0,0.3371010299999999,-0.35611281,9.77692068,0.002478,4.3e-05,0.004182
11.690578999987338,11.690578999987338,0.0,0.0,2.0520842349711597,0.0,0.0,0.31150674,-0.3558087,9.77737194,0.002836,-0.000471,0.002071
11.710563000000548,11.710563000000548,0.0,0.0,2.0521608998306142,0.0,0.0,0.33724818,-0.35446473,9.78110955,0.001437,-6.1e-05,0.003848
11.730547000013757,11.730547000013757,0.0,0.0,2.0522559530764752,0.0,0.0,0.31194819,-0.34533162,9.77721498,0.004423,-0.000697,0.004893
11.750531000026967,11.750531000026967,0.0,0.0,2.0523427604386866,0.0,0.0,0.32841918,-0.35655426,9.77347737,0.002472,-0.001043,0.004404
11.77051499998197,11.77051499998197,0.0,0.0,2.052438543966966,0.0,0.0,0.31494024,-0.33919056,9.7721334,0.001574,-0.000213,0.004908
11.810482000000775,11.810482000000775,0.0,0.0,2.052570470500749,0.0,0.0,0.32512302,-0.36329373,9.76704201,0.001756,-0.00064,0.002458
11.830466000013985,11.830466000013985,0.0,0.0,2.052663852308492,0.0,0.0,0.32407335,-0.3469797,9.77092677,0.003357,0.000267,0.004707
11.850450000027195,11.850450000027195,0.0,0.0,2.0527495277696293,0.0,0.0,0.33081282,-0.3444291,9.77541975,0.004802,0.001083,0.004304
11.870433999982197,11.870433999982197,0.0,0.0,2.0528157350362912,0.0,0.0,0.31703958,-0.36673704,9.7692885,0.004018,-0.00093,0.003266
11.890417999995407,11.890417999995407,0.0,0.0,2.052884137954184,0.0,0.0,0.3239262,-0.33829785,9.780511140000002,0.005163,-0.001415,0.003385
11.910402000008617,11.910402000008617,0.0,0.0,2.052944276926892,0.0,0.0,0.31374342,-0.35116857,9.77108373,0.002755,0.000473,0.002938
11.930386000021826,11.930386000021826,0.0,0.0,2.053025955961566,0.0,0.0,0.33186249,-0.35939916,9.7784118,0.005606,-0.000719,0.004121
11.950369999976829,11.950369999976829,0.0,0.0,2.053127428088372,0.0,0.0,0.32467176,-0.35281665,9.77496849,0.001705,-0.000521,0.005208
11.970353999990039,11.970353999990039,0.0,0.0,2.0532375357215678,0.0,0.0,0.33006726,-0.34652844,9.77751909,0.003865,-0.000319,0.005674
11.990339000010863,11.990339000010863,0.0,0.0,2.053331078247549,0.0,0.0,0.32527017,-0.34383069,9.76809168,0.001782,0.000912,0.004735
12.010323000024073,12.010323000024073,0.0,0.0,2.053422129819789,0.0,0.0,0.32662395,-0.36015453,9.76838598,0.003959,-0.001034,0.00459
12.030306999979075,12.030306999979075,0.0,0.0,2.0534985320199137,0.0,0.0,0.3070137599999999,-0.34937334,9.77467419,0.003471,-0.00049,0.003764
12.050290999992285,12.050290999992285,0.0,0.0,2.0535954431725667,0.0,0.0,0.33365772,-0.34114275,9.76269618,0.004068,-0.001184,0.004926
12.070275000005495,12.070275000005495,0.0,0.0,2.0536775096349977,0.0,0.0,0.32437746,-0.35625996,9.77048532,0.004188,-0.001254,0.004078
12.090259000018705,12.090259000018705,0.0,0.0,2.0537656565846873,0.0,0.0,0.32437746,-0.3555144,9.7784118,0.003003,-0.000534,0.004426
12.110243000031915,12.110243000031915,0.0,0.0,2.0538588607722996,0.0,0.0,0.32153256,-0.35161983,9.78335604,0.00476,-0.00066,0.004711
12.150211000000127,12.150211000000127,0.0,0.0,2.054027706624545,0.0,0.0,0.32976315,-0.34203546,9.77152518,0.002736,-0.001792,0.004077
12.170195000013337,12.170195000013337,0.0,0.0,2.054131140308211,0.0,0.0,0.32811507,-0.34817652,9.78185511,0.002233,-0.000999,0.005208
12.170195000013337,12.170195000013337,0.0,0.0,2.0541439187479593,0.0,0.0,0.32811507,-0.34817652,9.78185511,0.002233,-0.000999,0.005208
12.190179000026546,12.190179000026546,0.0,0.0,2.0541985653753416,0.0,0.0,0.33231375,-0.3580551899999999,9.76704201,0.00209,0.000169,0.002404
12.230146999994759,12.230146999994759,0.0,0.0,2.0543610184155776,0.0,0.0,0.32242527,-0.34143705,9.76300029,0.002657,0.00025,0.00383
12.250131000007968,12.250131000007968,0.0,0.0,2.054434170839585,0.0,0.0,0.31060422,-0.35611281,9.77422293,0.002722,-0.000196,0.003621
12.270115000021178,12.270115000021178,0.0,0.0,2.0545205826220254,0.0,0.0,0.33066567,-0.3526695,9.76539393,0.004415,0.000377,0.00434
12.290099000034388,12.290099000034388,0.0,0.0,2.0546175231526638,0.0,0.0,0.32766381,-0.35985042,9.77422293,0.003035,0.00041,0.004913
12.31008299998939,12.31008299998939,0.0,0.0,2.054682577237399,0.0,0.0,0.3182364,-0.34607718,9.77197644,0.002848,-0.000508,0.003158
12.3300670000026,12.3300670000026,0.0,0.0,2.0547784050951954,0.0,0.0,0.32198382,-0.34906923,9.77407578,0.00421,-6.4e-05,0.004866
12.3300670000026,12.3300670000026,0.0,0.0,2.054788839761592,0.0,0.0,0.32198382,-0.34906923,9.77407578,0.00421,-6.4e-05,0.004866
12.37003500002902,12.37003500002902,0.0,0.0,2.0549513823846404,0.0,0.0,0.33260805,-0.35640711,9.77377167,0.002232,-0.000328,0.003791
12.390018999984022,12.390018999984022,0.0,0.0,2.055030945257905,0.0,0.0,0.31285071,-0.34832367,9.77392863,0.001332,-0.000479,0.003952
12.410002999997232,12.410002999997232,0.0,0.0,2.0551284468197206,0.0,0.0,0.33200964,-0.3529638,9.768690090000002,0.002559,0.000946,0.004966
12.429987000010442,12.429987000010442,0.0,0.0,2.0552081219926297,0.0,0.0,0.3327552,-0.34368354,9.76269618,0.001666,0.000992,0.003948
12.449971000023652,12.449971000023652,0.0,0.0,2.0552901259807017,0.0,0.0,0.32931189,-0.35131572,9.78634809,0.001663,0.001137,0.004085
12.469954999978654,12.469954999978654,0.0,0.0,2.055393839266559,0.0,0.0,0.31943322,-0.3498246,9.77422293,0.002863,0.000659,0.005319
12.489938999991864,12.489938999991864,0.0,0.0,2.055462991548964,0.0,0.0,0.32182686,-0.347274,9.77123088,0.003189,-0.001037,0.003337
12.509923000005074,12.509923000005074,0.0,0.0,2.0555417499428135,0.0,0.0,0.32557428,-0.35880075,9.7755669,0.004961,-7.7e-05,0.003901
12.529907000018284,12.529907000018284,0.0,0.0,2.0556061167096473,0.0,0.0,0.32003163,-0.35939916,9.78245352,0.004911,-0.002681,0.003086
12.549891000031494,12.549891000031494,0.0,0.0,2.0557000637181577,0.0,0.0,0.32332779,-0.34533162,9.78230637,0.002676,-0.002434,0.004794
12.569874999986496,12.569874999986496,0.0,0.0,2.0557789705426313,0.0,0.0,0.33021441,-0.34263387,9.79069392,0.002793,-0.00041,0.003921
12.589858999999706,12.589858999999706,0.0,0.0,2.0558616703889445,0.0,0.0,0.320787,-0.34802937,9.77916717,0.002277,-0.001463,0.004142
12.609843000012916,12.609843000012916,0.0,0.0,2.0559449557504506,0.0,0.0,0.32377905,-0.34862778,9.77646942,0.001195,-0.00176,0.004175
12.629827000026125,12.629827000026125,0.0,0.0,2.056021141986177,0.0,0.0,0.32602554,-0.34547877,9.77302611,0.002065,0.000563,0.003767
12.669794999994338,12.669794999994338,0.0,0.0,2.056191459166861,0.0,0.0,0.32856633,-0.3409956,9.7755669,0.004036,-0.001509,0.004457
12.689779000007547,12.689779000007547,0.0,0.0,2.056271336639523,0.0,0.0,0.31838355,-0.34997175,9.7781175,0.003214,-0.000211,0.003991
12.709763000020757,12.709763000020757,0.0,0.0,2.0563744954977565,0.0,0.0,0.33021441,-0.33949467,9.77018121,0.00391,0.00046,0.005222
12.729747000033967,12.729747000033967,0.0,0.0,2.0564648572180424,0.0,0.0,0.33470739,-0.34638129,9.76793472,0.002993,-0.000137,0.004539
12.74973099998897,12.74973099998897,0.0,0.0,2.0565705762040585,0.0,0.0,0.32557428,-0.34757811,9.77646942,0.003055,-0.001709,0.005367
12.76971500000218,12.76971500000218,0.0,0.0,2.056637181718566,0.0,0.0,0.31973733,-0.34607718,9.7607538,0.003729,0.000264,0.003236
12.789700000023004,12.789700000023004,0.0,0.0,2.056703667336139,0.0,0.0,0.32287653,-0.34667559,9.76793472,0.003729,0.000264,0.003236
12.809683999978006,12.809683999978006,0.0,0.0,2.05676854016186,0.0,0.0,0.32063004,-0.35102142,9.76345155,0.002308,0.002076,0.003155
12.829667999991216,12.829667999991216,0.0,0.0,2.0568595777376304,0.0,0.0,0.32467176,-0.34398765,9.77781339,0.002325,0.000593,0.004614
12.849652000004426,12.849652000004426,0.0,0.0,2.05694738573552,0.0,0.0,0.33215679,-0.34368354,9.76015539,0.002143,0.000884,0.004428
12.869636000017636,12.869636000017636,0.0,0.0,2.057041768571631,0.0,0.0,0.32258223,-0.34578288,9.77302611,0.003571,-0.000472,0.004792
12.889620000030845,12.889620000030845,0.0,0.0,2.0571076068519503,0.0,0.0,0.31913892,-0.3529638,9.7695828,0.004734,-0.000128,0.003181
12.909603999985848,12.909603999985848,0.0,0.0,2.057180581870906,0.0,0.0,0.31808925,-0.35625996,9.76778757,0.003382,-0.000372,0.003597
12.929587999999058,12.929587999999058,0.0,0.0,2.057238638785761,0.0,0.0,0.320787,-0.3445860599999999,9.76120506,0.004015,-0.000577,0.002761
12.949572000012267,12.949572000012267,0.0,0.0,2.057325085792261,0.0,0.0,0.32827203,-0.3501189,9.77152518,0.002948,-0.000568,0.004388
12.969556000025477,12.969556000025477,0.0,0.0,2.0573976052077985,0.0,0.0,0.32182686,-0.35655426,9.75955698,0.003198,-0.000484,0.003589
12.98953999998048,12.98953999998048,0.0,0.0,2.057455596451412,0.0,0.0,0.3242303099999999,-0.35506314,9.77018121,0.002339,-0.001979,0.002768
13.00952399999369,13.00952399999369,0.0,0.0,2.0575422211595242,0.0,0.0,0.31000581,-0.33829785,9.77931432,0.00237,-0.000804,0.004418
13.0295080000069,13.0295080000069,0.0,0.0,2.0576116134181683,0.0,0.0,0.30625839,-0.34683255,9.76749327,0.002891,0.000791,0.003423
13.04949200002011,13.04949200002011,0.0,0.0,2.0577208746254154,0.0,0.0,0.33095997,-0.34967745,9.78245352,0.002141,0.000183,0.005708
13.089459999988321,13.089459999988321,0.0,0.0,2.0578857426655155,0.0,0.0,0.31434183,-0.34279083,9.78245352,0.003596,0.001002,0.004229
13.089459999988321,13.089459999988321,0.0,0.0,2.057888670039871,0.0,0.0,0.31434183,-0.34279083,9.78245352,0.003596,0.001002,0.004229
13.129428000014741,13.129428000014741,0.0,0.0,2.0580349326316494,0.0,0.0,0.31314501,-0.3529638,9.76764042,0.00495,-0.00155,0.003192
13.129428000014741,13.129428000014741,0.0,0.0,2.058022398496819,0.0,0.0,0.31314501,-0.3529638,9.76764042,0.00495,-0.00155,0.003192
13.169395999982953,13.169395999982953,0.0,0.0,2.058175694043385,0.0,0.0,0.31734369,-0.35371917,9.77706783,0.004513,-0.001699,0.003812
13.189379999996163,13.189379999996163,0.0,0.0,2.0582697820352776,0.0,0.0,0.31285071,-0.35401347,9.77601816,0.003108,-0.001135,0.004785
13.209364000009373,13.209364000009373,0.0,0.0,2.0583174442797354,0.0,0.0,0.31718673,-0.34518447,9.77751909,0.002229,-0.000411,0.002231
13.209364000009373,13.209364000009373,0.0,0.0,2.058293278465916,0.0,0.0,0.31718673,-0.34518447,9.77751909,0.002229,-0.000411,0.002231
13.249331999977585,13.249331999977585,0.0,0.0,2.0584460796866058,0.0,0.0,0.3198844799999999,-0.35131572,9.76823883,0.001492,-0.000521,0.004149
13.269315999990795,13.269315999990795,0.0,0.0,2.058502803432688,0.0,0.0,0.32302368,-0.34398765,9.77646942,0.00331,0.001576,0.002745
13.28930100001162,13.28930100001162,0.0,0.0,2.0585730187178664,0.0,0.0,0.33799374,-0.347274,9.78021684,0.003074,0.001378,0.003513
13.309285000024829,13.309285000024829,0.0,0.0,2.05864178964009,0.0,0.0,0.32302368,-0.35341506,9.78440571,0.004042,-0.00133,0.003432
13.329268999979831,13.329268999979831,0.0,0.0,2.05871419091965,0.0,0.0,0.31959018,-0.35655426,9.77347737,0.002259,-0.001476,0.003638
13.349252999993041,13.349252999993041,0.0,0.0,2.058802823638004,0.0,0.0,0.32467176,-0.34802937,9.7812567,0.002482,-0.000865,0.004554
13.369237000006251,13.369237000006251,0.0,0.0,2.058875771570041,0.0,0.0,0.32167971,-0.35027586,9.76704201,0.004032,-0.001652,0.003649
13.389221000019461,13.389221000019461,0.0,0.0,2.0589491036793675,0.0,0.0,0.32332779,-0.35625996,9.76180347,0.00313,-0.001574,0.003671
13.40920500003267,13.40920500003267,0.0,0.0,2.059063159007704,0.0,0.0,0.32287653,-0.3498246,9.7781175,0.002842,-0.000822,0.005988
13.429188999987673,13.429188999987673,0.0,0.0,2.0591781464846575,0.0,0.0,0.32931189,-0.35042301,9.77946147,0.001453,-0.000773,0.006002
13.449173000000883,13.449173000000883,0.0,0.0,2.059246875041584,0.0,0.0,0.32901759,-0.34159401,9.78529842,0.001929,0.000138,0.003327
13.469157000014093,13.469157000014093,0.0,0.0,2.059333122302723,0.0,0.0,0.32003163,-0.34817652,9.7755669,0.002273,0.0006,0.004344
13.489141000027303,13.489141000027303,0.0,0.0,2.059413409115039,0.0,0.0,0.33066567,-0.35461188,9.77482134,0.002798,0.001422,0.003999
13.509124999982305,13.509124999982305,0.0,0.0,2.0594929854736392,0.0,0.0,0.31718673,-0.35491599,9.77092677,0.002818,-0.001168,0.003961
13.529108999995515,13.529108999995515,0.0,0.0,2.0595796282776604,0.0,0.0,0.30850488,-0.34038738,9.77333022,0.003318,0.000433,0.004369
13.549093000008725,13.549093000008725,0.0,0.0,2.059652162000692,0.0,0.0,0.32841918,-0.35356221,9.77377167,0.003082,-0.001991,0.003555
13.569077000021935,13.569077000021935,0.0,0.0,2.059755680767263,0.0,0.0,0.33141123,-0.35207109,9.77706783,0.004187,-0.001927,0.005344
13.589060999976937,13.589060999976937,0.0,0.0,2.0598387203994895,0.0,0.0,0.31734369,-0.33949467,9.77706783,0.002133,-0.001693,0.004144
13.609044999990147,13.609044999990147,0.0,0.0,2.0599361275535104,0.0,0.0,0.32631984,-0.3543175799999999,9.77886306,0.00247,-0.00118,0.004971
13.609044999990147,13.609044999990147,0.0,0.0,2.059946151494649,0.0,0.0,0.32631984,-0.3543175799999999,9.77886306,0.00247,-0.00118,0.004971
13.668997000029776,13.668997000029776,0.0,0.0,2.060204667838221,0.0,0.0,0.33590421,-0.34787241,9.77826465,0.001469,0.000305,0.004133
13.688980999984778,13.688980999984778,0.0,0.0,2.0602964954900145,0.0,0.0,0.33605136,-0.34473321,9.77931432,0.002747,0.000444,0.00461
13.688980999984778,13.688980999984778,0.0,0.0,2.0603000629776105,0.0,0.0,0.33605136,-0.34473321,9.77931432,0.002747,0.000444,0.00461
13.728950000018813,13.728950000018813,0.0,0.0,2.060476862035566,0.0,0.0,0.31943322,-0.35341506,9.77871591,0.003404,-0.000267,0.004427
13.728950000018813,13.728950000018813,0.0,0.0,2.0604769541499888,0.0,0.0,0.31943322,-0.35341506,9.77871591,0.003404,-0.000267,0.004427
13.768917999987025,13.768917999987025,0.0,0.0,2.060635586695379,0.0,0.0,0.33050871,-0.35895771,9.76464837,0.003494,-0.001466,0.003423
13.788902000000235,13.788902000000235,0.0,0.0,2.0607108909975196,0.0,0.0,0.32302368,-0.34683255,9.77901021,0.004326,-0.000581,0.003713
13.808886000013445,13.808886000013445,0.0,0.0,2.0608242838218676,0.0,0.0,0.32827203,-0.3376994400000001,9.78814332,0.002684,-0.000795,0.00584
13.828870000026654,13.828870000026654,0.0,0.0,2.060913395946754,0.0,0.0,0.32227812,-0.35760393,9.77452704,0.002508,-0.001114,0.004463
13.848853999981657,13.848853999981657,0.0,0.0,1.8144754267902616,0.0,0.0,0.3267711,-0.34922619,9.77287896,0.002843,-0.000578,0.003403
13.868837999994867,13.868837999994867,0.0,0.0,1.814573697075617,0.0,0.0,0.32332779,-0.34488036,9.78799617,0.000953,-5e-05,0.005057
13.888822000008076,13.888822000008076,0.0,0.0,1.8146472274191776,0.0,0.0,0.33260805,-0.35776089,9.77273181,0.003113,0.00017,0.003604
13.908806000021286,13.908806000021286,0.0,0.0,1.8147506791505945,0.0,0.0,0.32856633,-0.34802937,9.78440571,0.001492,-0.000848,0.005345
13.928790000034496,13.928790000034496,0.0,0.0,1.8148304693241304,0.0,0.0,0.31479309,-0.35386632,9.75940983,0.00447,0.000299,0.003952
13.948773999989498,13.948773999989498,0.0,0.0,1.8149297057784564,0.0,0.0,0.31854051,-0.3555144,9.7724277,0.002879,-0.0006,0.005081
13.968758000002708,13.968758000002708,0.0,0.0,1.8150193749205146,0.0,0.0,0.33036156,-0.35535744,9.76508982,0.004577,-0.00188,0.004511
13.988742000015918,13.988742000015918,0.0,0.0,1.8151042031798799,0.0,0.0,0.32437746,-0.36583452,9.77333022,0.004194,-0.000697,0.004228
14.008726000029128,14.008726000029128,0.0,0.0,1.8151820351399577,0.0,0.0,0.31404753,-0.34533162,9.76718916,0.00347,-0.000846,0.003827
14.02870999998413,14.02870999998413,0.0,0.0,1.8152668305242905,0.0,0.0,0.33170553,-0.34593003,9.7692885,0.003805,-0.001038,0.004239
14.04869399999734,14.04869399999734,0.0,0.0,1.8153250663674276,0.0,0.0,0.33186249,-0.36075294,9.76060665,0.001865,-0.001121,0.002708
14.06867800001055,14.06867800001055,0.0,0.0,1.815398832817829,0.0,0.0,0.31644117,-0.34473321,9.7724277,0.003124,-0.001755,0.003635
14.088663000031374,14.088663000031374,0.0,0.0,1.8154662105002073,0.0,0.0,0.31015296,-0.34593003,9.78185511,0.002818,-0.000427,0.003275
14.088663000031374,14.088663000031374,0.0,0.0,1.8154565039973622,0.0,0.0,0.31015296,-0.34593003,9.78185511,0.002818,-0.000427,0.003275
14.088663000031374,14.088663000031374,0.0,0.0,1.8154488227448837,0.0,0.0,0.31015296,-0.34593003,9.78185511,0.002818,-0.000427,0.003275
14.148615000012796,14.148615000012796,0.0,0.0,1.815702240568748,0.0,0.0,0.31344912,-0.34667559,9.77572386,0.004828,-0.001637,0.005351
14.148615000012796,14.148615000012796,0.0,0.0,1.8157225811903164,0.0,0.0,0.31344912,-0.34667559,9.77572386,0.004828,-0.001637,0.005351
14.148615000012796,14.148615000012796,0.0,0.0,1.8157384450985123,0.0,0.0,0.31344912,-0.34667559,9.77572386,0.004828,-0.001637,0.005351
14.148615000012796,14.148615000012796,0.0,0.0,1.8157511636841352,0.0,0.0,0.31344912,-0.34667559,9.77572386,0.004828,-0.001637,0.005351
14.168599000026006,14.168599000026006,0.0,0.0,1.815839512466762,0.0,0.0,0.32631984,-0.35281665,9.77152518,0.003955,0.000839,0.004433
14.228551000007428,14.228551000007428,0.0,0.0,1.816116251732078,0.0,0.0,0.32138541,-0.35506314,9.77541975,0.002858,-0.00225,0.005187
14.268519000033848,14.268519000033848,0.0,0.0,1.8163027691909344,0.0,0.0,0.32497587,-0.34547877,9.796678020000002,0.003326,0.000105,0.004841
14.30848700000206,14.30848700000206,0.0,0.0,1.8164960850700282,0.0,0.0,0.31854051,-0.3412899,9.79113537,0.001673,0.001306,0.005089
14.32847100001527,14.32847100001527,0.0,0.0,1.8165795969157106,0.0,0.0,0.31479309,-0.34054434,9.77228055,0.003577,-8.1e-05,0.004185
14.34845500002848,14.34845500002848,0.0,0.0,1.8166726928937456,0.0,0.0,0.3236319,-0.35970327,9.78110955,0.002408,0.00028,0.004659
14.368438999983482,14.368438999983482,0.0,0.0,1.8167635796441237,0.0,0.0,0.31854051,-0.34503732,9.77692068,0.005247,-0.000516,0.004547
14.388422999996692,14.388422999996692,0.0,0.0,1.8168398749119303,0.0,0.0,0.31689243,-0.34952049,9.78021684,0.003829,-0.000252,0.003789
14.408407000009902,14.408407000009902,0.0,0.0,1.816908173342652,0.0,0.0,0.31973733,-0.36374499,9.77392863,0.002605,0.000774,0.003364
14.408407000009902,14.408407000009902,0.0,0.0,1.8168922300507955,0.0,0.0,0.31973733,-0.36374499,9.77392863,0.002605,0.000774,0.003364
14.448375999985728,14.448375999985728,0.0,0.0,1.8170429965618116,0.0,0.0,0.32272938,-0.34473321,9.77407578,0.004208,-0.000482,0.003276
14.468359999998938,14.468359999998938,0.0,0.0,1.8171360675628598,0.0,0.0,0.33006726,-0.34877493,9.77407578,0.001535,-0.000254,0.004707
14.488344000012148,14.488344000012148,0.0,0.0,1.8172144661996743,0.0,0.0,0.32138541,-0.35685837,9.7957755,0.002733,-0.000801,0.003901
14.508328000025358,14.508328000025358,0.0,0.0,1.8172910323006715,0.0,0.0,0.32736951,-0.35281665,9.76793472,0.004122,0.000555,0.003802
14.52831199998036,14.52831199998036,0.0,0.0,1.8173785858257867,0.0,0.0,0.32153256,-0.36838512,9.76269618,0.002597,0.000235,0.004413
14.54829599999357,14.54829599999357,0.0,0.0,1.8174495533975028,0.0,0.0,0.32227812,-0.35521029,9.77797035,0.002735,-0.000354,0.003487
14.56828000000678,14.56828000000678,0.0,0.0,1.817539149053701,0.0,0.0,0.31598991,-0.34338924,9.7664436,0.005423,-0.00081,0.004535
14.58826400001999,14.58826400001999,0.0,0.0,1.817608279491301,0.0,0.0,0.32766381,-0.33934752,9.76374585,0.003076,-0.000463,0.003381
14.6082480000332,14.6082480000332,0.0,0.0,1.817683707527709,0.0,0.0,0.32811507,-0.35207109,9.75716334,0.005519,0.000628,0.003745
14.628231999988202,14.628231999988202,0.0,0.0,1.817762931444963,0.0,0.0,0.32287653,-0.34683255,9.780815250000002,0.001915,0.000594,0.003963
14.648216000001412,14.648216000001412,0.0,0.0,1.8178575402077257,0.0,0.0,0.3198844799999999,-0.34293798,9.7724277,0.004272,-0.001537,0.004834
14.688184000027832,14.688184000027832,0.0,0.0,1.818012845979764,0.0,0.0,0.32482872,-0.35386632,9.77168214,0.001735,2.2e-05,0.003676
14.688184000027832,14.688184000027832,0.0,0.0,1.8180068572227528,0.0,0.0,0.32482872,-0.35386632,9.77168214,0.001735,2.2e-05,0.003676
14.728151999996044,14.728151999996044,0.0,0.0,1.8181644493495526,0.0,0.0,0.32946885,-0.35027586,9.77572386,0.002772,0.000239,0.0039
14.728151999996044,14.728151999996044,0.0,0.0,1.8181632851148901,0.0,0.0,0.32946885,-0.35027586,9.77572386,0.002772,0.000239,0.0039
14.768120000022464,14.768120000022464,0.0,0.0,1.818341889721693,0.0,0.0,0.31524435,-0.35925201,9.77677353,0.003576,0.000627,0.005054
14.788103999977466,14.788103999977466,0.0,0.0,1.818429871743386,0.0,0.0,0.32557428,-0.34518447,9.76749327,0.005056,-0.000879,0.004427
14.80808899999829,14.80808899999829,0.0,0.0,1.8185245660088034,0.0,0.0,0.32841918,-0.3444291,9.77677353,0.003539,-0.001041,0.004792
14.828074000019114,14.828074000019114,0.0,0.0,1.818586181620164,0.0,0.0,0.32796792,-0.35625996,9.77137803,0.00492,-0.001427,0.002967
14.848058000032324,14.848058000032324,0.0,0.0,1.8186782741267056,0.0,0.0,0.3239262,-0.3501189,9.77197644,0.001939,-0.000604,0.004665
14.868041999987327,14.868041999987327,0.0,0.0,1.8187711392838004,0.0,0.0,0.3324609,-0.34488036,9.78515127,0.001792,-0.001198,0.004702
14.888026000000536,14.888026000000536,0.0,0.0,1.8188615901950227,0.0,0.0,0.32407335,-0.35955612,9.77617512,0.000921,0.000342,0.004561
14.888026000000536,14.888026000000536,0.0,0.0,1.8188661691793229,0.0,0.0,0.32407335,-0.35955612,9.77617512,0.000921,0.000342,0.004561
14.927994000026956,14.927994000026956,0.0,0.0,1.8190411057277602,0.0,0.0,0.33170553,-0.34518447,9.77781339,0.002836,-0.00032,0.004467
14.947977999981958,14.947977999981958,0.0,0.0,1.8191058415519086,0.0,0.0,0.31718673,-0.36374499,9.77018121,0.003147,-3.3e-05,0.003097
14.967961999995168,14.967961999995168,0.0,0.0,1.8191996648444624,0.0,0.0,0.32198382,-0.35625996,9.76659075,0.002979,-0.002716,0.004766
14.987946000008378,14.987946000008378,0.0,0.0,1.8192989608836578,0.0,0.0,0.33574725,-0.34967745,9.77092677,0.002941,-0.000537,0.005067
15.007930000021588,15.007930000021588,0.0,0.0,1.819399236590984,0.0,0.0,0.32602554,-0.34772526,9.77661657,0.003095,-0.000681,0.005109
15.02791399997659,15.02791399997659,0.0,0.0,1.8194997377868694,0.0,0.0,0.33141123,-0.36015453,9.76269618,0.003095,-0.000681,0.005109
15.0478979999898,15.0478979999898,0.0,0.0,1.8195766388683001,0.0,0.0,0.31943322,-0.34712685,9.78754491,0.00393,-9.2e-05,0.003751
15.08786600001622,15.08786600001622,0.0,0.0,1.8197570261626073,0.0,0.0,0.33410898,-0.35730963,9.77856876,0.003118,-0.000328,0.004595
15.08786600001622,15.08786600001622,0.0,0.0,1.8197593311096032,0.0,0.0,0.33410898,-0.35730963,9.77856876,0.003118,-0.000328,0.004595
15.127833999984432,15.127833999984432,0.0,0.0,1.819937407999201,0.0,0.0,0.33006726,-0.34578288,9.76030254,0.003027,1.2e-05,0.004432
15.127833999984432,15.127833999984432,0.0,0.0,1.8199367770808816,0.0,0.0,0.33006726,-0.34578288,9.76030254,0.003027,1.2e-05,0.004432
15.167802000010852,15.167802000010852,0.0,0.0,1.8201143356222325,0.0,0.0,0.3324609,-0.34607718,9.77452704,0.003875,0.000679,0.004416
15.187786000024062,15.187786000024062,0.0,0.0,1.8202044162775408,0.0,0.0,0.33050871,-0.35087427,9.77437008,0.004663,-0.000339,0.004512
15.207769999979064,15.207769999979064,0.0,0.0,1.8202915670367075,0.0,0.0,0.33619851,-0.35461188,9.76988691,0.003901,-0.000753,0.004351
15.227753999992274,15.227753999992274,0.0,0.0,1.8203691817779246,0.0,0.0,0.32452461,-0.35326791,9.77287896,0.003332,0.000209,0.003826
15.247738000005484,15.247738000005484,0.0,0.0,1.8204690555262575,0.0,0.0,0.3239262,-0.33155838,9.77496849,0.002671,-0.001172,0.005066
15.267723000026308,15.267723000026308,0.0,0.0,1.8205283517251836,0.0,0.0,0.31404753,-0.34683255,9.7781175,0.002592,-0.000292,0.002798
15.28770699998131,15.28770699998131,0.0,0.0,1.82062526938841,0.0,0.0,0.31479309,-0.35910486,9.77617512,0.002027,-0.000587,0.004922
15.30769099999452,15.30769099999452,0.0,0.0,1.8207320839383003,0.0,0.0,0.31913892,-0.3555144,9.780511140000002,0.002598,-0.00115,0.005469
15.32767500000773,15.32767500000773,0.0,0.0,1.8208249680264137,0.0,0.0,0.32003163,-0.3445860599999999,9.77512545,0.003126,0.000706,0.004669
15.34765900002094,15.34765900002094,0.0,0.0,1.8209174217294812,0.0,0.0,0.33260805,-0.35416062,9.76599234,0.003609,-5.4e-05,0.004642
15.36764300003415,15.36764300003415,0.0,0.0,1.8209852251087684,0.0,0.0,0.31569561,-0.36254817,9.77257485,0.002435,0.000996,0.003244
15.387626999989152,15.387626999989152,0.0,0.0,1.8210545106441511,0.0,0.0,0.3333536099999999,-0.34563573,9.77018121,0.002801,-0.00088,0.003348
15.407611000002362,15.407611000002362,0.0,0.0,1.8211222103741758,0.0,0.0,0.3236319,-0.35535744,9.77347737,0.004288,-0.000556,0.003274
15.427595000015572,15.427595000015572,0.0,0.0,1.8212051707604253,0.0,0.0,0.32153256,-0.3583593,9.77333022,0.00249,0.000771,0.004159
15.447579000028782,15.447579000028782,0.0,0.0,1.8212513923360385,0.0,0.0,0.31359627,-0.35730963,9.77737194,0.002411,-0.000179,0.002062
15.467562999983784,15.467562999983784,0.0,0.0,1.8213665783365576,0.0,0.0,0.32946885,-0.35176698,9.7755669,0.002082,0.000207,0.006037
15.487546999996994,15.487546999996994,0.0,0.0,1.8214837397546209,0.0,0.0,0.32287653,-0.3583593,9.76883724,0.001715,8.2e-05,0.006111
15.507531000010204,15.507531000010204,0.0,0.0,1.8215628677245244,0.0,0.0,0.32512302,-0.35760393,9.780815250000002,0.001724,-0.000428,0.003898
15.527515000023413,15.527515000023413,0.0,0.0,1.8216187145711498,0.0,0.0,0.32557428,-0.34607718,9.77572386,0.001961,-0.000425,0.002573
15.567482999991626,15.567482999991626,0.0,0.0,1.8218156927079718,0.0,0.0,0.32122845,-0.35880075,9.76793472,0.003807,1.9e-05,0.005816
15.587467000004835,15.587467000004835,0.0,0.0,1.8219183647034027,0.0,0.0,0.32033574,-0.34743096,9.77048532,0.003912,0.000434,0.005173
15.607451000018045,15.607451000018045,0.0,0.0,1.8220056057329312,0.0,0.0,0.32916474,-0.34906923,9.78275763,0.004772,-0.000495,0.00436
15.607451000018045,15.607451000018045,0.0,0.0,1.8220041366066697,0.0,0.0,0.32916474,-0.34906923,9.78275763,0.004772,-0.000495,0.00436
15.647418999986257,15.647418999986257,0.0,0.0,1.822202193408927,0.0,0.0,0.32482872,-0.35161983,9.76838598,0.00289,-0.001161,0.005557
15.667402999999467,15.667402999999467,0.0,0.0,1.822271395915834,0.0,0.0,0.32332779,-0.35461188,9.78305193,0.004685,-0.001258,0.003362
15.687387000012677,15.687387000012677,0.0,0.0,1.822354939518668,0.0,0.0,0.31928607,-0.34683255,9.77661657,0.002821,-0.000618,0.004157
15.707371000025887,15.707371000025887,0.0,0.0,1.822440799280984,0.0,0.0,0.32272938,-0.36059598,9.76300029,0.002266,-0.000325,0.004287
15.727355999988504,15.727355999988504,0.0,0.0,1.8225251503011997,0.0,0.0,0.32287653,-0.35341506,9.77541975,0.002188,0.000101,0.004204
15.747340000001714,15.747340000001714,0.0,0.0,1.8225880087400919,0.0,0.0,0.33066567,-0.3444291,9.77228055,0.00326,0.000184,0.003008
15.767324000014924,15.767324000014924,0.0,0.0,1.822665235806638,0.0,0.0,0.32617269,-0.33679692,9.77826465,0.002739,-0.000318,0.003828
15.787308000028133,15.787308000028133,0.0,0.0,1.822738878444949,0.0,0.0,0.31120263,-0.35790804,9.77362452,0.002636,-0.000382,0.003631
15.807291000033729,15.807291000033729,0.0,0.0,1.8228081394816948,0.0,0.0,0.31898196,-0.35341506,9.76988691,0.0036,0.000227,0.003391
15.827274999988731,15.827274999988731,0.0,0.0,1.822890823614177,0.0,0.0,0.33021441,-0.35475903,9.76659075,0.003482,-0.001083,0.004159
15.84725900000194,15.84725900000194,0.0,0.0,1.8229654914282882,0.0,0.0,0.32512302,-0.35820234,9.77856876,0.003215,-0.000706,0.003702
15.86724300001515,15.86724300001515,0.0,0.0,1.8230719728437865,0.0,0.0,0.31838355,-0.34473321,9.77856876,0.003141,-0.000487,0.005513
15.88722700002836,15.88722700002836,0.0,0.0,1.82317824607909,0.0,0.0,0.32213097,-0.3555144,9.78110955,0.002986,-0.001301,0.005476
15.927194999996573,15.927194999996573,0.0,0.0,1.8233466184323222,0.0,0.0,0.32946885,-0.35491599,9.77766624,0.00142,0.000461,0.004083
15.927194999996573,15.927194999996573,0.0,0.0,1.8233429440754536,0.0,0.0,0.32946885,-0.35491599,9.77766624,0.00142,0.000461,0.004083
15.947179000009783,15.947179000009783,0.0,0.0,1.823436476755501,0.0,0.0,0.31943322,-0.35281665,9.77333022,0.002015,0.000957,0.004751
15.967163000022992,15.967163000022992,0.0,0.0,1.823500700021218,0.0,0.0,0.32856633,-0.36075294,9.77077962,0.001451,0.000215,0.003023
16.007130999991205,16.007130999991205,0.0,0.0,1.8236604558462055,0.0,0.0,0.31718673,-0.35102142,9.768690090000002,0.002022,-0.000516,0.003814
16.027115000004414,16.027115000004414,0.0,0.0,1.823745228181184,0.0,0.0,0.32946885,-0.35535744,9.75970413,0.003143,-0.000322,0.00425
16.047099000017624,16.047099000017624,0.0,0.0,1.8238295171016699,0.0,0.0,0.32617269,-0.3543175799999999,9.77063247,0.004506,-0.000394,0.004224
16.067083000030834,16.067083000030834,0.0,0.0,1.8239002843462515,0.0,0.0,0.32976315,-0.34203546,9.76793472,0.003031,-0.001558,0.003492
16.087066999985836,16.087066999985836,0.0,0.0,1.8239601948047444,0.0,0.0,0.3267711,-0.34652844,9.77333022,0.002785,-0.001424,0.002903
16.107050999999046,16.107050999999046,0.0,0.0,1.8240384217077485,0.0,0.0,0.3153915,-0.33799374,9.77092677,0.002743,0.000161,0.003916
16.127035000012256,16.127035000012256,0.0,0.0,1.8241091734095347,0.0,0.0,0.31524435,-0.3529638,9.76599234,0.002841,-0.00132,0.003503
16.147019000025466,16.147019000025466,0.0,0.0,1.8242025689100485,0.0,0.0,0.31854051,-0.36104724,9.75551526,0.00283,0.000629,0.004764
16.16700299998047,16.16700299998047,0.0,0.0,1.8242735336752407,0.0,0.0,0.31554846,-0.34906923,9.765246780000002,0.003521,0.001071,0.003503
16.186986999993678,16.186986999993678,0.0,0.0,1.8243702878557775,0.0,0.0,0.3204828899999999,-0.35475903,9.780511140000002,0.001318,-0.000456,0.004953
16.206972000014503,16.206972000014503,0.0,0.0,1.8244577305950394,0.0,0.0,0.32377905,-0.35566155,9.76749327,0.003492,0.000532,0.004416
16.226956000027712,16.226956000027712,0.0,0.0,1.824551323423477,0.0,0.0,0.3270654,-0.34293798,9.77392863,0.003548,0.000761,0.004758
16.246939999982715,16.246939999982715,0.0,0.0,1.8246409471951566,0.0,0.0,0.32586858,-0.34772526,9.7781175,0.005087,-0.000929,0.004524
16.266923999995925,16.266923999995925,0.0,0.0,1.824724469821689,0.0,0.0,0.32153256,-0.36119439,9.77496849,0.004875,-0.001124,0.004173
16.286908000009134,16.286908000009134,0.0,0.0,1.8247836665065371,0.0,0.0,0.32452461,-0.35087427,9.77721498,0.004734,-0.000553,0.002792
16.326875999977347,16.326875999977347,0.0,0.0,1.824949451523171,0.0,0.0,0.32318064,-0.3469797,9.77931432,0.002207,-0.00075,0.004269
16.326875999977347,16.326875999977347,0.0,0.0,1.824952889029726,0.0,0.0,0.32318064,-0.3469797,9.77931432,0.002207,-0.00075,0.004269
16.366844000003766,16.366844000003766,0.0,0.0,1.8251134244943028,0.0,0.0,0.32916474,-0.34877493,9.76209777,0.002299,-0.000424,0.003932
16.386828000016976,16.386828000016976,0.0,0.0,1.8251889070618068,0.0,0.0,0.31928607,-0.35745678,9.7721334,0.003169,0.000987,0.003758
16.406812000030186,16.406812000030186,0.0,0.0,1.8252625799373803,0.0,0.0,0.32003163,-0.34967745,9.77407578,0.004938,0.000268,0.003661
16.42679599998519,16.42679599998519,0.0,0.0,1.8253355113777587,0.0,0.0,0.3267711,-0.33874911,9.78275763,0.004331,-3.8e-05,0.003622
16.446779999998398,16.446779999998398,0.0,0.0,1.8254518039452883,0.0,0.0,0.32198382,-0.36090009,9.77437008,0.003927,0.000688,0.005994
16.466764000011608,16.466764000011608,0.0,0.0,1.82551371977328,0.0,0.0,0.32318064,-0.34518447,9.78021684,0.002045,-0.000643,0.002988
16.486748000024818,16.486748000024818,0.0,0.0,1.8255640449635528,0.0,0.0,0.32931189,-0.35850645,9.78185511,0.002174,-0.000436,0.002357
16.50673199997982,16.50673199997982,0.0,0.0,1.8256792541318703,0.0,0.0,0.32242527,-0.35461188,9.77617512,0.004272,-0.00049,0.005982
16.52671599999303,16.52671599999303,0.0,0.0,1.8257688448571745,0.0,0.0,0.32063004,-0.36224406,9.76659075,0.001751,-0.000402,0.004527
16.54670000000624,16.54670000000624,0.0,0.0,1.8258520181899032,0.0,0.0,0.33574725,-0.34757811,9.76240188,0.001495,8.6e-05,0.004162
16.56668400001945,16.56668400001945,0.0,0.0,1.8259355113852695,0.0,0.0,0.32258223,-0.35147268,9.78470001,0.002751,0.000205,0.00418
16.58666800003266,16.58666800003266,0.0,0.0,1.826028469356734,0.0,0.0,0.3210813,-0.35566155,9.7781175,0.003001,-1e-06,0.004714
16.606651999987662,16.606651999987662,0.0,0.0,1.8260970098533207,0.0,0.0,0.33036156,-0.35745678,9.77512545,0.00391,0.000134,0.003324
16.62663600000087,16.62663600000087,0.0,0.0,1.8261728483855562,0.0,0.0,0.32167971,-0.35910486,9.768690090000002,0.002831,0.000641,0.003752
16.64662000001408,16.64662000001408,0.0,0.0,1.8262330333866679,0.0,0.0,0.32557428,-0.35281665,9.76584519,0.0031,-0.000773,0.002868
16.66660400002729,16.66660400002729,0.0,0.0,1.8263011784610343,0.0,0.0,0.32018859,-0.34398765,9.77946147,0.004549,-0.001643,0.003341
16.686587999982294,16.686587999982294,0.0,0.0,1.8264059059042221,0.0,0.0,0.33351057,-0.35895771,9.76913154,0.003384,-0.00045,0.005437
16.706573000003118,16.706573000003118,0.0,0.0,1.8265007386216432,0.0,0.0,0.33545295,-0.34847082,9.76374585,0.002029,-0.002058,0.004844
16.726557000016328,16.726557000016328,0.0,0.0,1.8265804224465043,0.0,0.0,0.32093415,-0.34802937,9.77317326,0.002853,-0.001807,0.003964
16.76652499998454,16.76652499998454,0.0,0.0,1.8267453431778593,0.0,0.0,0.33305931,-0.35371917,9.76793472,0.003897,-0.000613,0.004126
16.76652499998454,16.76652499998454,0.0,0.0,1.8267453341983,0.0,0.0,0.33305931,-0.35371917,9.76793472,0.003897,-0.000613,0.004126
16.806494000018574,16.806494000018574,0.0,0.0,1.8268720998418733,0.0,0.0,0.32482872,-0.33934752,9.77632227,0.002997,0.0005,0.002105
16.826478000031784,16.826478000031784,0.0,0.0,1.82697107666655,0.0,0.0,0.32827203,-0.34143705,9.77137803,0.003635,-0.000382,0.00503
16.826478000031784,16.826478000031784,0.0,0.0,1.8269878908715116,0.0,0.0,0.32827203,-0.34143705,9.77137803,0.003635,-0.000382,0.00503
16.846461999986786,16.846461999986786,0.0,0.0,1.8270447372775234,0.0,0.0,0.31854051,-0.36658989,9.78350319,0.003507,-0.00097,0.002572
16.886430000013206,16.886430000013206,0.0,0.0,1.8272235986742533,0.0,0.0,0.33036156,-0.34607718,9.78290478,0.003714,-0.001735,0.005105
16.906414000026416,16.906414000026416,0.0,0.0,1.827306450800119,0.0,0.0,0.31330197,-0.35386632,9.76584519,0.001319,-0.001734,0.00415
16.92639799998142,16.92639799998142,0.0,0.0,1.8274245502334328,0.0,0.0,0.31854051,-0.34712685,9.77392863,0.002152,3.6e-05,0.006086
16.946381999994628,16.946381999994628,0.0,0.0,1.8275259622799371,0.0,0.0,0.32512302,-0.34518447,9.77960862,0.004049,0.000865,0.005147
16.966365000000224,16.966365000000224,0.0,0.0,1.8276130448760926,0.0,0.0,0.33170553,-0.35221824,9.78185511,0.002554,-0.000271,0.004344
16.986350000021048,16.986350000021048,0.0,0.0,1.8276692908192977,0.0,0.0,0.32153256,-0.3583593,9.79338186,0.000447,0.000758,0.002625
17.006334000034258,17.006334000034258,0.0,0.0,1.8277483163534498,0.0,0.0,0.31569561,-0.34547877,9.78110955,0.004074,0.000904,0.003923
17.02631799998926,17.02631799998926,0.0,0.0,1.8278116515484903,0.0,0.0,0.32347494,-0.35790804,9.76943565,0.002562,0.000189,0.003045
17.046300999994855,17.046300999994855,0.0,0.0,1.8278816245468636,0.0,0.0,0.32901759,-0.3526695,9.7838073,0.003647,-5e-05,0.003435
17.06628600001568,17.06628600001568,0.0,0.0,1.8279598560359638,0.0,0.0,0.32467176,-0.34159401,9.77287896,0.004245,-0.001773,0.00391
17.08627000002889,17.08627000002889,0.0,0.0,1.8280404729713187,0.0,0.0,0.32751666,-0.34368354,9.78515127,0.005127,-0.000345,0.004046
17.126236999989487,17.126236999989487,0.0,0.0,1.8282018419639918,0.0,0.0,0.32646699,-0.35611281,9.78799617,0.001989,-0.000851,0.004121
17.126236999989487,17.126236999989487,0.0,0.0,1.8282042202978621,0.0,0.0,0.32646699,-0.35611281,9.78799617,0.001989,-0.000851,0.004121
17.14622200001031,17.14622200001031,0.0,0.0,1.8282867216862533,0.0,0.0,0.32871348,-0.34607718,9.77287896,0.004901,-0.001309,0.00415
17.186190999986138,17.186190999986138,0.0,0.0,1.8284517495171766,0.0,0.0,0.33155838,-0.34638129,9.78350319,0.001996,0.000994,0.00425
17.206173999991734,17.206173999991734,0.0,0.0,1.8285219935790664,0.0,0.0,0.31763799,-0.34862778,9.78784902,0.003169,-0.001689,0.003482
17.226159000012558,17.226159000012558,0.0,0.0,1.8286096114989618,0.0,0.0,0.33006726,-0.35640711,9.764795520000002,0.00364,0.000104,0.004414
17.246143000025768,17.246143000025768,0.0,0.0,1.8287254072233674,0.0,0.0,0.31973733,-0.35042301,9.7755669,0.002226,-0.001458,0.005938
17.26612699998077,17.26612699998077,0.0,0.0,1.8287957607934544,0.0,0.0,0.31134978,-0.35087427,9.77437008,0.002916,-0.000583,0.003451
17.28611099999398,17.28611099999398,0.0,0.0,1.8288895112502939,0.0,0.0,0.33351057,-0.34877493,9.77182929,0.002824,-0.000308,0.004741
17.306093999999575,17.306093999999575,0.0,0.0,1.8289680943883981,0.0,0.0,0.33231375,-0.35715267,9.76149936,0.002442,-0.000366,0.003899
17.3260790000204,17.3260790000204,0.0,0.0,1.8290611232831004,0.0,0.0,0.31090833,-0.34503732,9.77108373,0.001717,-0.001916,0.004704
17.34606300003361,17.34606300003361,0.0,0.0,1.829156340109523,0.0,0.0,0.3242303099999999,-0.3412899,9.77646942,0.002579,0.000356,0.004821
17.366046999988612,17.366046999988612,0.0,0.0,1.8292119855641218,0.0,0.0,0.33664977,-0.34652844,9.77048532,0.001983,-0.000264,0.002598
17.386029999994207,17.386029999994207,0.0,0.0,1.8292953887953427,0.0,0.0,0.33231375,-0.35147268,9.76224492,0.004254,-0.000259,0.004181
17.40601500001503,17.40601500001503,0.0,0.0,1.8293920801552979,0.0,0.0,0.31973733,-0.36044883,9.76988691,0.002513,-0.000586,0.004929
17.42599900002824,17.42599900002824,0.0,0.0,1.829488919982797,0.0,0.0,0.32691825,-0.34787241,9.76793472,0.002925,-0.000221,0.004926
17.445982999983244,17.445982999983244,0.0,0.0,1.829558585179897,0.0,0.0,0.32557428,-0.33829785,9.77601816,0.004495,0.001013,0.003375
17.445982999983244,17.445982999983244,0.0,0.0,1.829545777434686,0.0,0.0,0.32557428,-0.33829785,9.77601816,0.004495,0.001013,0.003375
17.485951000009663,17.485951000009663,0.0,0.0,1.829712120179277,0.0,0.0,0.32452461,-0.36389214,9.77317326,0.002819,-7e-06,0.00424
17.525918999977876,17.525918999977876,0.0,0.0,1.8298857537000375,0.0,0.0,0.32811507,-0.35685837,9.7635987,0.004442,-0.001267,0.00458
17.545902999991085,17.545902999991085,0.0,0.0,1.8299648138029827,0.0,0.0,0.3198844799999999,-0.35655426,9.77677353,0.003802,-0.000997,0.003947
17.56588599999668,17.56588599999668,0.0,0.0,1.8300592734313188,0.0,0.0,0.32841918,-0.35625996,9.78589683,0.003263,-0.001391,0.004757
17.585871000017505,17.585871000017505,0.0,0.0,1.8301347667968857,0.0,0.0,0.32063004,-0.34563573,9.7755669,0.002219,0.001242,0.003748
17.605855000030715,17.605855000030715,0.0,0.0,1.8302042224717532,0.0,0.0,0.33260805,-0.34038738,9.7752726,0.002128,-0.000461,0.003424
17.645822999998927,17.645822999998927,0.0,0.0,1.8303312557544693,0.0,0.0,0.3129978599999999,-0.34787241,9.76883724,0.003213,0.000756,0.00233
17.645822999998927,17.645822999998927,0.0,0.0,1.8303049916995784,0.0,0.0,0.3129978599999999,-0.34787241,9.76883724,0.003213,0.000756,0.00233
17.68579200003296,17.68579200003296,0.0,0.0,1.8304460111709204,0.0,0.0,0.31569561,-0.35102142,9.77781339,0.003595,-0.000887,0.00344
17.705775999987964,17.705775999987964,0.0,0.0,1.8305141903482447,0.0,0.0,0.32467176,-0.34787241,9.76599234,0.003523,-0.001218,0.003406
17.72575899999356,17.72575899999356,0.0,0.0,1.8305943488303384,0.0,0.0,0.3210813,-0.35326791,9.77960862,0.003719,-0.00114,0.004032
17.745744000014383,17.745744000014383,0.0,0.0,1.8306619642459552,0.0,0.0,0.33365772,-0.35191413,9.78545538,0.003918,-0.000683,0.003369
17.765728000027593,17.765728000027593,0.0,0.0,1.8307426789231087,0.0,0.0,0.32003163,-0.35071731,9.76972995,0.001733,-0.003311,0.00407
17.785711999982595,17.785711999982595,0.0,0.0,1.8308112430511567,0.0,0.0,0.31703958,-0.35715267,9.77422293,0.002763,6e-05,0.003413
17.80569499998819,17.80569499998819,0.0,0.0,1.8308899801606149,0.0,0.0,0.33021441,-0.35925201,9.78365034,0.003198,-0.000815,0.003968
17.8256790000014,17.8256790000014,0.0,0.0,1.830961297925458,0.0,0.0,0.32887044,-0.33889626,9.78395445,0.002108,-0.00117,0.003559
17.84566300001461,17.84566300001461,0.0,0.0,1.8310367690080565,0.0,0.0,0.32527017,-0.35611281,9.76613949,0.005173,-0.000141,0.003789
17.86564700002782,17.86564700002782,0.0,0.0,1.8310976801999281,0.0,0.0,0.32976315,-0.35131572,9.7866522,0.003634,0.000581,0.00298
17.885630999982823,17.885630999982823,0.0,0.0,1.8311661402691364,0.0,0.0,0.3239262,-0.33829785,9.77976558,0.002789,0.0004,0.003408
17.905614999996033,17.905614999996033,0.0,0.0,1.8312599461714134,0.0,0.0,0.31449879,-0.33605136,9.77646942,0.003195,0.000992,0.004829
17.925599000009242,17.925599000009242,0.0,0.0,1.8313311687289922,0.0,0.0,0.32497587,-0.36344088,9.77063247,0.003602,-0.000666,0.003544
17.945583000022452,17.945583000022452,0.0,0.0,1.8313713947690387,0.0,0.0,0.32122845,-0.33874911,9.7755669,0.003498,-0.000907,0.001799
17.965566999977455,17.965566999977455,0.0,0.0,1.8314787066407092,0.0,0.0,0.33874911,-0.33919056,9.80057259,0.001723,0.000485,0.005619
18.005535000003874,18.005535000003874,0.0,0.0,1.831634398037279,0.0,0.0,0.31943322,-0.37227969,9.75985128,0.002207,0.000599,0.00406
18.005535000003874,18.005535000003874,0.0,0.0,1.8316391057187822,0.0,0.0,0.31943322,-0.37227969,9.75985128,0.002207,0.000599,0.00406
18.0455039999797,18.0455039999797,0.0,0.0,1.8317802243930998,0.0,0.0,0.31494024,-0.34607718,9.77108373,0.003219,0.000115,0.003212
18.0455039999797,18.0455039999797,0.0,0.0,1.8317715763771405,0.0,0.0,0.31494024,-0.34607718,9.77108373,0.003219,0.000115,0.003212
18.08547200000612,18.08547200000612,0.0,0.0,1.8319489597542313,0.0,0.0,0.30402171,-0.34967745,9.77706783,0.003645,-0.001796,0.005327
18.10545600001933,18.10545600001933,0.0,0.0,1.8320274913409111,0.0,0.0,0.329616,-0.35446473,9.77916717,0.003702,-0.000668,0.003932
18.12544000003254,18.12544000003254,0.0,0.0,1.8321457010336264,0.0,0.0,0.32631984,-0.3498246,9.76733631,0.003987,-0.000299,0.006101
18.145423999987543,18.145423999987543,0.0,0.0,1.8322642042919632,0.0,0.0,0.32018859,-0.34114275,9.78634809,0.003987,-0.000299,0.006101
18.165408000000753,18.165408000000753,0.0,0.0,1.832357104572214,0.0,0.0,0.31390038,-0.33949467,9.78170796,0.003069,-7.8e-05,0.004668
18.185392000013962,18.185392000013962,0.0,0.0,1.8324143391250685,0.0,0.0,0.33320646,-0.35506314,9.78305193,0.002654,-0.000981,0.002683
18.205376000027172,18.205376000027172,0.0,0.0,1.8325183429853746,0.0,0.0,0.32916474,-0.35566155,9.76718916,0.003758,-0.000733,0.005315
18.225359999982174,18.225359999982174,0.0,0.0,1.8325961433109388,0.0,0.0,0.31838355,-0.35087427,9.77168214,0.0029,-0.000323,0.003833
18.245343999995384,18.245343999995384,0.0,0.0,1.8326560731090131,0.0,0.0,0.32542713,-0.34906923,9.764942670000002,0.002058,-0.001764,0.002835
18.265328000008594,18.265328000008594,0.0,0.0,1.8327482458043143,0.0,0.0,0.32153256,-0.3498246,9.76314744,0.002906,0.000129,0.004675
18.285312000021804,18.285312000021804,0.0,0.0,1.8328091536468571,0.0,0.0,0.31959018,-0.3441348,9.78156081,0.004004,0.000729,0.002898
18.305295999976806,18.305295999976806,0.0,0.0,1.8328699057911164,0.0,0.0,0.32227812,-0.35176698,9.77362452,0.004011,0.00033,0.002909
18.325279999990016,18.325279999990016,0.0,0.0,1.832942946447786,0.0,0.0,0.33095997,-0.34652844,9.76988691,0.003859,0.000473,0.003625
18.345264000003226,18.345264000003226,0.0,0.0,1.8330478140873776,0.0,0.0,0.31868766,-0.3444291,9.76060665,0.004065,0.000189,0.005441
18.365248000016436,18.365248000016436,0.0,0.0,1.8331629396968934,0.0,0.0,0.33126408,-0.35161983,9.75401433,0.005699,-0.001094,0.005999
18.385232000029646,18.385232000029646,0.0,0.0,1.8332408048836548,0.0,0.0,0.31689243,-0.34533162,9.76568823,0.002959,-0.000834,0.003838
18.405215999984648,18.405215999984648,0.0,0.0,1.8333201167058828,0.0,0.0,0.31569561,-0.35207109,9.79398027,0.001834,-0.001123,0.003929
18.425199999997858,18.425199999997858,0.0,0.0,1.8334091669398376,0.0,0.0,0.33365772,-0.34743096,9.78261048,0.003388,-0.000658,0.004492
18.445185000018682,18.445185000018682,0.0,0.0,1.833491328687031,0.0,0.0,0.32198382,-0.35776089,9.77467419,0.002956,-0.00168,0.004092
18.465169000031892,18.465169000031892,0.0,0.0,1.8335548939766166,0.0,0.0,0.32796792,-0.33634566,9.77392863,0.003134,0.000922,0.003029
18.485152999986894,18.485152999986894,0.0,0.0,1.8336232146599407,0.0,0.0,0.32122845,-0.35161983,9.77737194,0.002325,0.001146,0.003324
18.525121000013314,18.525121000013314,0.0,0.0,1.8337812161723184,0.0,0.0,0.31045707,-0.35745678,9.76345155,0.003661,0.000333,0.003937
18.525121000013314,18.525121000013314,0.0,0.0,1.8337807628556035,0.0,0.0,0.31045707,-0.35745678,9.76345155,0.003661,0.000333,0.003937
18.565088999981526,18.565088999981526,0.0,0.0,1.8339850590057152,0.0,0.0,0.32033574,-0.35685837,9.76972995,0.002968,-0.001845,0.006402
18.585072999994736,18.585072999994736,0.0,0.0,1.8340673103368568,0.0,0.0,0.31703958,-0.34547877,9.77317326,0.003163,-0.001244,0.004102
18.605057000007946,18.605057000007946,0.0,0.0,1.8341338086965813,0.0,0.0,0.3167452799999999,-0.36090009,9.78709365,0.003616,-0.00044,0.003251
