timestamp,time_rel,x,y,theta,vx,vy,accel_x,accel_y,accel_z,gyro_x,gyro_y,gyro_z
0.0,0.0,0.0,0.0,2.819595912530417,0.0,0.0,-9.38263716,-0.00777933,-2.85381729,0.002592,-0.003105,0.003104
0.01,0.01,0.0,0.0,2.7256790144247107,0.0,0.0,-9.38263716,-0.00777933,-2.85381729,0.002592,-0.003105,0.003104
0.02,0.02,0.0,0.0,2.6504501824656046,0.0,0.0,-9.38263716,-0.00777933,-2.85381729,0.002592,-0.003105,0.003104
0.03,0.03,0.0,0.0,2.587840998817777,0.0,0.0,-9.38263716,-0.00777933,-2.85381729,0.002592,-0.003105,0.003104
0.04,0.04,0.0,0.0,2.534950049787099,0.0,0.0,-9.38263716,-0.00777933,-2.85381729,0.002592,-0.003105,0.003104
0.05,0.05,0.0,0.0,2.489964316472866,0.0,0.0,-9.38263716,-0.00777933,-2.85381729,0.002592,-0.003105,0.003104
0.06,0.06,0.0,0.0,2.4899949596695814,0.0,0.0,-9.38263716,-0.00777933,-2.85381729,0.002592,-0.003105,0.003104
0.07,0.07,0.0,0.0,2.490025700462567,0.0,0.0,-9.38263716,-0.00777933,-2.85381729,0.002592,-0.003105,0.003104
0.08,0.08,0.0,0.0,2.4900565068762077,0.0,0.0,-9.38263716,-0.00777933,-2.85381729,0.002592,-0.003105,0.003104
0.09,0.09,0.0,0.0,2.490087359604127,0.0,0.0,-9.38263716,-0.00777933,-2.85381729,0.002592,-0.003105,0.003104
0.1,0.1,0.0,0.0,2.4901182462983327,0.0,0.0,-9.38263716,-0.00777933,-2.85381729,0.002592,-0.003105,0.003104
0.11,0.11,0.0,0.0,2.490149158690423,0.0,0.0,-9.38263716,-0.00777933,-2.85381729,0.002592,-0.003105,0.003104
0.12,0.12,0.0,0.0,2.490180091031668,0.0,0.0,-9.38263716,-0.00777933,-2.85381729,0.002592,-0.003105,0.003104
0.13,0.13,0.0,0.0,2.4902110391972627,0.0,0.0,-9.38263716,-0.00777933,-2.85381729,0.002592,-0.003105,0.003104
0.14,0.14,0.0,0.0,2.4902420001468997,0.0,0.0,-9.38263716,-0.00777933,-2.85381729,0.002592,-0.003105,0.003104
0.15,0.15,0.0,0.0,2.490272971586748,0.0,0.0,-9.38263716,-0.00777933,-2.85381729,0.002592,-0.003105,0.003104
0.16,0.16,0.0,0.0,2.490303951750384,0.0,0.0,-9.38263716,-0.00777933,-2.85381729,0.002592,-0.003105,0.003104
0.17,0.17,0.0,0.0,2.490334939252638,0.0,0.0,-9.38263716,-0.00777933,-2.85381729,0.002592,-0.003105,0.003104
0.18,0.18,0.0,0.0,2.4903659329896186,0.0,0.0,-9.38263716,-0.00777933,-2.85381729,0.002592,-0.003105,0.003104
0.19,0.19,0.0,0.0,2.490396932068789,0.0,0.0,-9.38263716,-0.00777933,-2.85381729,0.002592,-0.003105,0.003104
0.2,0.2,0.0,0.0,2.490427935759101,0.0,0.0,-9.38263716,-0.00777933,-2.85381729,0.002592,-0.003105,0.003104
0.21,0.21,0.0,0.0,2.490458943454791,0.0,0.0,-9.38263716,-0.00777933,-2.85381729,0.002592,-0.003105,0.003104
0.22,0.22,0.0,0.0,2.4904899546486785,0.0,0.0,-9.38263716,-0.00777933,-2.85381729,0.002592,-0.003105,0.003104
0.23,0.23,0.0,0.0,2.4905209689121737,0.0,0.0,-9.38263716,-0.00777933,-2.85381729,0.002592,-0.003105,0.003104
0.24,0.24,0.0,0.0,2.4905519858801046,0.0,0.0,-9.38263716,-0.00777933,-2.85381729,0.002592,-0.003105,0.003104
0.25,0.25,0.0,0.0,2.490583005239052,0.0,0.0,-9.38263716,-0.00777933,-2.85381729,0.002592,-0.003105,0.003104
0.26,0.26,0.0,0.0,2.490614026718271,0.0,0.0,-9.38263716,-0.00777933,-2.85381729,0.002592,-0.003105,0.003104
0.27,0.27,0.0,0.0,2.4906450500825468,0.0,0.0,-9.38263716,-0.00777933,-2.85381729,0.002592,-0.003105,0.003104
0.28,0.28,0.0,0.0,2.4906760751265047,0.0,0.0,-9.38263716,-0.00777933,-2.85381729,0.002592,-0.003105,0.003104
0.29,0.29,0.0,0.0,2.490707101670033,0.0,0.0,-9.38263716,-0.00777933,-2.85381729,0.002592,-0.003105,0.003104
0.3,0.3,0.0,0.0,2.4907381295545683,0.0,0.0,-9.38263716,-0.00777933,-2.85381729,0.002592,-0.003105,0.003104
0.31,0.31,0.0,0.0,2.490769158640048,0.0,0.0,-9.38263716,-0.00777933,-2.85381729,0.002592,-0.003105,0.003104
0.32,0.32,0.0,0.0,2.4908001888023836,0.0,0.0,-9.38263716,-0.00777933,-2.85381729,0.002592,-0.003105,0.003104
0.33,0.33,0.0,0.0,2.4908312199313585,0.0,0.0,-9.38263716,-0.00777933,-2.85381729,0.002592,-0.003105,0.003104
0.34,0.34,0.0,0.0,2.490862251928858,0.0,0.0,-9.38263716,-0.00777933,-2.85381729,0.002592,-0.003105,0.003104
0.35000000000000003,0.35000000000000003,0.0,0.0,2.4908932847073704,0.0,0.0,-9.38263716,-0.00777933,-2.85381729,0.002592,-0.003105,0.003104
0.36,0.36,0.0,0.0,2.490924318188706,0.0,0.0,-9.38263716,-0.00777933,-2.85381729,0.002592,-0.003105,0.003104
0.37,0.37,0.0,0.0,2.490955352302903,0.0,0.0,-9.38263716,-0.00777933,-2.85381729,0.002592,-0.003105,0.003104
0.38,0.38,0.0,0.0,2.4909863869872746,0.0,0.0,-9.38263716,-0.00777933,-2.85381729,0.002592,-0.003105,0.003104
0.39,0.39,0.0,0.0,2.4910174221855943,0.0,0.0,-9.38263716,-0.00777933,-2.85381729,0.002592,-0.003105,0.003104
0.4,0.4,0.0,0.0,2.491048457847376,0.0,0.0,-9.38263716,-0.00777933,-2.85381729,0.002592,-0.003105,0.003104
0.41000000000000003,0.41000000000000003,0.0,0.0,2.491079493927251,0.0,0.0,-9.38263716,-0.00777933,-2.85381729,0.002592,-0.003105,0.003104
0.42,0.42,0.0,0.0,2.4911105303844145,0.0,0.0,-9.38263716,-0.00777933,-2.85381729,0.002592,-0.003105,0.003104
0.43,0.43,0.0,0.0,2.4911415671821455,0.0,0.0,-9.38263716,-0.00777933,-2.85381729,0.002592,-0.003105,0.003104
0.44,0.44,0.0,0.0,2.4911726042873763,0.0,0.0,-9.38263716,-0.00777933,-2.85381729,0.002592,-0.003105,0.003104
0.45,0.45,0.0,0.0,2.491203641670313,0.0,0.0,-9.38263716,-0.00777933,-2.85381729,0.002592,-0.003105,0.003104
0.46,0.46,0.0,0.0,2.4912346793040996,0.0,0.0,-9.38263716,-0.00777933,-2.85381729,0.002592,-0.003105,0.003104
0.47000000000000003,0.47000000000000003,0.0,0.0,2.4912657171645165,0.0,0.0,-9.38263716,-0.00777933,-2.85381729,0.002592,-0.003105,0.003104
0.48,0.48,0.0,0.0,2.491296755229719,0.0,0.0,-9.38263716,-0.00777933,-2.85381729,0.002592,-0.003105,0.003104
0.49,0.49,0.0,0.0,2.491327793479993,0.0,0.0,-9.38263716,-0.00777933,-2.85381729,0.002592,-0.003105,0.003104
0.5,0.5,0.0,0.0,2.491358831897543,0.0,0.0,-9.38263716,-0.00777933,-2.85381729,0.002592,-0.003105,0.003104
0.51,0.51,0.0,0.0,2.4913898704663024,0.0,0.0,-9.38263716,-0.00777933,-2.85381729,0.002592,-0.003105,0.003104
0.52,0.52,0.0,0.0,2.4914209091717616,0.0,0.0,-9.38263716,-0.00777933,-2.85381729,0.002592,-0.003105,0.003104
0.53,0.53,0.0,0.0,2.4914519480008153,0.0,0.0,-9.38263716,-0.00777933,-2.85381729,0.002592,-0.003105,0.003104
0.54,0.54,0.0,0.0,2.491482986941625,0.0,0.0,-9.38263716,-0.00777933,-2.85381729,0.002592,-0.003105,0.003104
0.55,0.55,0.0,0.0,2.4915140259834896,0.0,0.0,-9.38263716,-0.00777933,-2.85381729,0.002592,-0.003105,0.003104
0.56,0.56,0.0,0.0,2.4915450651167426,0.0,0.0,-9.38263716,-0.00777933,-2.85381729,0.002592,-0.003105,0.003104
0.5700000000000001,0.5700000000000001,0.0,0.0,2.491576104332645,0.0,0.0,-9.38263716,-0.00777933,-2.85381729,0.002592,-0.003105,0.003104
0.58,0.58,0.0,0.0,2.4916071436232983,0.0,0.0,-9.38263716,-0.00777933,-2.85381729,0.002592,-0.003105,0.003104
0.59,0.59,0.0,0.0,2.4916381829815624,0.0,0.0,-9.38263716,-0.00777933,-2.85381729,0.002592,-0.003105,0.003104
0.6,0.6,0.0,0.0,2.491669222400981,0.0,0.0,-9.38263716,-0.00777933,-2.85381729,0.002592,-0.003105,0.003104
0.61,0.61,0.0,0.0,2.4917002618757174,0.0,0.0,-9.38263716,-0.00777933,-2.85381729,0.002592,-0.003105,0.003104
0.62,0.62,0.0,0.0,2.491731301400492,0.0,0.0,-9.38263716,-0.00777933,-2.85381729,0.002592,-0.003105,0.003104
0.63,0.63,0.0,0.0,2.4917623409705314,0.0,0.0,-9.38263716,-0.00777933,-2.85381729,0.002592,-0.003105,0.003104
0.64,0.64,0.0,0.0,2.4917933805815196,0.0,0.0,-9.38263716,-0.00777933,-2.85381729,0.002592,-0.003105,0.003104
0.65,0.65,0.0,0.0,2.491824420229552,0.0,0.0,-9.38263716,-0.00777933,-2.85381729,0.002592,-0.003105,0.003104
0.66,0.66,0.0,0.0,2.491855459911098,0.0,0.0,-9.38263716,-0.00777933,-2.85381729,0.002592,-0.003105,0.003104
0.67,0.67,0.0,0.0,2.4918864996229626,0.0,0.0,-9.38263716,-0.00777933,-2.85381729,0.002592,-0.003105,0.003104
0.68,0.68,0.0,0.0,2.491917539362259,0.0,0.0,-9.38263716,-0.00777933,-2.85381729,0.002592,-0.003105,0.003104
0.6900000000000001,0.6900000000000001,0.0,0.0,2.4919485791263725,0.0,0.0,-9.38263716,-0.00777933,-2.85381729,0.002592,-0.003105,0.003104
0.7000000000000001,0.7000000000000001,0.0,0.0,2.4919796189129393,0.0,0.0,-9.38263716,-0.00777933,-2.85381729,0.002592,-0.003105,0.003104
0.71,0.71,0.0,0.0,2.4920106587198205,0.0,0.0,-9.38263716,-0.00777933,-2.85381729,0.002592,-0.003105,0.003104
0.72,0.72,0.0,0.0,2.4920416985450826,0.0,0.0,-9.38263716,-0.00777933,-2.85381729,0.002592,-0.003105,0.003104
0.73,0.73,0.0,0.0,2.492072738386975,0.0,0.0,-9.38263716,-0.00777933,-2.85381729,0.002592,-0.003105,0.003104
0.74,0.74,0.0,0.0,2.492103778243914,0.0,0.0,-9.38263716,-0.00777933,-2.85381729,0.002592,-0.003105,0.003104
0.75,0.75,0.0,0.0,2.492134818114467,0.0,0.0,-9.38263716,-0.00777933,-2.85381729,0.002592,-0.003105,0.003104
0.76,0.76,0.0,0.0,2.492165857997337,0.0,0.0,-9.38263716,-0.00777933,-2.85381729,0.002592,-0.003105,0.003104
0.77,0.77,0.0,0.0,2.492196897891353,0.0,0.0,-9.38263716,-0.00777933,-2.85381729,0.002592,-0.003105,0.003104
0.78,0.78,0.0,0.0,2.4922279377954535,0.0,0.0,-9.38263716,-0.00777933,-2.85381729,0.002592,-0.003105,0.003104
0.79,0.79,0.0,0.0,2.49225897770868,0.0,0.0,-9.38263716,-0.00777933,-2.85381729,0.002592,-0.003105,0.003104
0.8,0.8,0.0,0.0,2.492290017630162,0.0,0.0,-9.38263716,-0.00777933,-2.85381729,0.002592,-0.003105,0.003104
0.81,0.81,0.0,0.0,2.4923210575591135,0.0,0.0,-9.38263716,-0.00777933,-2.85381729,0.002592,-0.003105,0.003104
0.8200000000000001,0.8200000000000001,0.0,0.0,2.492352097494825,0.0,0.0,-9.38263716,-0.00777933,-2.85381729,0.002592,-0.003105,0.003104
0.8300000000000001,0.8300000000000001,0.0,0.0,2.4923831374366543,0.0,0.0,-9.38263716,-0.00777933,-2.85381729,0.002592,-0.003105,0.003104
0.84,0.84,0.0,0.0,2.492414177384018,0.0,0.0,-9.38263716,-0.00777933,-2.85381729,0.002592,-0.003105,0.003104
0.85,0.85,0.0,0.0,2.492445217336389,0.0,0.0,-9.38263716,-0.00777933,-2.85381729,0.002592,-0.003105,0.003104
0.86,0.86,0.0,0.0,2.4924762572932915,0.0,0.0,-9.38263716,-0.00777933,-2.85381729,0.002592,-0.003105,0.003104
0.87,0.87,0.0,0.0,2.492507297254294,0.0,0.0,-9.38263716,-0.00777933,-2.85381729,0.002592,-0.003105,0.003104
0.88,0.88,0.0,0.0,2.492538337219006,0.0,0.0,-9.38263716,-0.00777933,-2.85381729,0.002592,-0.003105,0.003104
0.89,0.89,0.0,0.0,2.492569377187076,0.0,0.0,-9.38263716,-0.00777933,-2.85381729,0.002592,-0.003105,0.003104
0.9,0.9,0.0,0.0,2.492600417158183,0.0,0.0,-9.38263716,-0.00777933,-2.85381729,0.002592,-0.003105,0.003104
0.91,0.91,0.0,0.0,2.492631457132039,0.0,0.0,-9.38263716,-0.00777933,-2.85381729,0.002592,-0.003105,0.003104
0.92,0.92,0.0,0.0,2.492662497108382,0.0,0.0,-9.38263716,-0.00777933,-2.85381729,0.002592,-0.003105,0.003104
0.93,0.93,0.0,0.0,2.492693537086976,0.0,0.0,-9.38263716,-0.00777933,-2.85381729,0.002592,-0.003105,0.003104
0.9400000000000001,0.9400000000000001,0.0,0.0,2.492724577067605,0.0,0.0,-9.38263716,-0.00777933,-2.85381729,0.002592,-0.003105,0.003104
0.9500000000000001,0.9500000000000001,0.0,0.0,2.4927556170500775,0.0,0.0,-9.38263716,-0.00777933,-2.85381729,0.002592,-0.003105,0.003104
0.96,0.96,0.0,0.0,2.492786657034218,0.0,0.0,-9.38263716,-0.00777933,-2.85381729,0.002592,-0.003105,0.003104
0.97,0.97,0.0,0.0,2.492817697019867,0.0,0.0,-9.38263716,-0.00777933,-2.85381729,0.002592,-0.003105,0.003104
0.98,0.98,0.0,0.0,2.492848737006881,0.0,0.0,-9.38263716,-0.00777933,-2.85381729,0.002592,-0.003105,0.003104
0.99,0.99,0.0,0.0,2.4928797769951307,0.0,0.0,-9.38263716,-0.00777933,-2.85381729,0.002592,-0.003105,0.003104
1.0,1.0,0.0,0.0,2.492910816984498,0.0,0.0,-9.38263716,-0.00777933,-2.85381729,0.002592,-0.003105,0.003104
1.01,1.01,0.0,0.0,2.492941856974877,0.0,0.0,-9.38263716,-0.00777933,-2.85381729,0.002592,-0.003105,0.003104
1.02,1.02,0.0,0.0,2.4929728969661706,0.0,0.0,-9.38263716,-0.00777933,-2.85381729,0.002592,-0.003105,0.003104
1.03,1.03,0.0,0.0,2.493003936958293,0.0,0.0,-9.38263716,-0.00777933,-2.85381729,0.002592,-0.003105,0.003104
1.04,1.04,0.0,0.0,2.493034976951165,0.0,0.0,-9.38263716,-0.00777933,-2.85381729,0.002592,-0.003105,0.003104
1.05,1.05,0.0,0.0,2.4930660169447147,0.0,0.0,-9.38263716,-0.00777933,-2.85381729,0.002592,-0.003105,0.003104
1.06,1.06,0.0,0.0,2.4930970569388773,0.0,0.0,-9.38263716,-0.00777933,-2.85381729,0.002592,-0.003105,0.003104
1.07,1.07,0.0,0.0,2.493128096933596,0.0,0.0,-9.38263716,-0.00777933,-2.85381729,0.002592,-0.003105,0.003104
1.08,1.08,0.0,0.0,2.493159136928816,0.0,0.0,-9.38263716,-0.00777933,-2.85381729,0.002592,-0.003105,0.003104
1.09,1.09,0.0,0.0,2.4931901769244913,0.0,0.0,-9.38263716,-0.00777933,-2.85381729,0.002592,-0.003105,0.003104
1.1,1.1,0.0,0.0,2.4932212169205776,0.0,0.0,-9.38263716,-0.00777933,-2.85381729,0.002592,-0.003105,0.003104
1.11,1.11,0.0,0.0,2.493252256917037,0.0,0.0,-9.38263716,-0.00777933,-2.85381729,0.002592,-0.003105,0.003104
1.12,1.12,0.0,0.0,2.493283296913833,0.0,0.0,-9.38263716,-0.00777933,-2.85381729,0.002592,-0.003105,0.003104
1.1300000000000001,1.1300000000000001,0.0,0.0,2.4933143369109345,0.0,0.0,-9.38263716,-0.00777933,-2.85381729,0.002592,-0.003105,0.003104
1.1400000000000001,1.1400000000000001,0.0,0.0,2.4933453769083105,0.0,0.0,-9.38263716,-0.00777933,-2.85381729,0.002592,-0.003105,0.003104
1.1500000000000001,1.1500000000000001,0.0,0.0,2.493376416905936,0.0,0.0,-9.38263716,-0.00777933,-2.85381729,0.002592,-0.003105,0.003104
1.16,1.16,0.0,0.0,2.493407456903787,0.0,0.0,-9.38263716,-0.00777933,-2.85381729,0.002592,-0.003105,0.003104
1.17,1.17,0.0,0.0,2.4934384969018435,0.0,0.0,-9.38263716,-0.00777933,-2.85381729,0.002592,-0.003105,0.003104
1.18,1.18,0.0,0.0,2.4934695369000845,0.0,0.0,-9.38263716,-0.00777933,-2.85381729,0.002592,-0.003105,0.003104
1.19,1.19,0.0,0.0,2.4935005768984926,0.0,0.0,-9.38263716,-0.00777933,-2.85381729,0.002592,-0.003105,0.003104
1.2,1.2,0.0,0.0,2.4935316168970516,0.0,0.0,-9.38263716,-0.00777933,-2.85381729,0.002592,-0.003105,0.003104
1.21,1.21,0.0,0.0,2.4935626568957483,0.0,0.0,-9.38263716,-0.00777933,-2.85381729,0.002592,-0.003105,0.003104
1.22,1.22,0.0,0.0,2.4935936968945693,0.0,0.0,-9.38263716,-0.00777933,-2.85381729,0.002592,-0.003105,0.003104
1.23,1.23,0.0,0.0,2.4936247368935023,0.0,0.0,-9.38263716,-0.00777933,-2.85381729,0.002592,-0.003105,0.003104
1.24,1.24,0.0,0.0,2.4936557768925374,0.0,0.0,-9.38263716,-0.00777933,-2.85381729,0.002592,-0.003105,0.003104
1.25,1.25,0.0,0.0,2.493686816891663,0.0,0.0,-9.38263716,-0.00777933,-2.85381729,0.002592,-0.003105,0.003104
1.26,1.26,0.0,0.0,2.493717856890872,0.0,0.0,-9.38263716,-0.00777933,-2.85381729,0.002592,-0.003105,0.003104
1.27,1.27,0.0,0.0,2.493748896890157,0.0,0.0,-9.38263716,-0.00777933,-2.85381729,0.002592,-0.003105,0.003104
1.28,1.28,0.0,0.0,2.493779936889509,0.0,0.0,-9.38263716,-0.00777933,-2.85381729,0.002592,-0.003105,0.003104
1.29,1.29,0.0,0.0,2.4938109768889234,0.0,0.0,-9.38263716,-0.00777933,-2.85381729,0.002592,-0.003105,0.003104
1.3,1.3,0.0,0.0,2.4938420168883937,0.0,0.0,-9.38263716,-0.00777933,-2.85381729,0.002592,-0.003105,0.003104
1.31,1.31,0.0,0.0,2.4938730568879137,0.0,0.0,-9.38263716,-0.00777933,-2.85381729,0.002592,-0.003105,0.003104
1.32,1.32,0.0,0.0,2.49390409688748,0.0,0.0,-9.38263716,-0.00777933,-2.85381729,0.002592,-0.003105,0.003104
1.33,1.33,0.0,0.0,2.493935136887087,0.0,0.0,-9.38263716,-0.00777933,-2.85381729,0.002592,-0.003105,0.003104
1.34,1.34,0.0,0.0,2.4939661768867314,0.0,0.0,-9.38263716,-0.00777933,-2.85381729,0.002592,-0.003105,0.003104
1.35,1.35,0.0,0.0,2.4939972168864095,0.0,0.0,-9.38263716,-0.00777933,-2.85381729,0.002592,-0.003105,0.003104
1.36,1.36,0.0,0.0,2.494028256886118,0.0,0.0,-9.38263716,-0.00777933,-2.85381729,0.002592,-0.003105,0.003104
1.37,1.37,0.0,0.0,2.4940592968858546,0.0,0.0,-9.38263716,-0.00777933,-2.85381729,0.002592,-0.003105,0.003104
1.3800000000000001,1.3800000000000001,0.0,0.0,2.494090336885616,0.0,0.0,-9.38263716,-0.00777933,-2.85381729,0.002592,-0.003105,0.003104
1.3900000000000001,1.3900000000000001,0.0,0.0,2.494121376885401,0.0,0.0,-9.38263716,-0.00777933,-2.85381729,0.002592,-0.003105,0.003104
1.4000000000000001,1.4000000000000001,0.0,0.0,2.494152416885206,0.0,0.0,-9.38263716,-0.00777933,-2.85381729,0.002592,-0.003105,0.003104
1.41,1.41,0.0,0.0,2.494183456885029,0.0,0.0,-9.38263716,-0.00777933,-2.85381729,0.002592,-0.003105,0.003104
1.42,1.42,0.0,0.0,2.4942144968848687,0.0,0.0,-9.38263716,-0.00777933,-2.85381729,0.002592,-0.003105,0.003104
1.43,1.43,0.0,0.0,2.4942455368847245,0.0,0.0,-9.38263716,-0.00777933,-2.85381729,0.002592,-0.003105,0.003104
1.44,1.44,0.0,0.0,2.4942765768845927,0.0,0.0,-9.38263716,-0.00777933,-2.85381729,0.002592,-0.003105,0.003104
1.45,1.45,0.0,0.0,2.494307616884475,0.0,0.0,-9.38263716,-0.00777933,-2.85381729,0.002592,-0.003105,0.003104
1.46,1.46,0.0,0.0,2.494338656884368,0.0,0.0,-9.38263716,-0.00777933,-2.85381729,0.002592,-0.003105,0.003104
1.47,1.47,0.0,0.0,2.494369696884272,0.0,0.0,-9.38263716,-0.00777933,-2.85381729,0.002592,-0.003105,0.003104
1.48,1.48,0.0,0.0,2.4944007368841836,0.0,0.0,-9.38263716,-0.00777933,-2.85381729,0.002592,-0.003105,0.003104
1.49,1.49,0.0,0.0,2.4944317768841042,0.0,0.0,-9.38263716,-0.00777933,-2.85381729,0.002592,-0.003105,0.003104
1.5,1.5,0.0,0.0,2.494462816884032,0.0,0.0,-9.38263716,-0.00777933,-2.85381729,0.002592,-0.003105,0.003104
1.51,1.51,0.0,0.0,2.4944938568839667,0.0,0.0,-9.38263716,-0.00777933,-2.85381729,0.002592,-0.003105,0.003104
1.52,1.52,0.0,0.0,2.4945248968839078,0.0,0.0,-9.38263716,-0.00777933,-2.85381729,0.002592,-0.003105,0.003104
1.53,1.53,0.0,0.0,2.494555936883854,0.0,0.0,-9.38263716,-0.00777933,-2.85381729,0.002592,-0.003105,0.003104
1.54,1.54,0.0,0.0,2.494586976883806,0.0,0.0,-9.38263716,-0.00777933,-2.85381729,0.002592,-0.003105,0.003104
1.55,1.55,0.0,0.0,2.494618016883763,0.0,0.0,-9.38263716,-0.00777933,-2.85381729,0.002592,-0.003105,0.003104
1.56,1.56,0.0,0.0,2.4946490568837234,0.0,0.0,-9.38263716,-0.00777933,-2.85381729,0.002592,-0.003105,0.003104
1.57,1.57,0.0,0.0,2.4946800968836875,0.0,0.0,-9.38263716,-0.00777933,-2.85381729,0.002592,-0.003105,0.003104
1.58,1.58,0.0,0.0,2.494711136883655,0.0,0.0,-9.38263716,-0.00777933,-2.85381729,0.002592,-0.003105,0.003104
1.59,1.59,0.0,0.0,2.4947421768836264,0.0,0.0,-9.38263716,-0.00777933,-2.85381729,0.002592,-0.003105,0.003104
1.6,1.6,0.0,0.0,2.4947732168836003,0.0,0.0,-9.38263716,-0.00777933,-2.85381729,0.002592,-0.003105,0.003104
1.61,1.61,0.0,0.0,2.494804256883576,0.0,0.0,-9.38263716,-0.00777933,-2.85381729,0.002592,-0.003105,0.003104
1.62,1.62,0.0,0.0,2.4948352968835543,0.0,0.0,-9.38263716,-0.00777933,-2.85381729,0.002592,-0.003105,0.003104
1.6300000000000001,1.6300000000000001,0.0,0.0,2.4948663368835344,0.0,0.0,-9.38263716,-0.00777933,-2.85381729,0.002592,-0.003105,0.003104
1.6400000000000001,1.6400000000000001,0.0,0.0,2.4948973768835163,0.0,0.0,-9.38263716,-0.00777933,-2.85381729,0.002592,-0.003105,0.003104
1.6500000000000001,1.6500000000000001,0.0,0.0,2.4949284168835,0.0,0.0,-9.38263716,-0.00777933,-2.85381729,0.002592,-0.003105,0.003104
1.6600000000000001,1.6600000000000001,0.0,0.0,2.4949594568834854,0.0,0.0,-9.38263716,-0.00777933,-2.85381729,0.002592,-0.003105,0.003104
1.67,1.67,0.0,0.0,2.4949904968834726,0.0,0.0,-9.38263716,-0.00777933,-2.85381729,0.002592,-0.003105,0.003104
1.68,1.68,0.0,0.0,2.4950215368834607,0.0,0.0,-9.38263716,-0.00777933,-2.85381729,0.002592,-0.003105,0.003104
1.69,1.69,0.0,0.0,2.4950525768834497,0.0,0.0,-9.38263716,-0.00777933,-2.85381729,0.002592,-0.003105,0.003104
1.7,1.7,0.0,0.0,2.4950836168834396,0.0,0.0,-9.38263716,-0.00777933,-2.85381729,0.002592,-0.003105,0.003104
1.71,1.71,0.0,0.0,2.4951146568834304,0.0,0.0,-9.38263716,-0.00777933,-2.85381729,0.002592,-0.003105,0.003104
1.72,1.72,0.0,0.0,2.495145696883423,0.0,0.0,-9.38263716,-0.00777933,-2.85381729,0.002592,-0.003105,0.003104
1.73,1.73,0.0,0.0,2.4951767368834155,0.0,0.0,-9.38263716,-0.00777933,-2.85381729,0.002592,-0.003105,0.003104
1.74,1.74,0.0,0.0,2.495207776883409,0.0,0.0,-9.38263716,-0.00777933,-2.85381729,0.002592,-0.003105,0.003104
1.75,1.75,0.0,0.0,2.495238816883403,0.0,0.0,-9.38263716,-0.00777933,-2.85381729,0.002592,-0.003105,0.003104
1.76,1.76,0.0,0.0,2.4952698568833975,0.0,0.0,-9.38263716,-0.00777933,-2.85381729,0.002592,-0.003105,0.003104
1.77,1.77,0.0,0.0,2.4953008968833927,0.0,0.0,-9.38263716,-0.00777933,-2.85381729,0.002592,-0.003105,0.003104
1.78,1.78,0.0,0.0,2.495331936883388,0.0,0.0,-9.38263716,-0.00777933,-2.85381729,0.002592,-0.003105,0.003104
1.79,1.79,0.0,0.0,2.495362976883383,0.0,0.0,-9.38263716,-0.00777933,-2.85381729,0.002592,-0.003105,0.003104
1.8,1.8,0.0,0.0,2.4953940168833793,0.0,0.0,-9.38263716,-0.00777933,-2.85381729,0.002592,-0.003105,0.003104
1.81,1.81,0.0,0.0,2.4954250568833753,0.0,0.0,-9.38263716,-0.00777933,-2.85381729,0.002592,-0.003105,0.003104
1.82,1.82,0.0,0.0,2.495456096883373,0.0,0.0,-9.38263716,-0.00777933,-2.85381729,0.002592,-0.003105,0.003104
1.83,1.83,0.0,0.0,2.495487136883371,0.0,0.0,-9.38263716,-0.00777933,-2.85381729,0.002592,-0.003105,0.003104
1.84,1.84,0.0,0.0,2.495518176883369,0.0,0.0,-9.38263716,-0.00777933,-2.85381729,0.002592,-0.003105,0.003104
1.85,1.85,0.0,0.0,2.495549216883367,0.0,0.0,-9.38263716,-0.00777933,-2.85381729,0.002592,-0.003105,0.003104
1.86,1.86,0.0,0.0,2.4955802568833647,0.0,0.0,-9.38263716,-0.00777933,-2.85381729,0.002592,-0.003105,0.003104
1.87,1.87,0.0,0.0,2.4956112968833635,0.0,0.0,-9.38263716,-0.00777933,-2.85381729,0.002592,-0.003105,0.003104
1.8800000000000001,1.8800000000000001,0.0,0.0,2.4956423368833613,0.0,0.0,-9.38263716,-0.00777933,-2.85381729,0.002592,-0.003105,0.003104
1.8900000000000001,1.8900000000000001,0.0,0.0,2.49567337688336,0.0,0.0,-9.38263716,-0.00777933,-2.85381729,0.002592,-0.003105,0.003104
1.9000000000000001,1.9000000000000001,0.0,0.0,2.495704416883359,0.0,0.0,-9.38263716,-0.00777933,-2.85381729,0.002592,-0.003105,0.003104
1.9100000000000001,1.9100000000000001,0.0,0.0,2.4957354568833585,0.0,0.0,-9.38263716,-0.00777933,-2.85381729,0.002592,-0.003105,0.003104
1.92,1.92,0.0,0.0,2.4957664968833573,0.0,0.0,-9.38263716,-0.00777933,-2.85381729,0.002592,-0.003105,0.003104
1.93,1.93,0.0,0.0,2.495797536883357,0.0,0.0,-9.38263716,-0.00777933,-2.85381729,0.002592,-0.003105,0.003104
1.94,1.94,0.0,0.0,2.4958285768833566,0.0,0.0,-9.38263716,-0.00777933,-2.85381729,0.002592,-0.003105,0.003104
1.95,1.95,0.0,0.0,2.4958596168833562,0.0,0.0,-9.38263716,-0.00777933,-2.85381729,0.002592,-0.003105,0.003104
1.96,1.96,0.0,0.0,2.495890656883356,0.0,0.0,-9.38263716,-0.00777933,-2.85381729,0.002592,-0.003105,0.003104
1.97,1.97,0.0,0.0,2.4959216968833546,0.0,0.0,-9.38263716,-0.00777933,-2.85381729,0.002592,-0.003105,0.003104
1.98,1.98,0.0,0.0,2.4959527368833534,0.0,0.0,-9.38263716,-0.00777933,-2.85381729,0.002592,-0.003105,0.003104
1.99,1.99,0.0,0.0,2.495983776883353,0.0,0.0,-9.38263716,-0.00777933,-2.85381729,0.002592,-0.003105,0.003104
2.0,2.0,0.0,0.0,2.496014816883352,0.0,0.0,-9.38263716,-0.00777933,-2.85381729,0.002592,-0.003105,0.003104
2.0100000000000002,2.0100000000000002,0.0,0.0,2.4960458568833506,0.0,0.0,-9.38263716,-0.00777933,-2.85381729,0.002592,-0.003105,0.003104
2.02,2.02,0.0,0.0,2.49607689688335,0.0,0.0,-9.38263716,-0.00777933,-2.85381729,0.002592,-0.003105,0.003104
2.0300000000000002,2.0300000000000002,0.0,0.0,2.49610793688335,0.0,0.0,-9.38263716,-0.00777933,-2.85381729,0.002592,-0.003105,0.003104
2.04,2.04,0.0,0.0,2.4961389768833495,0.0,0.0,-9.38263716,-0.00777933,-2.85381729,0.002592,-0.003105,0.003104
2.05,2.05,0.0,0.0,2.496170016883349,0.0,0.0,-9.38263716,-0.00777933,-2.85381729,0.002592,-0.003105,0.003104
2.06,2.06,0.0,0.0,2.496201056883349,0.0,0.0,-9.38263716,-0.00777933,-2.85381729,0.002592,-0.003105,0.003104
2.07,2.07,0.0,0.0,2.4962320968833485,0.0,0.0,-9.38263716,-0.00777933,-2.85381729,0.002592,-0.003105,0.003104
2.08,2.08,0.0,0.0,2.496263136883348,0.0,0.0,-9.38263716,-0.00777933,-2.85381729,0.002592,-0.003105,0.003104
2.09,2.09,0.0,0.0,2.4962941768833478,0.0,0.0,-9.38263716,-0.00777933,-2.85381729,0.002592,-0.003105,0.003104
2.1,2.1,0.0,0.0,2.4963252168833474,0.0,0.0,-9.38263716,-0.00777933,-2.85381729,0.002592,-0.003105,0.003104
2.11,2.11,0.0,0.0,2.496356256883347,0.0,0.0,-9.38263716,-0.00777933,-2.85381729,0.002592,-0.003105,0.003104
2.12,2.12,0.0,0.0,2.4963872968833467,0.0,0.0,-9.38263716,-0.00777933,-2.85381729,0.002592,-0.003105,0.003104
2.13,2.13,0.0,0.0,2.4964183368833464,0.0,0.0,-9.38263716,-0.00777933,-2.85381729,0.002592,-0.003105,0.003104
2.14,2.14,0.0,0.0,2.496449376883346,0.0,0.0,-9.38263716,-0.00777933,-2.85381729,0.002592,-0.003105,0.003104
2.15,2.15,0.0,0.0,2.4964804168833457,0.0,0.0,-9.38263716,-0.00777933,-2.85381729,0.002592,-0.003105,0.003104
2.16,2.16,0.0,0.0,2.4965114568833453,0.0,0.0,-9.38263716,-0.00777933,-2.85381729,0.002592,-0.003105,0.003104
2.17,2.17,0.0,0.0,2.496542496883346,0.0,0.0,-9.38263716,-0.00777933,-2.85381729,0.002592,-0.003105,0.003104
2.18,2.18,0.0,0.0,2.4965735368833455,0.0,0.0,-9.38263716,-0.00777933,-2.85381729,0.002592,-0.003105,0.003104
2.19,2.19,0.0,0.0,2.496604576883345,0.0,0.0,-9.38263716,-0.00777933,-2.85381729,0.002592,-0.003105,0.003104
2.2,2.2,0.0,0.0,2.496635616883344,0.0,0.0,-9.38263716,-0.00777933,-2.85381729,0.002592,-0.003105,0.003104
2.21,2.21,0.0,0.0,2.4966666568833435,0.0,0.0,-9.38263716,-0.00777933,-2.85381729,0.002592,-0.003105,0.003104
2.22,2.22,0.0,0.0,2.496697696883343,0.0,0.0,-9.38263716,-0.00777933,-2.85381729,0.002592,-0.003105,0.003104
2.23,2.23,0.0,0.0,2.496728736883343,0.0,0.0,-9.38263716,-0.00777933,-2.85381729,0.002592,-0.003105,0.003104
2.24,2.24,0.0,0.0,2.4967597768833425,0.0,0.0,-9.38263716,-0.00777933,-2.85381729,0.002592,-0.003105,0.003104
2.25,2.25,0.0,0.0,2.496790816883342,0.0,0.0,-9.38263716,-0.00777933,-2.85381729,0.002592,-0.003105,0.003104
2.2600000000000002,2.2600000000000002,0.0,0.0,2.496821856883342,0.0,0.0,-9.38263716,-0.00777933,-2.85381729,0.002592,-0.003105,0.003104
2.27,2.27,0.0,0.0,2.4968528968833414,0.0,0.0,-9.38263716,-0.00777933,-2.85381729,0.002592,-0.003105,0.003104
2.2800000000000002,2.2800000000000002,0.0,0.0,2.496883936883341,0.0,0.0,-9.38263716,-0.00777933,-2.85381729,0.002592,-0.003105,0.003104
2.29,2.29,0.0,0.0,2.4969149768833407,0.0,0.0,-9.38263716,-0.00777933,-2.85381729,0.002592,-0.003105,0.003104
2.3000000000000003,2.3000000000000003,0.0,0.0,2.4969460168833404,0.0,0.0,-9.38263716,-0.00777933,-2.85381729,0.002592,-0.003105,0.003104
2.31,2.31,0.0,0.0,2.49697705688334,0.0,0.0,-9.38263716,-0.00777933,-2.85381729,0.002592,-0.003105,0.003104
2.32,2.32,0.0,0.0,2.4970080968833397,0.0,0.0,-9.38263716,-0.00777933,-2.85381729,0.002592,-0.003105,0.003104
2.33,2.33,0.0,0.0,2.4970391368833393,0.0,0.0,-9.38263716,-0.00777933,-2.85381729,0.002592,-0.003105,0.003104
2.34,2.34,0.0,0.0,2.497070176883339,0.0,0.0,-9.38263716,-0.00777933,-2.85381729,0.002592,-0.003105,0.003104
2.35,2.35,0.0,0.0,2.4971012168833386,0.0,0.0,-9.38263716,-0.00777933,-2.85381729,0.002592,-0.003105,0.003104
2.36,2.36,0.0,0.0,2.4971322568833383,0.0,0.0,-9.38263716,-0.00777933,-2.85381729,0.002592,-0.003105,0.003104
2.37,2.37,0.0,0.0,2.497163296883338,0.0,0.0,-9.38263716,-0.00777933,-2.85381729,0.002592,-0.003105,0.003104
2.38,2.38,0.0,0.0,2.4971943368833376,0.0,0.0,-9.38263716,-0.00777933,-2.85381729,0.002592,-0.003105,0.003104
2.39,2.39,0.0,0.0,2.4972253768833372,0.0,0.0,-9.38263716,-0.00777933,-2.85381729,0.002592,-0.003105,0.003104
2.4,2.4,0.0,0.0,2.497256416883337,0.0,0.0,-9.38263716,-0.00777933,-2.85381729,0.002592,-0.003105,0.003104
2.41,2.41,0.0,0.0,2.4972874568833365,0.0,0.0,-9.38263716,-0.00777933,-2.85381729,0.002592,-0.003105,0.003104
2.42,2.42,0.0,0.0,2.497318496883336,0.0,0.0,-9.38263716,-0.00777933,-2.85381729,0.002592,-0.003105,0.003104
2.43,2.43,0.0,0.0,2.497349536883336,0.0,0.0,-9.38263716,-0.00777933,-2.85381729,0.002592,-0.003105,0.003104
2.44,2.44,0.0,0.0,2.4973805768833355,0.0,0.0,-9.38263716,-0.00777933,-2.85381729,0.002592,-0.003105,0.003104
2.45,2.45,0.0,0.0,2.497411616883335,0.0,0.0,-9.38263716,-0.00777933,-2.85381729,0.002592,-0.003105,0.003104
2.46,2.46,0.0,0.0,2.4974426568833348,0.0,0.0,-9.38263716,-0.00777933,-2.85381729,0.002592,-0.003105,0.003104
2.47,2.47,0.0,0.0,2.4974736968833344,0.0,0.0,-9.38263716,-0.00777933,-2.85381729,0.002592,-0.003105,0.003104
2.48,2.48,0.0,0.0,2.497504736883334,0.0,0.0,-9.38263716,-0.00777933,-2.85381729,0.002592,-0.003105,0.003104
2.49,2.49,0.0,0.0,2.4975357768833337,0.0,0.0,-9.38263716,-0.00777933,-2.85381729,0.002592,-0.003105,0.003104
2.5,2.5,0.0,0.0,2.4975668168833334,0.0,0.0,-9.38263716,-0.00777933,-2.85381729,0.002592,-0.003105,0.003104
2.5100000000000002,2.5100000000000002,0.0,0.0,2.497597856883333,0.0,0.0,-9.38263716,-0.00777933,-2.85381729,0.002592,-0.003105,0.003104
2.52,2.52,0.0,0.0,2.4976288968833327,0.0,0.0,-9.38263716,-0.00777933,-2.85381729,0.002592,-0.003105,0.003104
2.5300000000000002,2.5300000000000002,0.0,0.0,2.4976599368833323,0.0,0.0,-9.38263716,-0.00777933,-2.85381729,0.002592,-0.003105,0.003104
2.54,2.54,0.0,0.0,2.497690976883332,0.0,0.0,-9.38263716,-0.00777933,-2.85381729,0.002592,-0.003105,0.003104
2.5500000000000003,2.5500000000000003,0.0,0.0,2.4977220168833316,0.0,0.0,-9.38263716,-0.00777933,-2.85381729,0.002592,-0.003105,0.003104
2.56,2.56,0.0,0.0,2.4977530568833313,0.0,0.0,-9.38263716,-0.00777933,-2.85381729,0.002592,-0.003105,0.003104
2.57,2.57,0.0,0.0,2.497784096883331,0.0,0.0,-9.38263716,-0.00777933,-2.85381729,0.002592,-0.003105,0.003104
2.58,2.58,0.0,0.0,2.4978151368833306,0.0,0.0,-9.38263716,-0.00777933,-2.85381729,0.002592,-0.003105,0.003104
2.59,2.59,0.0,0.0,2.49784617688333,0.0,0.0,-9.38263716,-0.00777933,-2.85381729,0.002592,-0.003105,0.003104
2.6,2.6,0.0,0.0,2.49787721688333,0.0,0.0,-9.38263716,-0.00777933,-2.85381729,0.002592,-0.003105,0.003104
2.61,2.61,0.0,0.0,2.4979082568833295,0.0,0.0,-9.38263716,-0.00777933,-2.85381729,0.002592,-0.003105,0.003104
2.62,2.62,0.0,0.0,2.497939296883329,0.0,0.0,-9.38263716,-0.00777933,-2.85381729,0.002592,-0.003105,0.003104
2.63,2.63,0.0,0.0,2.497970336883329,0.0,0.0,-9.38263716,-0.00777933,-2.85381729,0.002592,-0.003105,0.003104
2.64,2.64,0.0,0.0,2.4980013768833285,0.0,0.0,-9.38263716,-0.00777933,-2.85381729,0.002592,-0.003105,0.003104
2.65,2.65,0.0,0.0,2.498032416883328,0.0,0.0,-9.38263716,-0.00777933,-2.85381729,0.002592,-0.003105,0.003104
2.66,2.66,0.0,0.0,2.4980634568833278,0.0,0.0,-9.38263716,-0.00777933,-2.85381729,0.002592,-0.003105,0.003104
2.67,2.67,0.0,0.0,2.4980944968833274,0.0,0.0,-9.38263716,-0.00777933,-2.85381729,0.002592,-0.003105,0.003104
2.68,2.68,0.0,0.0,2.498125536883327,0.0,0.0,-9.38263716,-0.00777933,-2.85381729,0.002592,-0.003105,0.003104
2.69,2.69,0.0,0.0,2.4981565768833267,0.0,0.0,-9.38263716,-0.00777933,-2.85381729,0.002592,-0.003105,0.003104
2.7,2.7,0.0,0.0,2.4981876168833264,0.0,0.0,-9.38263716,-0.00777933,-2.85381729,0.002592,-0.003105,0.003104
2.71,2.71,0.0,0.0,2.498218656883326,0.0,0.0,-9.38263716,-0.00777933,-2.85381729,0.002592,-0.003105,0.003104
2.72,2.72,0.0,0.0,2.4982496968833257,0.0,0.0,-9.38263716,-0.00777933,-2.85381729,0.002592,-0.003105,0.003104
2.73,2.73,0.0,0.0,2.4982807368833253,0.0,0.0,-9.38263716,-0.00777933,-2.85381729,0.002592,-0.003105,0.003104
2.74,2.74,0.0,0.0,2.498311776883325,0.0,0.0,-9.38263716,-0.00777933,-2.85381729,0.002592,-0.003105,0.003104
2.75,2.75,0.0,0.0,2.4983428168833246,0.0,0.0,-9.38263716,-0.00777933,-2.85381729,0.002592,-0.003105,0.003104
2.7600000000000002,2.7600000000000002,0.0,0.0,2.4983738568833243,0.0,0.0,-9.38263716,-0.00777933,-2.85381729,0.002592,-0.003105,0.003104
2.77,2.77,0.0,0.0,2.498404896883324,0.0,0.0,-9.38263716,-0.00777933,-2.85381729,0.002592,-0.003105,0.003104
2.7800000000000002,2.7800000000000002,0.0,0.0,2.4984359368833235,0.0,0.0,-9.38263716,-0.00777933,-2.85381729,0.002592,-0.003105,0.003104
2.79,2.79,0.0,0.0,2.498466976883323,0.0,0.0,-9.38263716,-0.00777933,-2.85381729,0.002592,-0.003105,0.003104
2.8000000000000003,2.8000000000000003,0.0,0.0,2.498498016883323,0.0,0.0,-9.38263716,-0.00777933,-2.85381729,0.002592,-0.003105,0.003104
2.81,2.81,0.0,0.0,2.4985290568833225,0.0,0.0,-9.38263716,-0.00777933,-2.85381729,0.002592,-0.003105,0.003104
2.82,2.82,0.0,0.0,2.498560096883322,0.0,0.0,-9.38263716,-0.00777933,-2.85381729,0.002592,-0.003105,0.003104
2.83,2.83,0.0,0.0,2.498591136883322,0.0,0.0,-9.38263716,-0.00777933,-2.85381729,0.002592,-0.003105,0.003104
2.84,2.84,0.0,0.0,2.4986221768833214,0.0,0.0,-9.38263716,-0.00777933,-2.85381729,0.002592,-0.003105,0.003104
2.85,2.85,0.0,0.0,2.498653216883321,0.0,0.0,-9.38263716,-0.00777933,-2.85381729,0.002592,-0.003105,0.003104
2.86,2.86,0.0,0.0,2.4986842568833207,0.0,0.0,-9.38263716,-0.00777933,-2.85381729,0.002592,-0.003105,0.003104
2.87,2.87,0.0,0.0,2.4987152968833204,0.0,0.0,-9.38263716,-0.00777933,-2.85381729,0.002592,-0.003105,0.003104
2.88,2.88,0.0,0.0,2.49874633688332,0.0,0.0,-9.38263716,-0.00777933,-2.85381729,0.002592,-0.003105,0.003104
2.89,2.89,0.0,0.0,2.4987773768833197,0.0,0.0,-9.38263716,-0.00777933,-2.85381729,0.002592,-0.003105,0.003104
2.9,2.9,0.0,0.0,2.4988084168833193,0.0,0.0,-9.38263716,-0.00777933,-2.85381729,0.002592,-0.003105,0.003104
2.91,2.91,0.0,0.0,2.498839456883319,0.0,0.0,-9.38263716,-0.00777933,-2.85381729,0.002592,-0.003105,0.003104
2.92,2.92,0.0,0.0,2.4988704968833186,0.0,0.0,-9.38263716,-0.00777933,-2.85381729,0.002592,-0.003105,0.003104
2.93,2.93,0.0,0.0,2.4989015368833183,0.0,0.0,-9.38263716,-0.00777933,-2.85381729,0.002592,-0.003105,0.003104
2.94,2.94,0.0,0.0,2.498932576883318,0.0,0.0,-9.38263716,-0.00777933,-2.85381729,0.002592,-0.003105,0.003104
2.95,2.95,0.0,0.0,2.4989636168833176,0.0,0.0,-9.38263716,-0.00777933,-2.85381729,0.002592,-0.003105,0.003104
2.96,2.96,0.0,0.0,2.4989946568833172,0.0,0.0,-9.38263716,-0.00777933,-2.85381729,0.002592,-0.003105,0.003104
2.97,2.97,0.0,0.0,2.499025696883317,0.0,0.0,-9.38263716,-0.00777933,-2.85381729,0.002592,-0.003105,0.003104
2.98,2.98,0.0,0.0,2.4990567368833165,0.0,0.0,-9.38263716,-0.00777933,-2.85381729,0.002592,-0.003105,0.003104
2.99,2.99,0.0,0.0,2.499087776883316,0.0,0.0,-9.38263716,-0.00777933,-2.85381729,0.002592,-0.003105,0.003104
3.0,3.0,0.0,0.0,2.499118816883316,0.0,0.0,-9.38263716,-0.00777933,-2.85381729,0.002592,-0.003105,0.003104
3.0100000000000002,3.0100000000000002,0.0,0.0,2.4991498568833155,0.0,0.0,-9.38263716,-0.00777933,-2.85381729,0.002592,-0.003105,0.003104
3.02,3.02,0.0,0.0,2.499180896883315,0.0,0.0,-9.38263716,-0.00777933,-2.85381729,0.002592,-0.003105,0.003104
3.0300000000000002,3.0300000000000002,0.0,0.0,2.4992119368833148,0.0,0.0,-9.38263716,-0.00777933,-2.85381729,0.002592,-0.003105,0.003104
3.04,3.04,0.0,0.0,2.4992429768833144,0.0,0.0,-9.38263716,-0.00777933,-2.85381729,0.002592,-0.003105,0.003104
3.0500000000000003,3.0500000000000003,0.0,0.0,2.499274016883314,0.0,0.0,-9.38263716,-0.00777933,-2.85381729,0.002592,-0.003105,0.003104
3.06,3.06,0.0,0.0,2.4993050568833137,0.0,0.0,-9.38263716,-0.00777933,-2.85381729,0.002592,-0.003105,0.003104
3.0700000000000003,3.0700000000000003,0.0,0.0,2.4993360968833134,0.0,0.0,-9.38263716,-0.00777933,-2.85381729,0.002592,-0.003105,0.003104
3.08,3.08,0.0,0.0,2.499367136883313,0.0,0.0,-9.38263716,-0.00777933,-2.85381729,0.002592,-0.003105,0.003104
3.09,3.09,0.0,0.0,2.4993981768833127,0.0,0.0,-9.38263716,-0.00777933,-2.85381729,0.002592,-0.003105,0.003104
3.1,3.1,0.0,0.0,2.4994292168833123,0.0,0.0,-9.38263716,-0.00777933,-2.85381729,0.002592,-0.003105,0.003104
3.11,3.11,0.0,0.0,2.499460256883312,0.0,0.0,-9.38263716,-0.00777933,-2.85381729,0.002592,-0.003105,0.003104
3.12,3.12,0.0,0.0,2.4994912968833116,0.0,0.0,-9.38263716,-0.00777933,-2.85381729,0.002592,-0.003105,0.003104
3.13,3.13,0.0,0.0,2.4995223368833113,0.0,0.0,-9.38263716,-0.00777933,-2.85381729,0.002592,-0.003105,0.003104
3.14,3.14,0.0,0.0,2.499553376883311,0.0,0.0,-9.38263716,-0.00777933,-2.85381729,0.002592,-0.003105,0.003104
3.15,3.15,0.0,0.0,2.4995844168833106,0.0,0.0,-9.38263716,-0.00777933,-2.85381729,0.002592,-0.003105,0.003104
3.16,3.16,0.0,0.0,2.49961545688331,0.0,0.0,-9.38263716,-0.00777933,-2.85381729,0.002592,-0.003105,0.003104
3.17,3.17,0.0,0.0,2.49964649688331,0.0,0.0,-9.38263716,-0.00777933,-2.85381729,0.002592,-0.003105,0.003104
3.18,3.18,0.0,0.0,2.4996775368833095,0.0,0.0,-9.38263716,-0.00777933,-2.85381729,0.002592,-0.003105,0.003104
3.19,3.19,0.0,0.0,2.499708576883309,0.0,0.0,-9.38263716,-0.00777933,-2.85381729,0.002592,-0.003105,0.003104
3.2,3.2,0.0,0.0,2.499739616883309,0.0,0.0,-9.38263716,-0.00777933,-2.85381729,0.002592,-0.003105,0.003104
3.21,3.21,0.0,0.0,2.4997706568833085,0.0,0.0,-9.38263716,-0.00777933,-2.85381729,0.002592,-0.003105,0.003104
3.22,3.22,0.0,0.0,2.499801696883308,0.0,0.0,-9.38263716,-0.00777933,-2.85381729,0.002592,-0.003105,0.003104
3.23,3.23,0.0,0.0,2.4998327368833078,0.0,0.0,-9.38263716,-0.00777933,-2.85381729,0.002592,-0.003105,0.003104
3.24,3.24,0.0,0.0,2.4998637768833074,0.0,0.0,-9.38263716,-0.00777933,-2.85381729,0.002592,-0.003105,0.003104
3.25,3.25,0.0,0.0,2.499894816883307,0.0,0.0,-9.38263716,-0.00777933,-2.85381729,0.002592,-0.003105,0.003104
3.2600000000000002,3.2600000000000002,0.0,0.0,2.4999258568833067,0.0,0.0,-9.38263716,-0.00777933,-2.85381729,0.002592,-0.003105,0.003104
3.27,3.27,0.0,0.0,2.4999568968833064,0.0,0.0,-9.38263716,-0.00777933,-2.85381729,0.002592,-0.003105,0.003104
3.2800000000000002,3.2800000000000002,0.0,0.0,2.499987936883306,0.0,0.0,-9.38263716,-0.00777933,-2.85381729,0.002592,-0.003105,0.003104
3.29,3.29,0.0,0.0,2.5000189768833057,0.0,0.0,-9.38263716,-0.00777933,-2.85381729,0.002592,-0.003105,0.003104
3.3000000000000003,3.3000000000000003,0.0,0.0,2.5000500168833053,0.0,0.0,-9.38263716,-0.00777933,-2.85381729,0.002592,-0.003105,0.003104
3.31,3.31,0.0,0.0,2.500081056883305,0.0,0.0,-9.38263716,-0.00777933,-2.85381729,0.002592,-0.003105,0.003104
3.3200000000000003,3.3200000000000003,0.0,0.0,2.5001120968833046,0.0,0.0,-9.38263716,-0.00777933,-2.85381729,0.002592,-0.003105,0.003104
3.33,3.33,0.0,0.0,2.5001431368833043,0.0,0.0,-9.38263716,-0.00777933,-2.85381729,0.002592,-0.003105,0.003104
3.34,3.34,0.0,0.0,2.500174176883304,0.0,0.0,-9.38263716,-0.00777933,-2.85381729,0.002592,-0.003105,0.003104
3.35,3.35,0.0,0.0,2.5002052168833035,0.0,0.0,-9.38263716,-0.00777933,-2.85381729,0.002592,-0.003105,0.003104
3.36,3.36,0.0,0.0,2.500236256883303,0.0,0.0,-9.38263716,-0.00777933,-2.85381729,0.002592,-0.003105,0.003104
3.37,3.37,0.0,0.0,2.500267296883303,0.0,0.0,-9.38263716,-0.00777933,-2.85381729,0.002592,-0.003105,0.003104
3.38,3.38,0.0,0.0,2.5002983368833025,0.0,0.0,-9.38263716,-0.00777933,-2.85381729,0.002592,-0.003105,0.003104
3.39,3.39,0.0,0.0,2.500329376883302,0.0,0.0,-9.38263716,-0.00777933,-2.85381729,0.002592,-0.003105,0.003104
3.4,3.4,0.0,0.0,2.500360416883302,0.0,0.0,-9.38263716,-0.00777933,-2.85381729,0.002592,-0.003105,0.003104
3.41,3.41,0.0,0.0,2.5003914568833014,0.0,0.0,-9.38263716,-0.00777933,-2.85381729,0.002592,-0.003105,0.003104
3.42,3.42,0.0,0.0,2.500422496883301,0.0,0.0,-9.38263716,-0.00777933,-2.85381729,0.002592,-0.003105,0.003104
3.43,3.43,0.0,0.0,2.5004535368833007,0.0,0.0,-9.38263716,-0.00777933,-2.85381729,0.002592,-0.003105,0.003104
3.44,3.44,0.0,0.0,2.5004845768833004,0.0,0.0,-9.38263716,-0.00777933,-2.85381729,0.002592,-0.003105,0.003104
3.45,3.45,0.0,0.0,2.5005156168833,0.0,0.0,-9.38263716,-0.00777933,-2.85381729,0.002592,-0.003105,0.003104
3.46,3.46,0.0,0.0,2.5005466568832997,0.0,0.0,-9.38263716,-0.00777933,-2.85381729,0.002592,-0.003105,0.003104
3.47,3.47,0.0,0.0,2.5005776968832993,0.0,0.0,-9.38263716,-0.00777933,-2.85381729,0.002592,-0.003105,0.003104
3.48,3.48,0.0,0.0,2.500608736883299,0.0,0.0,-9.38263716,-0.00777933,-2.85381729,0.002592,-0.003105,0.003104
3.49,3.49,0.0,0.0,2.5006397768832986,0.0,0.0,-9.38263716,-0.00777933,-2.85381729,0.002592,-0.003105,0.003104
3.5,3.5,0.0,0.0,2.5006708168832983,0.0,0.0,-9.38263716,-0.00777933,-2.85381729,0.002592,-0.003105,0.003104
3.5100000000000002,3.5100000000000002,0.0,0.0,2.500701856883298,0.0,0.0,-9.38263716,-0.00777933,-2.85381729,0.002592,-0.003105,0.003104
3.52,3.52,0.0,0.0,2.5007328968832976,0.0,0.0,-9.38263716,-0.00777933,-2.85381729,0.002592,-0.003105,0.003104
3.5300000000000002,3.5300000000000002,0.0,0.0,2.5007639368832972,0.0,0.0,-9.38263716,-0.00777933,-2.85381729,0.002592,-0.003105,0.003104
3.54,3.54,0.0,0.0,2.500794976883297,0.0,0.0,-9.38263716,-0.00777933,-2.85381729,0.002592,-0.003105,0.003104
3.5500000000000003,3.5500000000000003,0.0,0.0,2.5008260168832965,0.0,0.0,-9.38263716,-0.00777933,-2.85381729,0.002592,-0.003105,0.003104
3.56,3.56,0.0,0.0,2.500857056883296,0.0,0.0,-9.38263716,-0.00777933,-2.85381729,0.002592,-0.003105,0.003104
3.5700000000000003,3.5700000000000003,0.0,0.0,2.500888096883296,0.0,0.0,-9.38263716,-0.00777933,-2.85381729,0.002592,-0.003105,0.003104
3.58,3.58,0.0,0.0,2.5009191368832955,0.0,0.0,-9.38263716,-0.00777933,-2.85381729,0.002592,-0.003105,0.003104
3.59,3.59,0.0,0.0,2.500950176883295,0.0,0.0,-9.38263716,-0.00777933,-2.85381729,0.002592,-0.003105,0.003104
3.6,3.6,0.0,0.0,2.5009812168832948,0.0,0.0,-9.38263716,-0.00777933,-2.85381729,0.002592,-0.003105,0.003104
3.61,3.61,0.0,0.0,2.5010122568832944,0.0,0.0,-9.38263716,-0.00777933,-2.85381729,0.002592,-0.003105,0.003104
3.62,3.62,0.0,0.0,2.501043296883294,0.0,0.0,-9.38263716,-0.00777933,-2.85381729,0.002592,-0.003105,0.003104
3.63,3.63,0.0,0.0,2.5010743368832937,0.0,0.0,-9.38263716,-0.00777933,-2.85381729,0.002592,-0.003105,0.003104
3.64,3.64,0.0,0.0,2.5011053768832934,0.0,0.0,-9.38263716,-0.00777933,-2.85381729,0.002592,-0.003105,0.003104
3.65,3.65,0.0,0.0,2.501136416883293,0.0,0.0,-9.38263716,-0.00777933,-2.85381729,0.002592,-0.003105,0.003104
3.66,3.66,0.0,0.0,2.5011674568832927,0.0,0.0,-9.38263716,-0.00777933,-2.85381729,0.002592,-0.003105,0.003104
3.67,3.67,0.0,0.0,2.5011984968832923,0.0,0.0,-9.38263716,-0.00777933,-2.85381729,0.002592,-0.003105,0.003104
3.68,3.68,0.0,0.0,2.501229536883292,0.0,0.0,-9.38263716,-0.00777933,-2.85381729,0.002592,-0.003105,0.003104
3.69,3.69,0.0,0.0,2.5012605768832916,0.0,0.0,-9.38263716,-0.00777933,-2.85381729,0.002592,-0.003105,0.003104
3.7,3.7,0.0,0.0,2.5012916168832913,0.0,0.0,-9.38263716,-0.00777933,-2.85381729,0.002592,-0.003105,0.003104
3.71,3.71,0.0,0.0,2.501322656883291,0.0,0.0,-9.38263716,-0.00777933,-2.85381729,0.002592,-0.003105,0.003104
3.72,3.72,0.0,0.0,2.5013536968832906,0.0,0.0,-9.38263716,-0.00777933,-2.85381729,0.002592,-0.003105,0.003104
3.73,3.73,0.0,0.0,2.50138473688329,0.0,0.0,-9.38263716,-0.00777933,-2.85381729,0.002592,-0.003105,0.003104
3.74,3.74,0.0,0.0,2.50141577688329,0.0,0.0,-9.38263716,-0.00777933,-2.85381729,0.002592,-0.003105,0.003104
3.75,3.75,0.0,0.0,2.5014468168832895,0.0,0.0,-9.38263716,-0.00777933,-2.85381729,0.002592,-0.003105,0.003104
3.7600000000000002,3.7600000000000002,0.0,0.0,2.501477856883289,0.0,0.0,-9.38263716,-0.00777933,-2.85381729,0.002592,-0.003105,0.003104
3.77,3.77,0.0,0.0,2.501508896883289,0.0,0.0,-9.38263716,-0.00777933,-2.85381729,0.002592,-0.003105,0.003104
3.7800000000000002,3.7800000000000002,0.0,0.0,2.5015399368832885,0.0,0.0,-9.38263716,-0.00777933,-2.85381729,0.002592,-0.003105,0.003104
3.79,3.79,0.0,0.0,2.501570976883288,0.0,0.0,-9.38263716,-0.00777933,-2.85381729,0.002592,-0.003105,0.003104
3.8000000000000003,3.8000000000000003,0.0,0.0,2.5016020168832878,0.0,0.0,-9.38263716,-0.00777933,-2.85381729,0.002592,-0.003105,0.003104
3.81,3.81,0.0,0.0,2.5016330568832874,0.0,0.0,-9.38263716,-0.00777933,-2.85381729,0.002592,-0.003105,0.003104
3.8200000000000003,3.8200000000000003,0.0,0.0,2.501664096883287,0.0,0.0,-9.38263716,-0.00777933,-2.85381729,0.002592,-0.003105,0.003104
3.83,3.83,0.0,0.0,2.5016951368832867,0.0,0.0,-9.38263716,-0.00777933,-2.85381729,0.002592,-0.003105,0.003104
3.84,3.84,0.0,0.0,2.5017261768832864,0.0,0.0,-9.38263716,-0.00777933,-2.85381729,0.002592,-0.003105,0.003104
3.85,3.85,0.0,0.0,2.501757216883286,0.0,0.0,-9.38263716,-0.00777933,-2.85381729,0.002592,-0.003105,0.003104
3.86,3.86,0.0,0.0,2.5017882568832857,0.0,0.0,-9.38263716,-0.00777933,-2.85381729,0.002592,-0.003105,0.003104
3.87,3.87,0.0,0.0,2.5018192968832853,0.0,0.0,-9.38263716,-0.00777933,-2.85381729,0.002592,-0.003105,0.003104
3.88,3.88,0.0,0.0,2.501850336883285,0.0,0.0,-9.38263716,-0.00777933,-2.85381729,0.002592,-0.003105,0.003104
3.89,3.89,0.0,0.0,2.5018813768832846,0.0,0.0,-9.38263716,-0.00777933,-2.85381729,0.002592,-0.003105,0.003104
3.9,3.9,0.0,0.0,2.5019124168832843,0.0,0.0,-9.38263716,-0.00777933,-2.85381729,0.002592,-0.003105,0.003104
3.91,3.91,0.0,0.0,2.501943456883284,0.0,0.0,-9.38263716,-0.00777933,-2.85381729,0.002592,-0.003105,0.003104
3.92,3.92,0.0,0.0,2.5019744968832835,0.0,0.0,-9.38263716,-0.00777933,-2.85381729,0.002592,-0.003105,0.003104
3.93,3.93,0.0,0.0,2.502005536883283,0.0,0.0,-9.38263716,-0.00777933,-2.85381729,0.002592,-0.003105,0.003104
3.94,3.94,0.0,0.0,2.502036576883283,0.0,0.0,-9.38263716,-0.00777933,-2.85381729,0.002592,-0.003105,0.003104
3.95,3.95,0.0,0.0,2.5020676168832825,0.0,0.0,-9.38263716,-0.00777933,-2.85381729,0.002592,-0.003105,0.003104
3.96,3.96,0.0,0.0,2.502098656883282,0.0,0.0,-9.38263716,-0.00777933,-2.85381729,0.002592,-0.003105,0.003104
3.97,3.97,0.0,0.0,2.502129696883282,0.0,0.0,-9.38263716,-0.00777933,-2.85381729,0.002592,-0.003105,0.003104
3.98,3.98,0.0,0.0,2.5021607368832814,0.0,0.0,-9.38263716,-0.00777933,-2.85381729,0.002592,-0.003105,0.003104
3.99,3.99,0.0,0.0,2.502191776883281,0.0,0.0,-9.38263716,-0.00777933,-2.85381729,0.002592,-0.003105,0.003104
4.0,4.0,0.0,0.0,2.5022228168832807,0.0,0.0,-9.38263716,-0.00777933,-2.85381729,0.002592,-0.003105,0.003104
4.01,4.01,0.0,0.0,2.5022538568832804,0.0,0.0,-9.38263716,-0.00777933,-2.85381729,0.002592,-0.003105,0.003104
4.0200000000000005,4.0200000000000005,0.0,0.0,2.50228489688328,0.0,0.0,-9.38263716,-0.00777933,-2.85381729,0.002592,-0.003105,0.003104
4.03,4.03,0.0,0.0,2.5023159368832797,0.0,0.0,-9.38263716,-0.00777933,-2.85381729,0.002592,-0.003105,0.003104
4.04,4.04,0.0,0.0,2.5023469768832793,0.0,0.0,-9.38263716,-0.00777933,-2.85381729,0.002592,-0.003105,0.003104
4.05,4.05,0.0,0.0,2.502378016883279,0.0,0.0,-9.38263716,-0.00777933,-2.85381729,0.002592,-0.003105,0.003104
4.0600000000000005,4.0600000000000005,0.0,0.0,2.5024090568832786,0.0,0.0,-9.38263716,-0.00777933,-2.85381729,0.002592,-0.003105,0.003104
4.07,4.07,0.0,0.0,2.5024400968832783,0.0,0.0,-9.38263716,-0.00777933,-2.85381729,0.002592,-0.003105,0.003104
4.08,4.08,0.0,0.0,2.502471136883278,0.0,0.0,-9.38263716,-0.00777933,-2.85381729,0.002592,-0.003105,0.003104
4.09,4.09,0.0,0.0,2.5025021768832776,0.0,0.0,-9.38263716,-0.00777933,-2.85381729,0.002592,-0.003105,0.003104
4.1,4.1,0.0,0.0,2.5025332168832772,0.0,0.0,-9.38263716,-0.00777933,-2.85381729,0.002592,-0.003105,0.003104
4.11,4.11,0.0,0.0,2.502564256883277,0.0,0.0,-9.38263716,-0.00777933,-2.85381729,0.002592,-0.003105,0.003104
4.12,4.12,0.0,0.0,2.5025952968832765,0.0,0.0,-9.38263716,-0.00777933,-2.85381729,0.002592,-0.003105,0.003104
4.13,4.13,0.0,0.0,2.502626336883276,0.0,0.0,-9.38263716,-0.00777933,-2.85381729,0.002592,-0.003105,0.003104
4.14,4.14,0.0,0.0,2.502657376883276,0.0,0.0,-9.38263716,-0.00777933,-2.85381729,0.002592,-0.003105,0.003104
4.15,4.15,0.0,0.0,2.5026884168832755,0.0,0.0,-9.38263716,-0.00777933,-2.85381729,0.002592,-0.003105,0.003104
4.16,4.16,0.0,0.0,2.502719456883275,0.0,0.0,-9.38263716,-0.00777933,-2.85381729,0.002592,-0.003105,0.003104
4.17,4.17,0.0,0.0,2.5027504968832748,0.0,0.0,-9.38263716,-0.00777933,-2.85381729,0.002592,-0.003105,0.003104
4.18,4.18,0.0,0.0,2.5027815368832744,0.0,0.0,-9.38263716,-0.00777933,-2.85381729,0.002592,-0.003105,0.003104
4.19,4.19,0.0,0.0,2.502812576883274,0.0,0.0,-9.38263716,-0.00777933,-2.85381729,0.002592,-0.003105,0.003104
4.2,4.2,0.0,0.0,2.5028436168832737,0.0,0.0,-9.38263716,-0.00777933,-2.85381729,0.002592,-0.003105,0.003104
4.21,4.21,0.0,0.0,2.5028746568832734,0.0,0.0,-9.38263716,-0.00777933,-2.85381729,0.002592,-0.003105,0.003104
4.22,4.22,0.0,0.0,2.502905696883273,0.0,0.0,-9.38263716,-0.00777933,-2.85381729,0.002592,-0.003105,0.003104
4.23,4.23,0.0,0.0,2.5029367368832727,0.0,0.0,-9.38263716,-0.00777933,-2.85381729,0.002592,-0.003105,0.003104
4.24,4.24,0.0,0.0,2.5029677768832723,0.0,0.0,-9.38263716,-0.00777933,-2.85381729,0.002592,-0.003105,0.003104
4.25,4.25,0.0,0.0,2.502998816883272,0.0,0.0,-9.38263716,-0.00777933,-2.85381729,0.002592,-0.003105,0.003104
4.26,4.26,0.0,0.0,2.5030298568832716,0.0,0.0,-9.38263716,-0.00777933,-2.85381729,0.002592,-0.003105,0.003104
4.2700000000000005,4.2700000000000005,0.0,0.0,2.5030608968832713,0.0,0.0,-9.38263716,-0.00777933,-2.85381729,0.002592,-0.003105,0.003104
4.28,4.28,0.0,0.0,2.503091936883271,0.0,0.0,-9.38263716,-0.00777933,-2.85381729,0.002592,-0.003105,0.003104
4.29,4.29,0.0,0.0,2.5031229768832706,0.0,0.0,-9.38263716,-0.00777933,-2.85381729,0.002592,-0.003105,0.003104
4.3,4.3,0.0,0.0,2.50315401688327,0.0,0.0,-9.38263716,-0.00777933,-2.85381729,0.002592,-0.003105,0.003104
4.3100000000000005,4.3100000000000005,0.0,0.0,2.50318505688327,0.0,0.0,-9.38263716,-0.00777933,-2.85381729,0.002592,-0.003105,0.003104
4.32,4.32,0.0,0.0,2.5032160968832695,0.0,0.0,-9.38263716,-0.00777933,-2.85381729,0.002592,-0.003105,0.003104
4.33,4.33,0.0,0.0,2.503247136883269,0.0,0.0,-9.38263716,-0.00777933,-2.85381729,0.002592,-0.003105,0.003104
4.34,4.34,0.0,0.0,2.503278176883269,0.0,0.0,-9.38263716,-0.00777933,-2.85381729,0.002592,-0.003105,0.003104
4.3500000000000005,4.3500000000000005,0.0,0.0,2.5033092168832685,0.0,0.0,-9.38263716,-0.00777933,-2.85381729,0.002592,-0.003105,0.003104
4.36,4.36,0.0,0.0,2.503340256883268,0.0,0.0,-9.38263716,-0.00777933,-2.85381729,0.002592,-0.003105,0.003104
4.37,4.37,0.0,0.0,2.5033712968832678,0.0,0.0,-9.38263716,-0.00777933,-2.85381729,0.002592,-0.003105,0.003104
4.38,4.38,0.0,0.0,2.5034023368832674,0.0,0.0,-9.38263716,-0.00777933,-2.85381729,0.002592,-0.003105,0.003104
4.39,4.39,0.0,0.0,2.503433376883267,0.0,0.0,-9.38263716,-0.00777933,-2.85381729,0.002592,-0.003105,0.003104
4.4,4.4,0.0,0.0,2.5034644168832667,0.0,0.0,-9.38263716,-0.00777933,-2.85381729,0.002592,-0.003105,0.003104
4.41,4.41,0.0,0.0,2.5034954568832664,0.0,0.0,-9.38263716,-0.00777933,-2.85381729,0.002592,-0.003105,0.003104
4.42,4.42,0.0,0.0,2.503526496883266,0.0,0.0,-9.38263716,-0.00777933,-2.85381729,0.002592,-0.003105,0.003104
4.43,4.43,0.0,0.0,2.5035575368832657,0.0,0.0,-9.38263716,-0.00777933,-2.85381729,0.002592,-0.003105,0.003104
4.44,4.44,0.0,0.0,2.5035885768832653,0.0,0.0,-9.38263716,-0.00777933,-2.85381729,0.002592,-0.003105,0.003104
4.45,4.45,0.0,0.0,2.503619616883265,0.0,0.0,-9.38263716,-0.00777933,-2.85381729,0.002592,-0.003105,0.003104
4.46,4.46,0.0,0.0,2.5036506568832646,0.0,0.0,-9.38263716,-0.00777933,-2.85381729,0.002592,-0.003105,0.003104
4.47,4.47,0.0,0.0,2.5036816968832643,0.0,0.0,-9.38263716,-0.00777933,-2.85381729,0.002592,-0.003105,0.003104
4.48,4.48,0.0,0.0,2.503712736883264,0.0,0.0,-9.38263716,-0.00777933,-2.85381729,0.002592,-0.003105,0.003104
4.49,4.49,0.0,0.0,2.5037437768832635,0.0,0.0,-9.38263716,-0.00777933,-2.85381729,0.002592,-0.003105,0.003104
4.5,4.5,0.0,0.0,2.503774816883263,0.0,0.0,-9.38263716,-0.00777933,-2.85381729,0.002592,-0.003105,0.003104
4.51,4.51,0.0,0.0,2.503805856883263,0.0,0.0,-9.38263716,-0.00777933,-2.85381729,0.002592,-0.003105,0.003104
4.5200000000000005,4.5200000000000005,0.0,0.0,2.5038368968832625,0.0,0.0,-9.38263716,-0.00777933,-2.85381729,0.002592,-0.003105,0.003104
4.53,4.53,0.0,0.0,2.503867936883262,0.0,0.0,-9.38263716,-0.00777933,-2.85381729,0.002592,-0.003105,0.003104
4.54,4.54,0.0,0.0,2.503898976883262,0.0,0.0,-9.38263716,-0.00777933,-2.85381729,0.002592,-0.003105,0.003104
4.55,4.55,0.0,0.0,2.5039300168832614,0.0,0.0,-9.38263716,-0.00777933,-2.85381729,0.002592,-0.003105,0.003104
4.5600000000000005,4.5600000000000005,0.0,0.0,2.503961056883261,0.0,0.0,-9.38263716,-0.00777933,-2.85381729,0.002592,-0.003105,0.003104
4.57,4.57,0.0,0.0,2.5039920968832607,0.0,0.0,-9.38263716,-0.00777933,-2.85381729,0.002592,-0.003105,0.003104
4.58,4.58,0.0,0.0,2.5040231368832604,0.0,0.0,-9.38263716,-0.00777933,-2.85381729,0.002592,-0.003105,0.003104
4.59,4.59,0.0,0.0,2.50405417688326,0.0,0.0,-9.38263716,-0.00777933,-2.85381729,0.002592,-0.003105,0.003104
4.6000000000000005,4.6000000000000005,0.0,0.0,2.5040852168832597,0.0,0.0,-9.38263716,-0.00777933,-2.85381729,0.002592,-0.003105,0.003104
4.61,4.61,0.0,0.0,2.5041162568832593,0.0,0.0,-9.38263716,-0.00777933,-2.85381729,0.002592,-0.003105,0.003104
4.62,4.62,0.0,0.0,2.504147296883259,0.0,0.0,-9.38263716,-0.00777933,-2.85381729,0.002592,-0.003105,0.003104
4.63,4.63,0.0,0.0,2.5041783368832586,0.0,0.0,-9.38263716,-0.00777933,-2.85381729,0.002592,-0.003105,0.003104
4.64,4.64,0.0,0.0,2.5042093768832583,0.0,0.0,-9.38263716,-0.00777933,-2.85381729,0.002592,-0.003105,0.003104
4.65,4.65,0.0,0.0,2.504240416883258,0.0,0.0,-9.38263716,-0.00777933,-2.85381729,0.002592,-0.003105,0.003104
4.66,4.66,0.0,0.0,2.5042714568832576,0.0,0.0,-9.38263716,-0.00777933,-2.85381729,0.002592,-0.003105,0.003104
4.67,4.67,0.0,0.0,2.5043024968832572,0.0,0.0,-9.38263716,-0.00777933,-2.85381729,0.002592,-0.003105,0.003104
4.68,4.68,0.0,0.0,2.504333536883257,0.0,0.0,-9.38263716,-0.00777933,-2.85381729,0.002592,-0.003105,0.003104
4.69,4.69,0.0,0.0,2.5043645768832565,0.0,0.0,-9.38263716,-0.00777933,-2.85381729,0.002592,-0.003105,0.003104
4.7,4.7,0.0,0.0,2.504395616883256,0.0,0.0,-9.38263716,-0.00777933,-2.85381729,0.002592,-0.003105,0.003104
4.71,4.71,0.0,0.0,2.504426656883256,0.0,0.0,-9.38263716,-0.00777933,-2.85381729,0.002592,-0.003105,0.003104
4.72,4.72,0.0,0.0,2.5044576968832555,0.0,0.0,-9.38263716,-0.00777933,-2.85381729,0.002592,-0.003105,0.003104
4.73,4.73,0.0,0.0,2.504488736883255,0.0,0.0,-9.38263716,-0.00777933,-2.85381729,0.002592,-0.003105,0.003104
4.74,4.74,0.0,0.0,2.504519776883255,0.0,0.0,-9.38263716,-0.00777933,-2.85381729,0.002592,-0.003105,0.003104
4.75,4.75,0.0,0.0,2.5045508168832544,0.0,0.0,-9.38263716,-0.00777933,-2.85381729,0.002592,-0.003105,0.003104
4.76,4.76,0.0,0.0,2.504581856883254,0.0,0.0,-9.38263716,-0.00777933,-2.85381729,0.002592,-0.003105,0.003104
4.7700000000000005,4.7700000000000005,0.0,0.0,2.5046128968832537,0.0,0.0,-9.38263716,-0.00777933,-2.85381729,0.002592,-0.003105,0.003104
4.78,4.78,0.0,0.0,2.5046439368832534,0.0,0.0,-9.38263716,-0.00777933,-2.85381729,0.002592,-0.003105,0.003104
4.79,4.79,0.0,0.0,2.504674976883253,0.0,0.0,-9.38263716,-0.00777933,-2.85381729,0.002592,-0.003105,0.003104
4.8,4.8,0.0,0.0,2.5047060168832527,0.0,0.0,-9.38263716,-0.00777933,-2.85381729,0.002592,-0.003105,0.003104
4.8100000000000005,4.8100000000000005,0.0,0.0,2.5047370568832523,0.0,0.0,-9.38263716,-0.00777933,-2.85381729,0.002592,-0.003105,0.003104
4.82,4.82,0.0,0.0,2.504768096883252,0.0,0.0,-9.38263716,-0.00777933,-2.85381729,0.002592,-0.003105,0.003104
4.83,4.83,0.0,0.0,2.5047991368832516,0.0,0.0,-9.38263716,-0.00777933,-2.85381729,0.002592,-0.003105,0.003104
4.84,4.84,0.0,0.0,2.5048301768832513,0.0,0.0,-9.38263716,-0.00777933,-2.85381729,0.002592,-0.003105,0.003104
4.8500000000000005,4.8500000000000005,0.0,0.0,2.504861216883251,0.0,0.0,-9.38263716,-0.00777933,-2.85381729,0.002592,-0.003105,0.003104
4.86,4.86,0.0,0.0,2.5048922568832506,0.0,0.0,-9.38263716,-0.00777933,-2.85381729,0.002592,-0.003105,0.003104
4.87,4.87,0.0,0.0,2.50492329688325,0.0,0.0,-9.38263716,-0.00777933,-2.85381729,0.002592,-0.003105,0.003104
4.88,4.88,0.0,0.0,2.50495433688325,0.0,0.0,-9.38263716,-0.00777933,-2.85381729,0.002592,-0.003105,0.003104
4.89,4.89,0.0,0.0,2.5049853768832495,0.0,0.0,-9.38263716,-0.00777933,-2.85381729,0.002592,-0.003105,0.003104
4.9,4.9,0.0,0.0,2.505016416883249,0.0,0.0,-9.38263716,-0.00777933,-2.85381729,0.002592,-0.003105,0.003104
4.91,4.91,0.0,0.0,2.505047456883249,0.0,0.0,-9.38263716,-0.00777933,-2.85381729,0.002592,-0.003105,0.003104
4.92,4.92,0.0,0.0,2.5050784968832485,0.0,0.0,-9.38263716,-0.00777933,-2.85381729,0.002592,-0.003105,0.003104
4.93,4.93,0.0,0.0,2.505109536883248,0.0,0.0,-9.38263716,-0.00777933,-2.85381729,0.002592,-0.003105,0.003104
4.94,4.94,0.0,0.0,2.5051405768832478,0.0,0.0,-9.38263716,-0.00777933,-2.85381729,0.002592,-0.003105,0.003104
4.95,4.95,0.0,0.0,2.5051716168832474,0.0,0.0,-9.38263716,-0.00777933,-2.85381729,0.002592,-0.003105,0.003104
4.96,4.96,0.0,0.0,2.505202656883247,0.0,0.0,-9.38263716,-0.00777933,-2.85381729,0.002592,-0.003105,0.003104
4.97,4.97,0.0,0.0,2.5052336968832467,0.0,0.0,-9.38263716,-0.00777933,-2.85381729,0.002592,-0.003105,0.003104
4.98,4.98,0.0,0.0,2.5052647368832464,0.0,0.0,-9.38263716,-0.00777933,-2.85381729,0.002592,-0.003105,0.003104
4.99,4.99,0.0,0.0,2.505295776883246,0.0,0.0,-9.38263716,-0.00777933,-2.85381729,0.002592,-0.003105,0.003104
5.0,5.0,0.0,0.0,2.5053268168832457,0.0,0.0,-9.38263716,-0.00777933,-2.85381729,0.002592,-0.003105,0.003104
5.01,5.01,0.0,0.0,2.5053578568832453,0.0,0.0,-9.38263716,-0.00777933,-2.85381729,0.002592,-0.003105,0.003104
5.0200000000000005,5.0200000000000005,0.0,0.0,2.505388896883245,0.0,0.0,-9.38263716,-0.00777933,-2.85381729,0.002592,-0.003105,0.003104
5.03,5.03,0.0,0.0,2.5054199368832446,0.0,0.0,-9.38263716,-0.00777933,-2.85381729,0.002592,-0.003105,0.003104
5.04,5.04,0.0,0.0,2.5054509768832443,0.0,0.0,-9.38263716,-0.00777933,-2.85381729,0.002592,-0.003105,0.003104
5.05,5.05,0.0,0.0,2.505482016883244,0.0,0.0,-9.38263716,-0.00777933,-2.85381729,0.002592,-0.003105,0.003104
5.0600000000000005,5.0600000000000005,0.0,0.0,2.5055130568832436,0.0,0.0,-9.38263716,-0.00777933,-2.85381729,0.002592,-0.003105,0.003104
5.07,5.07,0.0,0.0,2.505544096883243,0.0,0.0,-9.38263716,-0.00777933,-2.85381729,0.002592,-0.003105,0.003104
5.08,5.08,0.0,0.0,2.505575136883243,0.0,0.0,-9.38263716,-0.00777933,-2.85381729,0.002592,-0.003105,0.003104
5.09,5.09,0.0,0.0,2.5056061768832425,0.0,0.0,-9.38263716,-0.00777933,-2.85381729,0.002592,-0.003105,0.003104
5.1000000000000005,5.1000000000000005,0.0,0.0,2.505637216883242,0.0,0.0,-9.38263716,-0.00777933,-2.85381729,0.002592,-0.003105,0.003104
5.11,5.11,0.0,0.0,2.505668256883242,0.0,0.0,-9.38263716,-0.00777933,-2.85381729,0.002592,-0.003105,0.003104
5.12,5.12,0.0,0.0,2.5056992968832414,0.0,0.0,-9.38263716,-0.00777933,-2.85381729,0.002592,-0.003105,0.003104
5.13,5.13,0.0,0.0,2.505730336883241,0.0,0.0,-9.38263716,-0.00777933,-2.85381729,0.002592,-0.003105,0.003104
5.14,5.14,0.0,0.0,2.5057613768832407,0.0,0.0,-9.38263716,-0.00777933,-2.85381729,0.002592,-0.003105,0.003104
5.15,5.15,0.0,0.0,2.5057924168832404,0.0,0.0,-9.38263716,-0.00777933,-2.85381729,0.002592,-0.003105,0.003104
5.16,5.16,0.0,0.0,2.50582345688324,0.0,0.0,-9.38263716,-0.00777933,-2.85381729,0.002592,-0.003105,0.003104
5.17,5.17,0.0,0.0,2.5058544968832397,0.0,0.0,-9.38263716,-0.00777933,-2.85381729,0.002592,-0.003105,0.003104
5.18,5.18,0.0,0.0,2.5058855368832393,0.0,0.0,-9.38263716,-0.00777933,-2.85381729,0.002592,-0.003105,0.003104
5.19,5.19,0.0,0.0,2.505916576883239,0.0,0.0,-9.38263716,-0.00777933,-2.85381729,0.002592,-0.003105,0.003104
5.2,5.2,0.0,0.0,2.5059476168832386,0.0,0.0,-9.38263716,-0.00777933,-2.85381729,0.002592,-0.003105,0.003104
5.21,5.21,0.0,0.0,2.5059786568832383,0.0,0.0,-9.38263716,-0.00777933,-2.85381729,0.002592,-0.003105,0.003104
5.22,5.22,0.0,0.0,2.506009696883238,0.0,0.0,-9.38263716,-0.00777933,-2.85381729,0.002592,-0.003105,0.003104
5.23,5.23,0.0,0.0,2.5060407368832376,0.0,0.0,-9.38263716,-0.00777933,-2.85381729,0.002592,-0.003105,0.003104
5.24,5.24,0.0,0.0,2.5060717768832372,0.0,0.0,-9.38263716,-0.00777933,-2.85381729,0.002592,-0.003105,0.003104
5.25,5.25,0.0,0.0,2.506102816883237,0.0,0.0,-9.38263716,-0.00777933,-2.85381729,0.002592,-0.003105,0.003104
5.26,5.26,0.0,0.0,2.5061338568832365,0.0,0.0,-9.38263716,-0.00777933,-2.85381729,0.002592,-0.003105,0.003104
5.2700000000000005,5.2700000000000005,0.0,0.0,2.506164896883236,0.0,0.0,-9.38263716,-0.00777933,-2.85381729,0.002592,-0.003105,0.003104
5.28,5.28,0.0,0.0,2.506195936883236,0.0,0.0,-9.38263716,-0.00777933,-2.85381729,0.002592,-0.003105,0.003104
5.29,5.29,0.0,0.0,2.5062269768832355,0.0,0.0,-9.38263716,-0.00777933,-2.85381729,0.002592,-0.003105,0.003104
5.3,5.3,0.0,0.0,2.506258016883235,0.0,0.0,-9.38263716,-0.00777933,-2.85381729,0.002592,-0.003105,0.003104
5.3100000000000005,5.3100000000000005,0.0,0.0,2.506289056883235,0.0,0.0,-9.38263716,-0.00777933,-2.85381729,0.002592,-0.003105,0.003104
5.32,5.32,0.0,0.0,2.5063200968832344,0.0,0.0,-9.38263716,-0.00777933,-2.85381729,0.002592,-0.003105,0.003104
5.33,5.33,0.0,0.0,2.506351136883234,0.0,0.0,-9.38263716,-0.00777933,-2.85381729,0.002592,-0.003105,0.003104
5.34,5.34,0.0,0.0,2.5063821768832337,0.0,0.0,-9.38263716,-0.00777933,-2.85381729,0.002592,-0.003105,0.003104
5.3500000000000005,5.3500000000000005,0.0,0.0,2.5064132168832334,0.0,0.0,-9.38263716,-0.00777933,-2.85381729,0.002592,-0.003105,0.003104
5.36,5.36,0.0,0.0,2.506444256883233,0.0,0.0,-9.38263716,-0.00777933,-2.85381729,0.002592,-0.003105,0.003104
5.37,5.37,0.0,0.0,2.5064752968832327,0.0,0.0,-9.38263716,-0.00777933,-2.85381729,0.002592,-0.003105,0.003104
5.38,5.38,0.0,0.0,2.5065063368832323,0.0,0.0,-9.38263716,-0.00777933,-2.85381729,0.002592,-0.003105,0.003104
5.39,5.39,0.0,0.0,2.506537376883232,0.0,0.0,-9.38263716,-0.00777933,-2.85381729,0.002592,-0.003105,0.003104
5.4,5.4,0.0,0.0,2.5065684168832316,0.0,0.0,-9.38263716,-0.00777933,-2.85381729,0.002592,-0.003105,0.003104
5.41,5.41,0.0,0.0,2.5065994568832313,0.0,0.0,-9.38263716,-0.00777933,-2.85381729,0.002592,-0.003105,0.003104
5.42,5.42,0.0,0.0,2.506630496883231,0.0,0.0,-9.38263716,-0.00777933,-2.85381729,0.002592,-0.003105,0.003104
5.43,5.43,0.0,0.0,2.5066615368832306,0.0,0.0,-9.38263716,-0.00777933,-2.85381729,0.002592,-0.003105,0.003104
5.44,5.44,0.0,0.0,2.50669257688323,0.0,0.0,-9.38263716,-0.00777933,-2.85381729,0.002592,-0.003105,0.003104
5.45,5.45,0.0,0.0,2.50672361688323,0.0,0.0,-9.38263716,-0.00777933,-2.85381729,0.002592,-0.003105,0.003104
5.46,5.46,0.0,0.0,2.5067546568832295,0.0,0.0,-9.38263716,-0.00777933,-2.85381729,0.002592,-0.003105,0.003104
5.47,5.47,0.0,0.0,2.506785696883229,0.0,0.0,-9.38263716,-0.00777933,-2.85381729,0.002592,-0.003105,0.003104
5.48,5.48,0.0,0.0,2.506816736883229,0.0,0.0,-9.38263716,-0.00777933,-2.85381729,0.002592,-0.003105,0.003104
5.49,5.49,0.0,0.0,2.5068477768832285,0.0,0.0,-9.38263716,-0.00777933,-2.85381729,0.002592,-0.003105,0.003104
5.5,5.5,0.0,0.0,2.506878816883228,0.0,0.0,-9.38263716,-0.00777933,-2.85381729,0.002592,-0.003105,0.003104
5.51,5.51,0.0,0.0,2.5069098568832278,0.0,0.0,-9.38263716,-0.00777933,-2.85381729,0.002592,-0.003105,0.003104
5.5200000000000005,5.5200000000000005,0.0,0.0,2.5069408968832274,0.0,0.0,-9.38263716,-0.00777933,-2.85381729,0.002592,-0.003105,0.003104
5.53,5.53,0.0,0.0,2.506971936883227,0.0,0.0,-9.38263716,-0.00777933,-2.85381729,0.002592,-0.003105,0.003104
5.54,5.54,0.0,0.0,2.5070029768832267,0.0,0.0,-9.38263716,-0.00777933,-2.85381729,0.002592,-0.003105,0.003104
5.55,5.55,0.0,0.0,2.5070340168832264,0.0,0.0,-9.38263716,-0.00777933,-2.85381729,0.002592,-0.003105,0.003104
5.5600000000000005,5.5600000000000005,0.0,0.0,2.507065056883226,0.0,0.0,-9.38263716,-0.00777933,-2.85381729,0.002592,-0.003105,0.003104
5.57,5.57,0.0,0.0,2.5070960968832257,0.0,0.0,-9.38263716,-0.00777933,-2.85381729,0.002592,-0.003105,0.003104
5.58,5.58,0.0,0.0,2.5071271368832253,0.0,0.0,-9.38263716,-0.00777933,-2.85381729,0.002592,-0.003105,0.003104
5.59,5.59,0.0,0.0,2.507158176883225,0.0,0.0,-9.38263716,-0.00777933,-2.85381729,0.002592,-0.003105,0.003104
5.6000000000000005,5.6000000000000005,0.0,0.0,2.5071892168832246,0.0,0.0,-9.38263716,-0.00777933,-2.85381729,0.002592,-0.003105,0.003104
5.61,5.61,0.0,0.0,2.5072202568832243,0.0,0.0,-9.38263716,-0.00777933,-2.85381729,0.002592,-0.003105,0.003104
5.62,5.62,0.0,0.0,2.507251296883224,0.0,0.0,-9.38263716,-0.00777933,-2.85381729,0.002592,-0.003105,0.003104
5.63,5.63,0.0,0.0,2.5072823368832236,0.0,0.0,-9.38263716,-0.00777933,-2.85381729,0.002592,-0.003105,0.003104
5.64,5.64,0.0,0.0,2.507313376883223,0.0,0.0,-9.38263716,-0.00777933,-2.85381729,0.002592,-0.003105,0.003104
5.65,5.65,0.0,0.0,2.507344416883223,0.0,0.0,-9.38263716,-0.00777933,-2.85381729,0.002592,-0.003105,0.003104
5.66,5.66,0.0,0.0,2.5073754568832225,0.0,0.0,-9.38263716,-0.00777933,-2.85381729,0.002592,-0.003105,0.003104
5.67,5.67,0.0,0.0,2.507406496883222,0.0,0.0,-9.38263716,-0.00777933,-2.85381729,0.002592,-0.003105,0.003104
5.68,5.68,0.0,0.0,2.507437536883222,0.0,0.0,-9.38263716,-0.00777933,-2.85381729,0.002592,-0.003105,0.003104
5.69,5.69,0.0,0.0,2.5074685768832214,0.0,0.0,-9.38263716,-0.00777933,-2.85381729,0.002592,-0.003105,0.003104
5.7,5.7,0.0,0.0,2.507499616883221,0.0,0.0,-9.38263716,-0.00777933,-2.85381729,0.002592,-0.003105,0.003104
5.71,5.71,0.0,0.0,2.5075306568832207,0.0,0.0,-9.38263716,-0.00777933,-2.85381729,0.002592,-0.003105,0.003104
5.72,5.72,0.0,0.0,2.5075616968832204,0.0,0.0,-9.38263716,-0.00777933,-2.85381729,0.002592,-0.003105,0.003104
5.73,5.73,0.0,0.0,2.50759273688322,0.0,0.0,-9.38263716,-0.00777933,-2.85381729,0.002592,-0.003105,0.003104
5.74,5.74,0.0,0.0,2.5076237768832197,0.0,0.0,-9.38263716,-0.00777933,-2.85381729,0.002592,-0.003105,0.003104
5.75,5.75,0.0,0.0,2.5076548168832193,0.0,0.0,-9.38263716,-0.00777933,-2.85381729,0.002592,-0.003105,0.003104
5.76,5.76,0.0,0.0,2.507685856883219,0.0,0.0,-9.38263716,-0.00777933,-2.85381729,0.002592,-0.003105,0.003104
5.7700000000000005,5.7700000000000005,0.0,0.0,2.5077168968832186,0.0,0.0,-9.38263716,-0.00777933,-2.85381729,0.002592,-0.003105,0.003104
5.78,5.78,0.0,0.0,2.5077479368832183,0.0,0.0,-9.38263716,-0.00777933,-2.85381729,0.002592,-0.003105,0.003104
5.79,5.79,0.0,0.0,2.507778976883218,0.0,0.0,-9.38263716,-0.00777933,-2.85381729,0.002592,-0.003105,0.003104
5.8,5.8,0.0,0.0,2.5078100168832176,0.0,0.0,-9.38263716,-0.00777933,-2.85381729,0.002592,-0.003105,0.003104
5.8100000000000005,5.8100000000000005,0.0,0.0,2.5078410568832172,0.0,0.0,-9.38263716,-0.00777933,-2.85381729,0.002592,-0.003105,0.003104
5.82,5.82,0.0,0.0,2.507872096883217,0.0,0.0,-9.38263716,-0.00777933,-2.85381729,0.002592,-0.003105,0.003104
5.83,5.83,0.0,0.0,2.5079031368832165,0.0,0.0,-9.38263716,-0.00777933,-2.85381729,0.002592,-0.003105,0.003104
5.84,5.84,0.0,0.0,2.507934176883216,0.0,0.0,-9.38263716,-0.00777933,-2.85381729,0.002592,-0.003105,0.003104
5.8500000000000005,5.8500000000000005,0.0,0.0,2.507965216883216,0.0,0.0,-9.38263716,-0.00777933,-2.85381729,0.002592,-0.003105,0.003104
5.86,5.86,0.0,0.0,2.5079962568832155,0.0,0.0,-9.38263716,-0.00777933,-2.85381729,0.002592,-0.003105,0.003104
5.87,5.87,0.0,0.0,2.508027296883215,0.0,0.0,-9.38263716,-0.00777933,-2.85381729,0.002592,-0.003105,0.003104
5.88,5.88,0.0,0.0,2.508058336883215,0.0,0.0,-9.38263716,-0.00777933,-2.85381729,0.002592,-0.003105,0.003104
5.89,5.89,0.0,0.0,2.5080893768832144,0.0,0.0,-9.38263716,-0.00777933,-2.85381729,0.002592,-0.003105,0.003104
5.9,5.9,0.0,0.0,2.508120416883214,0.0,0.0,-9.38263716,-0.00777933,-2.85381729,0.002592,-0.003105,0.003104
5.91,5.91,0.0,0.0,2.5081514568832137,0.0,0.0,-9.38263716,-0.00777933,-2.85381729,0.002592,-0.003105,0.003104
5.92,5.92,0.0,0.0,2.5081824968832134,0.0,0.0,-9.38263716,-0.00777933,-2.85381729,0.002592,-0.003105,0.003104
5.93,5.93,0.0,0.0,2.508213536883213,0.0,0.0,-9.38263716,-0.00777933,-2.85381729,0.002592,-0.003105,0.003104
5.94,5.94,0.0,0.0,2.5082445768832127,0.0,0.0,-9.38263716,-0.00777933,-2.85381729,0.002592,-0.003105,0.003104
5.95,5.95,0.0,0.0,2.5082756168832123,0.0,0.0,-9.38263716,-0.00777933,-2.85381729,0.002592,-0.003105,0.003104
5.96,5.96,0.0,0.0,2.508306656883212,0.0,0.0,-9.38263716,-0.00777933,-2.85381729,0.002592,-0.003105,0.003104
5.97,5.97,0.0,0.0,2.5083376968832116,0.0,0.0,-9.38263716,-0.00777933,-2.85381729,0.002592,-0.003105,0.003104
5.98,5.98,0.0,0.0,2.5083687368832113,0.0,0.0,-9.38263716,-0.00777933,-2.85381729,0.002592,-0.003105,0.003104
5.99,5.99,0.0,0.0,2.508399776883211,0.0,0.0,-9.38263716,-0.00777933,-2.85381729,0.002592,-0.003105,0.003104
6.0,6.0,0.0,0.0,2.5084308168832106,0.0,0.0,-9.38263716,-0.00777933,-2.85381729,0.002592,-0.003105,0.003104
6.01,6.01,0.0,0.0,2.50846185688321,0.0,0.0,-9.38263716,-0.00777933,-2.85381729,0.002592,-0.003105,0.003104
6.0200000000000005,6.0200000000000005,0.0,0.0,2.50849289688321,0.0,0.0,-9.38263716,-0.00777933,-2.85381729,0.002592,-0.003105,0.003104
6.03,6.03,0.0,0.0,2.5085239368832095,0.0,0.0,-9.38263716,-0.00777933,-2.85381729,0.002592,-0.003105,0.003104
6.04,6.04,0.0,0.0,2.508554976883209,0.0,0.0,-9.38263716,-0.00777933,-2.85381729,0.002592,-0.003105,0.003104
6.05,6.05,0.0,0.0,2.508586016883209,0.0,0.0,-9.38263716,-0.00777933,-2.85381729,0.002592,-0.003105,0.003104
6.0600000000000005,6.0600000000000005,0.0,0.0,2.5086170568832085,0.0,0.0,-9.38263716,-0.00777933,-2.85381729,0.002592,-0.003105,0.003104
6.07,6.07,0.0,0.0,2.508648096883208,0.0,0.0,-9.38263716,-0.00777933,-2.85381729,0.002592,-0.003105,0.003104
6.08,6.08,0.0,0.0,2.5086791368832078,0.0,0.0,-9.38263716,-0.00777933,-2.85381729,0.002592,-0.003105,0.003104
6.09,6.09,0.0,0.0,2.5087101768832074,0.0,0.0,-9.38263716,-0.00777933,-2.85381729,0.002592,-0.003105,0.003104
6.1000000000000005,6.1000000000000005,0.0,0.0,2.508741216883207,0.0,0.0,-9.38263716,-0.00777933,-2.85381729,0.002592,-0.003105,0.003104
6.11,6.11,0.0,0.0,2.5087722568832067,0.0,0.0,-9.38263716,-0.00777933,-2.85381729,0.002592,-0.003105,0.003104
6.12,6.12,0.0,0.0,2.5088032968832064,0.0,0.0,-9.38263716,-0.00777933,-2.85381729,0.002592,-0.003105,0.003104
6.13,6.13,0.0,0.0,2.508834336883206,0.0,0.0,-9.38263716,-0.00777933,-2.85381729,0.002592,-0.003105,0.003104
6.140000000000001,6.140000000000001,0.0,0.0,2.5088653768832057,0.0,0.0,-9.38263716,-0.00777933,-2.85381729,0.002592,-0.003105,0.003104
6.15,6.15,0.0,0.0,2.5088964168832053,0.0,0.0,-9.38263716,-0.00777933,-2.85381729,0.002592,-0.003105,0.003104
6.16,6.16,0.0,0.0,2.508927456883205,0.0,0.0,-9.38263716,-0.00777933,-2.85381729,0.002592,-0.003105,0.003104
6.17,6.17,0.0,0.0,2.5089584968832046,0.0,0.0,-9.38263716,-0.00777933,-2.85381729,0.002592,-0.003105,0.003104
6.18,6.18,0.0,0.0,2.5089895368832043,0.0,0.0,-9.38263716,-0.00777933,-2.85381729,0.002592,-0.003105,0.003104
6.19,6.19,0.0,0.0,2.509020576883204,0.0,0.0,-9.38263716,-0.00777933,-2.85381729,0.002592,-0.003105,0.003104
6.2,6.2,0.0,0.0,2.5090516168832036,0.0,0.0,-9.38263716,-0.00777933,-2.85381729,0.002592,-0.003105,0.003104
6.21,6.21,0.0,0.0,2.509082656883203,0.0,0.0,-9.38263716,-0.00777933,-2.85381729,0.002592,-0.003105,0.003104
6.22,6.22,0.0,0.0,2.509113696883203,0.0,0.0,-9.38263716,-0.00777933,-2.85381729,0.002592,-0.003105,0.003104
6.23,6.23,0.0,0.0,2.5091447368832025,0.0,0.0,-9.38263716,-0.00777933,-2.85381729,0.002592,-0.003105,0.003104
6.24,6.24,0.0,0.0,2.509175776883202,0.0,0.0,-9.38263716,-0.00777933,-2.85381729,0.002592,-0.003105,0.003104
6.25,6.25,0.0,0.0,2.509206816883202,0.0,0.0,-9.38263716,-0.00777933,-2.85381729,0.002592,-0.003105,0.003104
6.26,6.26,0.0,0.0,2.5092378568832014,0.0,0.0,-9.38263716,-0.00777933,-2.85381729,0.002592,-0.003105,0.003104
6.2700000000000005,6.2700000000000005,0.0,0.0,2.509268896883201,0.0,0.0,-9.38263716,-0.00777933,-2.85381729,0.002592,-0.003105,0.003104
6.28,6.28,0.0,0.0,2.4534774057611255,0.0,0.0,-9.38263716,-0.00777933,-2.85381729,0.002592,-0.003105,0.003104
6.29,6.29,0.0,0.0,2.453508398068182,0.0,0.0,-9.38263716,-0.00777933,-2.85381729,0.002592,-0.003105,0.003104
6.3,6.3,0.0,0.0,2.4535393956071676,0.0,0.0,-9.38263716,-0.00777933,-2.85381729,0.002592,-0.003105,0.003104
6.3100000000000005,6.3100000000000005,0.0,0.0,2.4535703977544348,0.0,0.0,-9.38263716,-0.00777933,-2.85381729,0.002592,-0.003105,0.003104
6.32,6.32,0.0,0.0,2.453601403968486,0.0,0.0,-9.38263716,-0.00777933,-2.85381729,0.002592,-0.003105,0.003104
6.33,6.33,0.0,0.0,2.4536324137780223,0.0,0.0,-9.38263716,-0.00777933,-2.85381729,0.002592,-0.003105,0.003104
6.34,6.34,0.0,0.0,2.453663426771879,0.0,0.0,-9.38263716,-0.00777933,-2.85381729,0.002592,-0.003105,0.003104
6.3500000000000005,6.3500000000000005,0.0,0.0,2.4536944425905283,0.0,0.0,-9.38263716,-0.00777933,-2.85381729,0.002592,-0.003105,0.003104
6.36,6.36,0.0,0.0,2.453725460918907,0.0,0.0,-9.38263716,-0.00777933,-2.85381729,0.002592,-0.003105,0.003104
6.37,6.37,0.0,0.0,2.453756481480319,0.0,0.0,-9.38263716,-0.00777933,-2.85381729,0.002592,-0.003105,0.003104
6.38,6.38,0.0,0.0,2.4537875040312667,0.0,0.0,-9.38263716,-0.00777933,-2.85381729,0.002592,-0.003105,0.003104
6.390000000000001,6.390000000000001,0.0,0.0,2.453818528357048,0.0,0.0,-9.38263716,-0.00777933,-2.85381729,0.002592,-0.003105,0.003104
6.4,6.4,0.0,0.0,2.453849554267995,0.0,0.0,-9.38263716,-0.00777933,-2.85381729,0.002592,-0.003105,0.003104
6.41,6.41,0.0,0.0,2.453880581596258,0.0,0.0,-9.38263716,-0.00777933,-2.85381729,0.002592,-0.003105,0.003104
6.42,6.42,0.0,0.0,2.453911610193046,0.0,0.0,-9.38263716,-0.00777933,-2.85381729,0.002592,-0.003105,0.003104
6.43,6.43,0.0,0.0,2.4539426399262503,0.0,0.0,-9.38263716,-0.00777933,-2.85381729,0.002592,-0.003105,0.003104
6.44,6.44,0.0,0.0,2.453973670678404,0.0,0.0,-9.38263716,-0.00777933,-2.85381729,0.002592,-0.003105,0.003104
6.45,6.45,0.0,0.0,2.4540047023449105,0.0,0.0,-9.38263716,-0.00777933,-2.85381729,0.002592,-0.003105,0.003104
6.46,6.46,0.0,0.0,2.454035734832515,0.0,0.0,-9.38263716,-0.00777933,-2.85381729,0.002592,-0.003105,0.003104
6.47,6.47,0.0,0.0,2.4540667680579666,0.0,0.0,-9.38263716,-0.00777933,-2.85381729,0.002592,-0.003105,0.003104
6.48,6.48,0.0,0.0,2.4540978019468707,0.0,0.0,-9.38263716,-0.00777933,-2.85381729,0.002592,-0.003105,0.003104
6.49,6.49,0.0,0.0,2.454128836432668,0.0,0.0,-9.38263716,-0.00777933,-2.85381729,0.002592,-0.003105,0.003104
6.5,6.5,0.0,0.0,2.454159871455756,0.0,0.0,-9.38263716,-0.00777933,-2.85381729,0.002592,-0.003105,0.003104
6.51,6.51,0.0,0.0,2.4541909069627152,0.0,0.0,-9.38263716,-0.00777933,-2.85381729,0.002592,-0.003105,0.003104
6.5200000000000005,6.5200000000000005,0.0,0.0,2.4542219429056242,0.0,0.0,-9.38263716,-0.00777933,-2.85381729,0.002592,-0.003105,0.003104
6.53,6.53,0.0,0.0,2.454252979241465,0.0,0.0,-9.38263716,-0.00777933,-2.85381729,0.002592,-0.003105,0.003104
6.54,6.54,0.0,0.0,2.4542840159315915,0.0,0.0,-9.38263716,-0.00777933,-2.85381729,0.002592,-0.003105,0.003104
6.55,6.55,0.0,0.0,2.454315052941263,0.0,0.0,-9.38263716,-0.00777933,-2.85381729,0.002592,-0.003105,0.003104
6.5600000000000005,6.5600000000000005,0.0,0.0,2.454346090239233,0.0,0.0,-9.38263716,-0.00777933,-2.85381729,0.002592,-0.003105,0.003104
6.57,6.57,0.0,0.0,2.4543771277973807,0.0,0.0,-9.38263716,-0.00777933,-2.85381729,0.002592,-0.003105,0.003104
6.58,6.58,0.0,0.0,2.454408165590385,0.0,0.0,-9.38263716,-0.00777933,-2.85381729,0.002592,-0.003105,0.003104
6.59,6.59,0.0,0.0,2.45443920359544,0.0,0.0,-9.38263716,-0.00777933,-2.85381729,0.002592,-0.003105,0.003104
6.6000000000000005,6.6000000000000005,0.0,0.0,2.4544702417919897,0.0,0.0,-9.38263716,-0.00777933,-2.85381729,0.002592,-0.003105,0.003104
6.61,6.61,0.0,0.0,2.454501280161508,0.0,0.0,-9.38263716,-0.00777933,-2.85381729,0.002592,-0.003105,0.003104
6.62,6.62,0.0,0.0,2.454532318687283,0.0,0.0,-9.38263716,-0.00777933,-2.85381729,0.002592,-0.003105,0.003104
6.63,6.63,0.0,0.0,2.4545633573542425,0.0,0.0,-9.38263716,-0.00777933,-2.85381729,0.002592,-0.003105,0.003104
6.640000000000001,6.640000000000001,0.0,0.0,2.454594396148784,0.0,0.0,-9.38263716,-0.00777933,-2.85381729,0.002592,-0.003105,0.003104
6.65,6.65,0.0,0.0,2.454625435058631,0.0,0.0,-9.38263716,-0.00777933,-2.85381729,0.002592,-0.003105,0.003104
6.66,6.66,0.0,0.0,2.4546564740726993,0.0,0.0,-9.38263716,-0.00777933,-2.85381729,0.002592,-0.003105,0.003104
6.67,6.67,0.0,0.0,2.45468751318098,0.0,0.0,-9.38263716,-0.00777933,-2.85381729,0.002592,-0.003105,0.003104
6.68,6.68,0.0,0.0,2.454718552374435,0.0,0.0,-9.38263716,-0.00777933,-2.85381729,0.002592,-0.003105,0.003104
6.69,6.69,0.0,0.0,2.4547495916448963,0.0,0.0,-9.38263716,-0.00777933,-2.85381729,0.002592,-0.003105,0.003104
6.7,6.7,0.0,0.0,2.45478063098499,0.0,0.0,-9.38263716,-0.00777933,-2.85381729,0.002592,-0.003105,0.003104
6.71,6.71,0.0,0.0,2.4548116703880494,0.0,0.0,-9.38263716,-0.00777933,-2.85381729,0.002592,-0.003105,0.003104
6.72,6.72,0.0,0.0,2.454842709848048,0.0,0.0,-9.38263716,-0.00777933,-2.85381729,0.002592,-0.003105,0.003104
6.73,6.73,0.0,0.0,2.4548737493595443,0.0,0.0,-9.38263716,-0.00777933,-2.85381729,0.002592,-0.003105,0.003104
6.74,6.74,0.0,0.0,2.454904788917614,0.0,0.0,-9.38263716,-0.00777933,-2.85381729,0.002592,-0.003105,0.003104
6.75,6.75,0.0,0.0,2.454935828517808,0.0,0.0,-9.38263716,-0.00777933,-2.85381729,0.002592,-0.003105,0.003104
6.76,6.76,0.0,0.0,2.454966868156104,0.0,0.0,-9.38263716,-0.00777933,-2.85381729,0.002592,-0.003105,0.003104
6.7700000000000005,6.7700000000000005,0.0,0.0,2.454997907828866,0.0,0.0,-9.38263716,-0.00777933,-2.85381729,0.002592,-0.003105,0.003104
6.78,6.78,0.0,0.0,2.455028947532803,0.0,0.0,-9.38263716,-0.00777933,-2.85381729,0.002592,-0.003105,0.003104
6.79,6.79,0.0,0.0,2.4550599872649412,0.0,0.0,-9.38263716,-0.00777933,-2.85381729,0.002592,-0.003105,0.003104
6.8,6.8,0.0,0.0,2.4550910270225916,0.0,0.0,-9.38263716,-0.00777933,-2.85381729,0.002592,-0.003105,0.003104
6.8100000000000005,6.8100000000000005,0.0,0.0,2.4551220668033213,0.0,0.0,-9.38263716,-0.00777933,-2.85381729,0.002592,-0.003105,0.003104
6.82,6.82,0.0,0.0,2.4551531066049304,0.0,0.0,-9.38263716,-0.00777933,-2.85381729,0.002592,-0.003105,0.003104
6.83,6.83,0.0,0.0,2.455184146425429,0.0,0.0,-9.38263716,-0.00777933,-2.85381729,0.002592,-0.003105,0.003104
6.84,6.84,0.0,0.0,2.4552151862630165,0.0,0.0,-9.38263716,-0.00777933,-2.85381729,0.002592,-0.003105,0.003104
6.8500000000000005,6.8500000000000005,0.0,0.0,2.4552462261160652,0.0,0.0,-9.38263716,-0.00777933,-2.85381729,0.002592,-0.003105,0.003104
6.86,6.86,0.0,0.0,2.455277265983103,0.0,0.0,-9.38263716,-0.00777933,-2.85381729,0.002592,-0.003105,0.003104
6.87,6.87,0.0,0.0,2.455308305862796,0.0,0.0,-9.38263716,-0.00777933,-2.85381729,0.002592,-0.003105,0.003104
6.88,6.88,0.0,0.0,2.4553393457539396,0.0,0.0,-9.38263716,-0.00777933,-2.85381729,0.002592,-0.003105,0.003104
6.890000000000001,6.890000000000001,0.0,0.0,2.455370385655444,0.0,0.0,-9.38263716,-0.00777933,-2.85381729,0.002592,-0.003105,0.003104
6.9,6.9,0.0,0.0,2.455401425566321,0.0,0.0,-9.38263716,-0.00777933,-2.85381729,0.002592,-0.003105,0.003104
6.91,6.91,0.0,0.0,2.4554324654856794,0.0,0.0,-9.38263716,-0.00777933,-2.85381729,0.002592,-0.003105,0.003104
6.92,6.92,0.0,0.0,2.4554635054127116,0.0,0.0,-9.38263716,-0.00777933,-2.85381729,0.002592,-0.003105,0.003104
6.93,6.93,0.0,0.0,2.4554945453466885,0.0,0.0,-9.38263716,-0.00777933,-2.85381729,0.002592,-0.003105,0.003104
6.94,6.94,0.0,0.0,2.4555255852869475,0.0,0.0,-9.38263716,-0.00777933,-2.85381729,0.002592,-0.003105,0.003104
6.95,6.95,0.0,0.0,2.455556625232891,0.0,0.0,-9.38263716,-0.00777933,-2.85381729,0.002592,-0.003105,0.003104
6.96,6.96,0.0,0.0,2.4555876651839785,0.0,0.0,-9.38263716,-0.00777933,-2.85381729,0.002592,-0.003105,0.003104
6.97,6.97,0.0,0.0,2.4556187051397202,0.0,0.0,-9.38263716,-0.00777933,-2.85381729,0.002592,-0.003105,0.003104
6.98,6.98,0.0,0.0,2.455649745099672,0.0,0.0,-9.38263716,-0.00777933,-2.85381729,0.002592,-0.003105,0.003104
6.99,6.99,0.0,0.0,2.455680785063434,0.0,0.0,-9.38263716,-0.00777933,-2.85381729,0.002592,-0.003105,0.003104
7.0,7.0,0.0,0.0,2.455711825030644,0.0,0.0,-9.38263716,-0.00777933,-2.85381729,0.002592,-0.003105,0.003104
7.01,7.01,0.0,0.0,2.455742865000973,0.0,0.0,-9.38263716,-0.00777933,-2.85381729,0.002592,-0.003105,0.003104
7.0200000000000005,7.0200000000000005,0.0,0.0,2.4557739049741247,0.0,0.0,-9.38263716,-0.00777933,-2.85381729,0.002592,-0.003105,0.003104
7.03,7.03,0.0,0.0,2.455804944949831,0.0,0.0,-9.38263716,-0.00777933,-2.85381729,0.002592,-0.003105,0.003104
7.04,7.04,0.0,0.0,2.455835984927848,0.0,0.0,-9.38263716,-0.00777933,-2.85381729,0.002592,-0.003105,0.003104
7.05,7.05,0.0,0.0,2.455867024907957,0.0,0.0,-9.38263716,-0.00777933,-2.85381729,0.002592,-0.003105,0.003104
7.0600000000000005,7.0600000000000005,0.0,0.0,2.4558980648899578,0.0,0.0,-9.38263716,-0.00777933,-2.85381729,0.002592,-0.003105,0.003104
7.07,7.07,0.0,0.0,2.455929104873671,0.0,0.0,-9.38263716,-0.00777933,-2.85381729,0.002592,-0.003105,0.003104
7.08,7.08,0.0,0.0,2.455960144858933,0.0,0.0,-9.38263716,-0.00777933,-2.85381729,0.002592,-0.003105,0.003104
7.09,7.09,0.0,0.0,2.4559911848455975,0.0,0.0,-9.38263716,-0.00777933,-2.85381729,0.002592,-0.003105,0.003104
7.1000000000000005,7.1000000000000005,0.0,0.0,2.4560222248335304,0.0,0.0,-9.38263716,-0.00777933,-2.85381729,0.002592,-0.003105,0.003104
7.11,7.11,0.0,0.0,2.4560532648226117,0.0,0.0,-9.38263716,-0.00777933,-2.85381729,0.002592,-0.003105,0.003104
7.12,7.12,0.0,0.0,2.456084304812732,0.0,0.0,-9.38263716,-0.00777933,-2.85381729,0.002592,-0.003105,0.003104
7.13,7.13,0.0,0.0,2.456115344803793,0.0,0.0,-9.38263716,-0.00777933,-2.85381729,0.002592,-0.003105,0.003104
7.140000000000001,7.140000000000001,0.0,0.0,2.4561463847957032,0.0,0.0,-9.38263716,-0.00777933,-2.85381729,0.002592,-0.003105,0.003104
7.15,7.15,0.0,0.0,2.4561774247883825,0.0,0.0,-9.38263716,-0.00777933,-2.85381729,0.002592,-0.003105,0.003104
7.16,7.16,0.0,0.0,2.456208464781759,0.0,0.0,-9.38263716,-0.00777933,-2.85381729,0.002592,-0.003105,0.003104
7.17,7.17,0.0,0.0,2.4562395047757652,0.0,0.0,-9.38263716,-0.00777933,-2.85381729,0.002592,-0.003105,0.003104
7.18,7.18,0.0,0.0,2.456270544770341,0.0,0.0,-9.38263716,-0.00777933,-2.85381729,0.002592,-0.003105,0.003104
7.19,7.19,0.0,0.0,2.456301584765434,0.0,0.0,-9.38263716,-0.00777933,-2.85381729,0.002592,-0.003105,0.003104
7.2,7.2,0.0,0.0,2.456332624760993,0.0,0.0,-9.38263716,-0.00777933,-2.85381729,0.002592,-0.003105,0.003104
7.21,7.21,0.0,0.0,2.4563636647569744,0.0,0.0,-9.38263716,-0.00777933,-2.85381729,0.002592,-0.003105,0.003104
7.22,7.22,0.0,0.0,2.456394704753338,0.0,0.0,-9.38263716,-0.00777933,-2.85381729,0.002592,-0.003105,0.003104
7.23,7.23,0.0,0.0,2.4564257447500477,0.0,0.0,-9.38263716,-0.00777933,-2.85381729,0.002592,-0.003105,0.003104
7.24,7.24,0.0,0.0,2.45645678474707,0.0,0.0,-9.38263716,-0.00777933,-2.85381729,0.002592,-0.003105,0.003104
7.25,7.25,0.0,0.0,2.456487824744377,0.0,0.0,-9.38263716,-0.00777933,-2.85381729,0.002592,-0.003105,0.003104
7.26,7.26,0.0,0.0,2.4565188647419394,0.0,0.0,-9.38263716,-0.00777933,-2.85381729,0.002592,-0.003105,0.003104
7.2700000000000005,7.2700000000000005,0.0,0.0,2.456549904739733,0.0,0.0,-9.38263716,-0.00777933,-2.85381729,0.002592,-0.003105,0.003104
7.28,7.28,0.0,0.0,2.4565809447377367,0.0,0.0,-9.38263716,-0.00777933,-2.85381729,0.002592,-0.003105,0.003104
7.29,7.29,0.0,0.0,2.4566119847359307,0.0,0.0,-9.38263716,-0.00777933,-2.85381729,0.002592,-0.003105,0.003104
7.3,7.3,0.0,0.0,2.456643024734296,0.0,0.0,-9.38263716,-0.00777933,-2.85381729,0.002592,-0.003105,0.003104
7.3100000000000005,7.3100000000000005,0.0,0.0,2.456674064732818,0.0,0.0,-9.38263716,-0.00777933,-2.85381729,0.002592,-0.003105,0.003104
7.32,7.32,0.0,0.0,2.45670510473148,0.0,0.0,-9.38263716,-0.00777933,-2.85381729,0.002592,-0.003105,0.003104
7.33,7.33,0.0,0.0,2.456736144730268,0.0,0.0,-9.38263716,-0.00777933,-2.85381729,0.002592,-0.003105,0.003104
7.34,7.34,0.0,0.0,2.4567671847291725,0.0,0.0,-9.38263716,-0.00777933,-2.85381729,0.002592,-0.003105,0.003104
7.3500000000000005,7.3500000000000005,0.0,0.0,2.45679822472818,0.0,0.0,-9.38263716,-0.00777933,-2.85381729,0.002592,-0.003105,0.003104
7.36,7.36,0.0,0.0,2.4568292647272827,0.0,0.0,-9.38263716,-0.00777933,-2.85381729,0.002592,-0.003105,0.003104
7.37,7.37,0.0,0.0,2.4568603047264705,0.0,0.0,-9.38263716,-0.00777933,-2.85381729,0.002592,-0.003105,0.003104
7.38,7.38,0.0,0.0,2.4568913447257366,0.0,0.0,-9.38263716,-0.00777933,-2.85381729,0.002592,-0.003105,0.003104
7.390000000000001,7.390000000000001,0.0,0.0,2.456922384725072,0.0,0.0,-9.38263716,-0.00777933,-2.85381729,0.002592,-0.003105,0.003104
7.4,7.4,0.0,0.0,2.456953424724471,0.0,0.0,-9.38263716,-0.00777933,-2.85381729,0.002592,-0.003105,0.003104
7.41,7.41,0.0,0.0,2.4569844647239263,0.0,0.0,-9.38263716,-0.00777933,-2.85381729,0.002592,-0.003105,0.003104
7.42,7.42,0.0,0.0,2.457015504723433,0.0,0.0,-9.38263716,-0.00777933,-2.85381729,0.002592,-0.003105,0.003104
7.43,7.43,0.0,0.0,2.4570465447229877,0.0,0.0,-9.38263716,-0.00777933,-2.85381729,0.002592,-0.003105,0.003104
7.44,7.44,0.0,0.0,2.457077584722584,0.0,0.0,-9.38263716,-0.00777933,-2.85381729,0.002592,-0.003105,0.003104
7.45,7.45,0.0,0.0,2.4571086247222187,0.0,0.0,-9.38263716,-0.00777933,-2.85381729,0.002592,-0.003105,0.003104
7.46,7.46,0.0,0.0,2.457139664721888,0.0,0.0,-9.38263716,-0.00777933,-2.85381729,0.002592,-0.003105,0.003104
7.47,7.47,0.0,0.0,2.457170704721589,0.0,0.0,-9.38263716,-0.00777933,-2.85381729,0.002592,-0.003105,0.003104
7.48,7.48,0.0,0.0,2.457201744721319,0.0,0.0,-9.38263716,-0.00777933,-2.85381729,0.002592,-0.003105,0.003104
7.49,7.49,0.0,0.0,2.457232784721074,0.0,0.0,-9.38263716,-0.00777933,-2.85381729,0.002592,-0.003105,0.003104
7.5,7.5,0.0,0.0,2.4572638247208536,0.0,0.0,-9.38263716,-0.00777933,-2.85381729,0.002592,-0.003105,0.003104
7.51,7.51,0.0,0.0,2.4572948647206534,0.0,0.0,-9.38263716,-0.00777933,-2.85381729,0.002592,-0.003105,0.003104
7.5200000000000005,7.5200000000000005,0.0,0.0,2.457325904720472,0.0,0.0,-9.38263716,-0.00777933,-2.85381729,0.002592,-0.003105,0.003104
7.53,7.53,0.0,0.0,2.457356944720308,0.0,0.0,-9.38263716,-0.00777933,-2.85381729,0.002592,-0.003105,0.003104
7.54,7.54,0.0,0.0,2.4573879847201603,0.0,0.0,-9.38263716,-0.00777933,-2.85381729,0.002592,-0.003105,0.003104
7.55,7.55,0.0,0.0,2.4574190247200267,0.0,0.0,-9.38263716,-0.00777933,-2.85381729,0.002592,-0.003105,0.003104
7.5600000000000005,7.5600000000000005,0.0,0.0,2.4574500647199056,0.0,0.0,-9.38263716,-0.00777933,-2.85381729,0.002592,-0.003105,0.003104
7.57,7.57,0.0,0.0,2.457481104719795,0.0,0.0,-9.38263716,-0.00777933,-2.85381729,0.002592,-0.003105,0.003104
7.58,7.58,0.0,0.0,2.4575121447196953,0.0,0.0,-9.38263716,-0.00777933,-2.85381729,0.002592,-0.003105,0.003104
7.59,7.59,0.0,0.0,2.457543184719606,0.0,0.0,-9.38263716,-0.00777933,-2.85381729,0.002592,-0.003105,0.003104
7.6000000000000005,7.6000000000000005,0.0,0.0,2.457574224719524,0.0,0.0,-9.38263716,-0.00777933,-2.85381729,0.002592,-0.003105,0.003104
7.61,7.61,0.0,0.0,2.457605264719451,0.0,0.0,-9.38263716,-0.00777933,-2.85381729,0.002592,-0.003105,0.003104
7.62,7.62,0.0,0.0,2.4576363047193848,0.0,0.0,-9.38263716,-0.00777933,-2.85381729,0.002592,-0.003105,0.003104
7.63,7.63,0.0,0.0,2.457667344719324,0.0,0.0,-9.38263716,-0.00777933,-2.85381729,0.002592,-0.003105,0.003104
7.640000000000001,7.640000000000001,0.0,0.0,2.4576983847192695,0.0,0.0,-9.38263716,-0.00777933,-2.85381729,0.002592,-0.003105,0.003104
7.65,7.65,0.0,0.0,2.4577294247192203,0.0,0.0,-9.38263716,-0.00777933,-2.85381729,0.002592,-0.003105,0.003104
7.66,7.66,0.0,0.0,2.4577604647191755,0.0,0.0,-9.38263716,-0.00777933,-2.85381729,0.002592,-0.003105,0.003104
7.67,7.67,0.0,0.0,2.457791504719136,0.0,0.0,-9.38263716,-0.00777933,-2.85381729,0.002592,-0.003105,0.003104
7.68,7.68,0.0,0.0,2.4578225447190993,0.0,0.0,-9.38263716,-0.00777933,-2.85381729,0.002592,-0.003105,0.003104
7.69,7.69,0.0,0.0,2.457853584719066,0.0,0.0,-9.38263716,-0.00777933,-2.85381729,0.002592,-0.003105,0.003104
7.7,7.7,0.0,0.0,2.4578846247190365,0.0,0.0,-9.38263716,-0.00777933,-2.85381729,0.002592,-0.003105,0.003104
7.71,7.71,0.0,0.0,2.4579156647190086,0.0,0.0,-9.38263716,-0.00777933,-2.85381729,0.002592,-0.003105,0.003104
7.72,7.72,0.0,0.0,2.4579467047189842,0.0,0.0,-9.38263716,-0.00777933,-2.85381729,0.002592,-0.003105,0.003104
7.73,7.73,0.0,0.0,2.4579777447189617,0.0,0.0,-9.38263716,-0.00777933,-2.85381729,0.002592,-0.003105,0.003104
7.74,7.74,0.0,0.0,2.458008784718942,0.0,0.0,-9.38263716,-0.00777933,-2.85381729,0.002592,-0.003105,0.003104
7.75,7.75,0.0,0.0,2.4580398247189237,0.0,0.0,-9.38263716,-0.00777933,-2.85381729,0.002592,-0.003105,0.003104
7.76,7.76,0.0,0.0,2.4580708647189073,0.0,0.0,-9.38263716,-0.00777933,-2.85381729,0.002592,-0.003105,0.003104
7.7700000000000005,7.7700000000000005,0.0,0.0,2.458101904718893,0.0,0.0,-9.38263716,-0.00777933,-2.85381729,0.002592,-0.003105,0.003104
7.78,7.78,0.0,0.0,2.45813294471888,0.0,0.0,-9.38263716,-0.00777933,-2.85381729,0.002592,-0.003105,0.003104
7.79,7.79,0.0,0.0,2.458163984718867,0.0,0.0,-9.38263716,-0.00777933,-2.85381729,0.002592,-0.003105,0.003104
7.8,7.8,0.0,0.0,2.458195024718856,0.0,0.0,-9.38263716,-0.00777933,-2.85381729,0.002592,-0.003105,0.003104
7.8100000000000005,7.8100000000000005,0.0,0.0,2.458226064718846,0.0,0.0,-9.38263716,-0.00777933,-2.85381729,0.002592,-0.003105,0.003104
7.82,7.82,0.0,0.0,2.458257104718837,0.0,0.0,-9.38263716,-0.00777933,-2.85381729,0.002592,-0.003105,0.003104
7.83,7.83,0.0,0.0,2.4582881447188285,0.0,0.0,-9.38263716,-0.00777933,-2.85381729,0.002592,-0.003105,0.003104
7.84,7.84,0.0,0.0,2.458319184718821,0.0,0.0,-9.38263716,-0.00777933,-2.85381729,0.002592,-0.003105,0.003104
7.8500000000000005,7.8500000000000005,0.0,0.0,2.4583502247188136,0.0,0.0,-9.38263716,-0.00777933,-2.85381729,0.002592,-0.003105,0.003104
7.86,7.86,0.0,0.0,2.458381264718807,0.0,0.0,-9.38263716,-0.00777933,-2.85381729,0.002592,-0.003105,0.003104
7.87,7.87,0.0,0.0,2.4584123047188005,0.0,0.0,-9.38263716,-0.00777933,-2.85381729,0.002592,-0.003105,0.003104
7.88,7.88,0.0,0.0,2.4584433447187957,0.0,0.0,-9.38263716,-0.00777933,-2.85381729,0.002592,-0.003105,0.003104
7.890000000000001,7.890000000000001,0.0,0.0,2.458474384718791,0.0,0.0,-9.38263716,-0.00777933,-2.85381729,0.002592,-0.003105,0.003104
7.9,7.9,0.0,0.0,2.458505424718787,0.0,0.0,-9.38263716,-0.00777933,-2.85381729,0.002592,-0.003105,0.003104
7.91,7.91,0.0,0.0,2.458536464718783,0.0,0.0,-9.38263716,-0.00777933,-2.85381729,0.002592,-0.003105,0.003104
7.92,7.92,0.0,0.0,2.458567504718779,0.0,0.0,-9.38263716,-0.00777933,-2.85381729,0.002592,-0.003105,0.003104
7.930000000000001,7.930000000000001,0.0,0.0,2.458598544718776,0.0,0.0,-9.38263716,-0.00777933,-2.85381729,0.002592,-0.003105,0.003104
7.94,7.94,0.0,0.0,2.458629584718773,0.0,0.0,-9.38263716,-0.00777933,-2.85381729,0.002592,-0.003105,0.003104
7.95,7.95,0.0,0.0,2.458660624718771,0.0,0.0,-9.38263716,-0.00777933,-2.85381729,0.002592,-0.003105,0.003104
7.96,7.96,0.0,0.0,2.458691664718769,0.0,0.0,-9.38263716,-0.00777933,-2.85381729,0.002592,-0.003105,0.003104
7.97,7.97,0.0,0.0,2.4587227047187667,0.0,0.0,-9.38263716,-0.00777933,-2.85381729,0.002592,-0.003105,0.003104
7.98,7.98,0.0,0.0,2.4587537447187646,0.0,0.0,-9.38263716,-0.00777933,-2.85381729,0.002592,-0.003105,0.003104
7.99,7.99,0.0,0.0,2.4587847847187625,0.0,0.0,-9.38263716,-0.00777933,-2.85381729,0.002592,-0.003105,0.003104
8.0,8.0,0.0,0.0,2.4588158247187604,0.0,0.0,-9.38263716,-0.00777933,-2.85381729,0.002592,-0.003105,0.003104
8.01,8.01,0.0,0.0,2.4588468647187582,0.0,0.0,-9.38263716,-0.00777933,-2.85381729,0.002592,-0.003105,0.003104
8.02,8.02,0.0,0.0,2.458877904718757,0.0,0.0,-9.38263716,-0.00777933,-2.85381729,0.002592,-0.003105,0.003104
8.03,8.03,0.0,0.0,2.4589089447187558,0.0,0.0,-9.38263716,-0.00777933,-2.85381729,0.002592,-0.003105,0.003104
8.040000000000001,8.040000000000001,0.0,0.0,2.4589399847187536,0.0,0.0,-9.38263716,-0.00777933,-2.85381729,0.002592,-0.003105,0.003104
8.05,8.05,0.0,0.0,2.4589710247187533,0.0,0.0,-9.38263716,-0.00777933,-2.85381729,0.002592,-0.003105,0.003104
8.06,8.06,0.0,0.0,2.459002064718752,0.0,0.0,-9.38263716,-0.00777933,-2.85381729,0.002592,-0.003105,0.003104
8.07,8.07,0.0,0.0,2.459033104718751,0.0,0.0,-9.38263716,-0.00777933,-2.85381729,0.002592,-0.003105,0.003104
8.08,8.08,0.0,0.0,2.4590641447187496,0.0,0.0,-9.38263716,-0.00777933,-2.85381729,0.002592,-0.003105,0.003104
8.09,8.09,0.0,0.0,2.4590951847187483,0.0,0.0,-9.38263716,-0.00777933,-2.85381729,0.002592,-0.003105,0.003104
8.1,8.1,0.0,0.0,2.459126224718748,0.0,0.0,-9.38263716,-0.00777933,-2.85381729,0.002592,-0.003105,0.003104
8.11,8.11,0.0,0.0,2.4591572647187476,0.0,0.0,-9.38263716,-0.00777933,-2.85381729,0.002592,-0.003105,0.003104
8.120000000000001,8.120000000000001,0.0,0.0,2.4591883047187473,0.0,0.0,-9.38263716,-0.00777933,-2.85381729,0.002592,-0.003105,0.003104
8.13,8.13,0.0,0.0,2.459219344718747,0.0,0.0,-9.38263716,-0.00777933,-2.85381729,0.002592,-0.003105,0.003104
8.14,8.14,0.0,0.0,2.4592503847187466,0.0,0.0,-9.38263716,-0.00777933,-2.85381729,0.002592,-0.003105,0.003104
8.15,8.15,0.0,0.0,2.4592814247187462,0.0,0.0,-9.38263716,-0.00777933,-2.85381729,0.002592,-0.003105,0.003104
8.16,8.16,0.0,0.0,2.459312464718746,0.0,0.0,-9.38263716,-0.00777933,-2.85381729,0.002592,-0.003105,0.003104
8.17,8.17,0.0,0.0,2.4593435047187455,0.0,0.0,-9.38263716,-0.00777933,-2.85381729,0.002592,-0.003105,0.003104
8.18,8.18,0.0,0.0,2.459374544718745,0.0,0.0,-9.38263716,-0.00777933,-2.85381729,0.002592,-0.003105,0.003104
8.19,8.19,0.0,0.0,2.459405584718745,0.0,0.0,-9.38263716,-0.00777933,-2.85381729,0.002592,-0.003105,0.003104
8.2,8.2,0.0,0.0,2.4594366247187445,0.0,0.0,-9.38263716,-0.00777933,-2.85381729,0.002592,-0.003105,0.003104
8.21,8.21,0.0,0.0,2.459467664718744,0.0,0.0,-9.38263716,-0.00777933,-2.85381729,0.002592,-0.003105,0.003104
8.22,8.22,0.0,0.0,2.4594987047187438,0.0,0.0,-9.38263716,-0.00777933,-2.85381729,0.002592,-0.003105,0.003104
8.23,8.23,0.0,0.0,2.4595297447187434,0.0,0.0,-9.38263716,-0.00777933,-2.85381729,0.002592,-0.003105,0.003104
8.24,8.24,0.0,0.0,2.459560784718743,0.0,0.0,-9.38263716,-0.00777933,-2.85381729,0.002592,-0.003105,0.003104
8.25,8.25,0.0,0.0,2.4595918247187427,0.0,0.0,-9.38263716,-0.00777933,-2.85381729,0.002592,-0.003105,0.003104
8.26,8.26,0.0,0.0,2.4596228647187424,0.0,0.0,-9.38263716,-0.00777933,-2.85381729,0.002592,-0.003105,0.003104
8.27,8.27,0.0,0.0,2.459653904718742,0.0,0.0,-9.38263716,-0.00777933,-2.85381729,0.002592,-0.003105,0.003104
8.28,8.28,0.0,0.0,2.4596849447187425,0.0,0.0,-9.38263716,-0.00777933,-2.85381729,0.002592,-0.003105,0.003104
8.290000000000001,8.290000000000001,0.0,0.0,2.459715984718742,0.0,0.0,-9.38263716,-0.00777933,-2.85381729,0.002592,-0.003105,0.003104
8.3,8.3,0.0,0.0,2.459747024718742,0.0,0.0,-9.38263716,-0.00777933,-2.85381729,0.002592,-0.003105,0.003104
8.31,8.31,0.0,0.0,2.4597780647187406,0.0,0.0,-9.38263716,-0.00777933,-2.85381729,0.002592,-0.003105,0.003104
8.32,8.32,0.0,0.0,2.4598091047187403,0.0,0.0,-9.38263716,-0.00777933,-2.85381729,0.002592,-0.003105,0.003104
8.33,8.33,0.0,0.0,2.45984014471874,0.0,0.0,-9.38263716,-0.00777933,-2.85381729,0.002592,-0.003105,0.003104
8.34,8.34,0.0,0.0,2.4598711847187396,0.0,0.0,-9.38263716,-0.00777933,-2.85381729,0.002592,-0.003105,0.003104
8.35,8.35,0.0,0.0,2.459902224718739,0.0,0.0,-9.38263716,-0.00777933,-2.85381729,0.002592,-0.003105,0.003104
8.36,8.36,0.0,0.0,2.459933264718739,0.0,0.0,-9.38263716,-0.00777933,-2.85381729,0.002592,-0.003105,0.003104
8.370000000000001,8.370000000000001,0.0,0.0,2.4599643047187385,0.0,0.0,-9.38263716,-0.00777933,-2.85381729,0.002592,-0.003105,0.003104
8.38,8.38,0.0,0.0,2.459995344718738,0.0,0.0,-9.38263716,-0.00777933,-2.85381729,0.002592,-0.003105,0.003104
8.39,8.39,0.0,0.0,2.460026384718738,0.0,0.0,-9.38263716,-0.00777933,-2.85381729,0.002592,-0.003105,0.003104
8.4,8.4,0.0,0.0,2.4600574247187375,0.0,0.0,-9.38263716,-0.00777933,-2.85381729,0.002592,-0.003105,0.003104
8.41,8.41,0.0,0.0,2.460088464718737,0.0,0.0,-9.38263716,-0.00777933,-2.85381729,0.002592,-0.003105,0.003104
8.42,8.42,0.0,0.0,2.4601195047187367,0.0,0.0,-9.38263716,-0.00777933,-2.85381729,0.002592,-0.003105,0.003104
8.43,8.43,0.0,0.0,2.4601505447187364,0.0,0.0,-9.38263716,-0.00777933,-2.85381729,0.002592,-0.003105,0.003104
8.44,8.44,0.0,0.0,2.460181584718736,0.0,0.0,-9.38263716,-0.00777933,-2.85381729,0.002592,-0.003105,0.003104
8.45,8.45,0.0,0.0,2.4602126247187357,0.0,0.0,-9.38263716,-0.00777933,-2.85381729,0.002592,-0.003105,0.003104
8.46,8.46,0.0,0.0,2.4602436647187353,0.0,0.0,-9.38263716,-0.00777933,-2.85381729,0.002592,-0.003105,0.003104
8.47,8.47,0.0,0.0,2.460274704718735,0.0,0.0,-9.38263716,-0.00777933,-2.85381729,0.002592,-0.003105,0.003104
8.48,8.48,0.0,0.0,2.4603057447187346,0.0,0.0,-9.38263716,-0.00777933,-2.85381729,0.002592,-0.003105,0.003104
8.49,8.49,0.0,0.0,2.4603367847187343,0.0,0.0,-9.38263716,-0.00777933,-2.85381729,0.002592,-0.003105,0.003104
8.5,8.5,0.0,0.0,2.460367824718734,0.0,0.0,-9.38263716,-0.00777933,-2.85381729,0.002592,-0.003105,0.003104
8.51,8.51,0.0,0.0,2.4603988647187336,0.0,0.0,-9.38263716,-0.00777933,-2.85381729,0.002592,-0.003105,0.003104
8.52,8.52,0.0,0.0,2.4604299047187332,0.0,0.0,-9.38263716,-0.00777933,-2.85381729,0.002592,-0.003105,0.003104
8.53,8.53,0.0,0.0,2.460460944718733,0.0,0.0,-9.38263716,-0.00777933,-2.85381729,0.002592,-0.003105,0.003104
8.540000000000001,8.540000000000001,0.0,0.0,2.4604919847187325,0.0,0.0,-9.38263716,-0.00777933,-2.85381729,0.002592,-0.003105,0.003104
8.55,8.55,0.0,0.0,2.460523024718732,0.0,0.0,-9.38263716,-0.00777933,-2.85381729,0.002592,-0.003105,0.003104
8.56,8.56,0.0,0.0,2.460554064718732,0.0,0.0,-9.38263716,-0.00777933,-2.85381729,0.002592,-0.003105,0.003104
8.57,8.57,0.0,0.0,2.4605851047187315,0.0,0.0,-9.38263716,-0.00777933,-2.85381729,0.002592,-0.003105,0.003104
8.58,8.58,0.0,0.0,2.460616144718731,0.0,0.0,-9.38263716,-0.00777933,-2.85381729,0.002592,-0.003105,0.003104
8.59,8.59,0.0,0.0,2.460647184718731,0.0,0.0,-9.38263716,-0.00777933,-2.85381729,0.002592,-0.003105,0.003104
8.6,8.6,0.0,0.0,2.4606782247187304,0.0,0.0,-9.38263716,-0.00777933,-2.85381729,0.002592,-0.003105,0.003104
8.61,8.61,0.0,0.0,2.46070926471873,0.0,0.0,-9.38263716,-0.00777933,-2.85381729,0.002592,-0.003105,0.003104
8.620000000000001,8.620000000000001,0.0,0.0,2.4607403047187297,0.0,0.0,-9.38263716,-0.00777933,-2.85381729,0.002592,-0.003105,0.003104
8.63,8.63,0.0,0.0,2.4607713447187294,0.0,0.0,-9.38263716,-0.00777933,-2.85381729,0.002592,-0.003105,0.003104
8.64,8.64,0.0,0.0,2.460802384718729,0.0,0.0,-9.38263716,-0.00777933,-2.85381729,0.002592,-0.003105,0.003104
8.65,8.65,0.0,0.0,2.4608334247187287,0.0,0.0,-9.38263716,-0.00777933,-2.85381729,0.002592,-0.003105,0.003104
8.66,8.66,0.0,0.0,2.4608644647187283,0.0,0.0,-9.38263716,-0.00777933,-2.85381729,0.002592,-0.003105,0.003104
8.67,8.67,0.0,0.0,2.460895504718728,0.0,0.0,-9.38263716,-0.00777933,-2.85381729,0.002592,-0.003105,0.003104
8.68,8.68,0.0,0.0,2.4609265447187276,0.0,0.0,-9.38263716,-0.00777933,-2.85381729,0.002592,-0.003105,0.003104
8.69,8.69,0.0,0.0,2.4609575847187273,0.0,0.0,-9.38263716,-0.00777933,-2.85381729,0.002592,-0.003105,0.003104
8.700000000000001,8.700000000000001,0.0,0.0,2.460988624718727,0.0,0.0,-9.38263716,-0.00777933,-2.85381729,0.002592,-0.003105,0.003104
8.71,8.71,0.0,0.0,2.4610196647187266,0.0,0.0,-9.38263716,-0.00777933,-2.85381729,0.002592,-0.003105,0.003104
8.72,8.72,0.0,0.0,2.4610507047187262,0.0,0.0,-9.38263716,-0.00777933,-2.85381729,0.002592,-0.003105,0.003104
8.73,8.73,0.0,0.0,2.461081744718726,0.0,0.0,-9.38263716,-0.00777933,-2.85381729,0.002592,-0.003105,0.003104
8.74,8.74,0.0,0.0,2.4611127847187255,0.0,0.0,-9.38263716,-0.00777933,-2.85381729,0.002592,-0.003105,0.003104
8.75,8.75,0.0,0.0,2.461143824718725,0.0,0.0,-9.38263716,-0.00777933,-2.85381729,0.002592,-0.003105,0.003104
8.76,8.76,0.0,0.0,2.461174864718725,0.0,0.0,-9.38263716,-0.00777933,-2.85381729,0.002592,-0.003105,0.003104
8.77,8.77,0.0,0.0,2.4612059047187245,0.0,0.0,-9.38263716,-0.00777933,-2.85381729,0.002592,-0.003105,0.003104
8.78,8.78,0.0,0.0,2.461236944718724,0.0,0.0,-9.38263716,-0.00777933,-2.85381729,0.002592,-0.003105,0.003104
8.790000000000001,8.790000000000001,0.0,0.0,2.4612679847187238,0.0,0.0,-9.38263716,-0.00777933,-2.85381729,0.002592,-0.003105,0.003104
8.8,8.8,0.0,0.0,2.4612990247187234,0.0,0.0,-9.38263716,-0.00777933,-2.85381729,0.002592,-0.003105,0.003104
8.81,8.81,0.0,0.0,2.461330064718723,0.0,0.0,-9.38263716,-0.00777933,-2.85381729,0.002592,-0.003105,0.003104
8.82,8.82,0.0,0.0,2.4613611047187227,0.0,0.0,-9.38263716,-0.00777933,-2.85381729,0.002592,-0.003105,0.003104
8.83,8.83,0.0,0.0,2.4613921447187224,0.0,0.0,-9.38263716,-0.00777933,-2.85381729,0.002592,-0.003105,0.003104
8.84,8.84,0.0,0.0,2.461423184718722,0.0,0.0,-9.38263716,-0.00777933,-2.85381729,0.002592,-0.003105,0.003104
8.85,8.85,0.0,0.0,2.4614542247187217,0.0,0.0,-9.38263716,-0.00777933,-2.85381729,0.002592,-0.003105,0.003104
8.86,8.86,0.0,0.0,2.4614852647187213,0.0,0.0,-9.38263716,-0.00777933,-2.85381729,0.002592,-0.003105,0.003104
8.870000000000001,8.870000000000001,0.0,0.0,2.461516304718721,0.0,0.0,-9.38263716,-0.00777933,-2.85381729,0.002592,-0.003105,0.003104
8.88,8.88,0.0,0.0,2.4615473447187206,0.0,0.0,-9.38263716,-0.00777933,-2.85381729,0.002592,-0.003105,0.003104
8.89,8.89,0.0,0.0,2.4615783847187203,0.0,0.0,-9.38263716,-0.00777933,-2.85381729,0.002592,-0.003105,0.003104
8.9,8.9,0.0,0.0,2.46160942471872,0.0,0.0,-9.38263716,-0.00777933,-2.85381729,0.002592,-0.003105,0.003104
8.91,8.91,0.0,0.0,2.4616404647187196,0.0,0.0,-9.38263716,-0.00777933,-2.85381729,0.002592,-0.003105,0.003104
8.92,8.92,0.0,0.0,2.461671504718719,0.0,0.0,-9.38263716,-0.00777933,-2.85381729,0.002592,-0.003105,0.003104
8.93,8.93,0.0,0.0,2.461702544718719,0.0,0.0,-9.38263716,-0.00777933,-2.85381729,0.002592,-0.003105,0.003104
8.94,8.94,0.0,0.0,2.4617335847187185,0.0,0.0,-9.38263716,-0.00777933,-2.85381729,0.002592,-0.003105,0.003104
8.950000000000001,8.950000000000001,0.0,0.0,2.461764624718718,0.0,0.0,-9.38263716,-0.00777933,-2.85381729,0.002592,-0.003105,0.003104
8.96,8.96,0.0,0.0,2.461795664718718,0.0,0.0,-9.38263716,-0.00777933,-2.85381729,0.002592,-0.003105,0.003104
8.97,8.97,0.0,0.0,2.4618267047187175,0.0,0.0,-9.38263716,-0.00777933,-2.85381729,0.002592,-0.003105,0.003104
8.98,8.98,0.0,0.0,2.461857744718717,0.0,0.0,-9.38263716,-0.00777933,-2.85381729,0.002592,-0.003105,0.003104
8.99,8.99,0.0,0.0,2.4618887847187167,0.0,0.0,-9.38263716,-0.00777933,-2.85381729,0.002592,-0.003105,0.003104
9.0,9.0,0.0,0.0,2.4619198247187164,0.0,0.0,-9.38263716,-0.00777933,-2.85381729,0.002592,-0.003105,0.003104
9.01,9.01,0.0,0.0,2.461950864718716,0.0,0.0,-9.38263716,-0.00777933,-2.85381729,0.002592,-0.003105,0.003104
9.02,9.02,0.0,0.0,2.4619819047187157,0.0,0.0,-9.38263716,-0.00777933,-2.85381729,0.002592,-0.003105,0.003104
9.03,9.03,0.0,0.0,2.4620129447187153,0.0,0.0,-9.38263716,-0.00777933,-2.85381729,0.002592,-0.003105,0.003104
9.040000000000001,9.040000000000001,0.0,0.0,2.462043984718715,0.0,0.0,-9.38263716,-0.00777933,-2.85381729,0.002592,-0.003105,0.003104
9.05,9.05,0.0,0.0,2.4620750247187146,0.0,0.0,-9.38263716,-0.00777933,-2.85381729,0.002592,-0.003105,0.003104
9.06,9.06,0.0,0.0,2.4621060647187143,0.0,0.0,-9.38263716,-0.00777933,-2.85381729,0.002592,-0.003105,0.003104
9.07,9.07,0.0,0.0,2.462137104718714,0.0,0.0,-9.38263716,-0.00777933,-2.85381729,0.002592,-0.003105,0.003104
9.08,9.08,0.0,0.0,2.4621681447187136,0.0,0.0,-9.38263716,-0.00777933,-2.85381729,0.002592,-0.003105,0.003104
9.09,9.09,0.0,0.0,2.4621991847187132,0.0,0.0,-9.38263716,-0.00777933,-2.85381729,0.002592,-0.003105,0.003104
9.1,9.1,0.0,0.0,2.462230224718713,0.0,0.0,-9.38263716,-0.00777933,-2.85381729,0.002592,-0.003105,0.003104
9.11,9.11,0.0,0.0,2.4622612647187125,0.0,0.0,-9.38263716,-0.00777933,-2.85381729,0.002592,-0.003105,0.003104
9.120000000000001,9.120000000000001,0.0,0.0,2.462292304718712,0.0,0.0,-9.38263716,-0.00777933,-2.85381729,0.002592,-0.003105,0.003104
9.13,9.13,0.0,0.0,2.462323344718712,0.0,0.0,-9.38263716,-0.00777933,-2.85381729,0.002592,-0.003105,0.003104
9.14,9.14,0.0,0.0,2.4623543847187115,0.0,0.0,-9.38263716,-0.00777933,-2.85381729,0.002592,-0.003105,0.003104
9.15,9.15,0.0,0.0,2.462385424718711,0.0,0.0,-9.38263716,-0.00777933,-2.85381729,0.002592,-0.003105,0.003104
9.16,9.16,0.0,0.0,2.462416464718711,0.0,0.0,-9.38263716,-0.00777933,-2.85381729,0.002592,-0.003105,0.003104
9.17,9.17,0.0,0.0,2.4624475047187104,0.0,0.0,-9.38263716,-0.00777933,-2.85381729,0.002592,-0.003105,0.003104
9.18,9.18,0.0,0.0,2.46247854471871,0.0,0.0,-9.38263716,-0.00777933,-2.85381729,0.002592,-0.003105,0.003104
9.19,9.19,0.0,0.0,2.4625095847187097,0.0,0.0,-9.38263716,-0.00777933,-2.85381729,0.002592,-0.003105,0.003104
9.200000000000001,9.200000000000001,0.0,0.0,2.4625406247187094,0.0,0.0,-9.38263716,-0.00777933,-2.85381729,0.002592,-0.003105,0.003104
9.21,9.21,0.0,0.0,2.462571664718709,0.0,0.0,-9.38263716,-0.00777933,-2.85381729,0.002592,-0.003105,0.003104
9.22,9.22,0.0,0.0,2.4626027047187087,0.0,0.0,-9.38263716,-0.00777933,-2.85381729,0.002592,-0.003105,0.003104
9.23,9.23,0.0,0.0,2.4626337447187083,0.0,0.0,-9.38263716,-0.00777933,-2.85381729,0.002592,-0.003105,0.003104
9.24,9.24,0.0,0.0,2.462664784718708,0.0,0.0,-9.38263716,-0.00777933,-2.85381729,0.002592,-0.003105,0.003104
9.25,9.25,0.0,0.0,2.4626958247187076,0.0,0.0,-9.38263716,-0.00777933,-2.85381729,0.002592,-0.003105,0.003104
9.26,9.26,0.0,0.0,2.4627268647187073,0.0,0.0,-9.38263716,-0.00777933,-2.85381729,0.002592,-0.003105,0.003104
9.27,9.27,0.0,0.0,2.462757904718707,0.0,0.0,-9.38263716,-0.00777933,-2.85381729,0.002592,-0.003105,0.003104
9.28,9.28,0.0,0.0,2.4627889447187066,0.0,0.0,-9.38263716,-0.00777933,-2.85381729,0.002592,-0.003105,0.003104
9.290000000000001,9.290000000000001,0.0,0.0,2.4628199847187062,0.0,0.0,-9.38263716,-0.00777933,-2.85381729,0.002592,-0.003105,0.003104
9.3,9.3,0.0,0.0,2.462851024718706,0.0,0.0,-9.38263716,-0.00777933,-2.85381729,0.002592,-0.003105,0.003104
9.31,9.31,0.0,0.0,2.4628820647187055,0.0,0.0,-9.38263716,-0.00777933,-2.85381729,0.002592,-0.003105,0.003104
9.32,9.32,0.0,0.0,2.462913104718705,0.0,0.0,-9.38263716,-0.00777933,-2.85381729,0.002592,-0.003105,0.003104
9.33,9.33,0.0,0.0,2.462944144718705,0.0,0.0,-9.38263716,-0.00777933,-2.85381729,0.002592,-0.003105,0.003104
9.34,9.34,0.0,0.0,2.4629751847187045,0.0,0.0,-9.38263716,-0.00777933,-2.85381729,0.002592,-0.003105,0.003104
9.35,9.35,0.0,0.0,2.463006224718704,0.0,0.0,-9.38263716,-0.00777933,-2.85381729,0.002592,-0.003105,0.003104
9.36,9.36,0.0,0.0,2.4630372647187038,0.0,0.0,-9.38263716,-0.00777933,-2.85381729,0.002592,-0.003105,0.003104
9.370000000000001,9.370000000000001,0.0,0.0,2.4630683047187034,0.0,0.0,-9.38263716,-0.00777933,-2.85381729,0.002592,-0.003105,0.003104
9.38,9.38,0.0,0.0,2.463099344718703,0.0,0.0,-9.38263716,-0.00777933,-2.85381729,0.002592,-0.003105,0.003104
9.39,9.39,0.0,0.0,2.4631303847187027,0.0,0.0,-9.38263716,-0.00777933,-2.85381729,0.002592,-0.003105,0.003104
9.4,9.4,0.0,0.0,2.4631614247187024,0.0,0.0,-9.38263716,-0.00777933,-2.85381729,0.002592,-0.003105,0.003104
9.41,9.41,0.0,0.0,2.463192464718702,0.0,0.0,-9.38263716,-0.00777933,-2.85381729,0.002592,-0.003105,0.003104
9.42,9.42,0.0,0.0,2.4632235047187017,0.0,0.0,-9.38263716,-0.00777933,-2.85381729,0.002592,-0.003105,0.003104
9.43,9.43,0.0,0.0,2.4632545447187013,0.0,0.0,-9.38263716,-0.00777933,-2.85381729,0.002592,-0.003105,0.003104
9.44,9.44,0.0,0.0,2.463285584718701,0.0,0.0,-9.38263716,-0.00777933,-2.85381729,0.002592,-0.003105,0.003104
9.450000000000001,9.450000000000001,0.0,0.0,2.4633166247187006,0.0,0.0,-9.38263716,-0.00777933,-2.85381729,0.002592,-0.003105,0.003104
9.46,9.46,0.0,0.0,2.4633476647187003,0.0,0.0,-9.38263716,-0.00777933,-2.85381729,0.002592,-0.003105,0.003104
9.47,9.47,0.0,0.0,2.4633787047187,0.0,0.0,-9.38263716,-0.00777933,-2.85381729,0.002592,-0.003105,0.003104
9.48,9.48,0.0,0.0,2.4634097447186996,0.0,0.0,-9.38263716,-0.00777933,-2.85381729,0.002592,-0.003105,0.003104
9.49,9.49,0.0,0.0,2.463440784718699,0.0,0.0,-9.38263716,-0.00777933,-2.85381729,0.002592,-0.003105,0.003104
9.5,9.5,0.0,0.0,2.463471824718699,0.0,0.0,-9.38263716,-0.00777933,-2.85381729,0.002592,-0.003105,0.003104
9.51,9.51,0.0,0.0,2.4635028647186985,0.0,0.0,-9.38263716,-0.00777933,-2.85381729,0.002592,-0.003105,0.003104
9.52,9.52,0.0,0.0,2.463533904718698,0.0,0.0,-9.38263716,-0.00777933,-2.85381729,0.002592,-0.003105,0.003104
9.53,9.53,0.0,0.0,2.463564944718698,0.0,0.0,-9.38263716,-0.00777933,-2.85381729,0.002592,-0.003105,0.003104
9.540000000000001,9.540000000000001,0.0,0.0,2.4635959847186975,0.0,0.0,-9.38263716,-0.00777933,-2.85381729,0.002592,-0.003105,0.003104
9.55,9.55,0.0,0.0,2.463627024718697,0.0,0.0,-9.38263716,-0.00777933,-2.85381729,0.002592,-0.003105,0.003104
9.56,9.56,0.0,0.0,2.4636580647186967,0.0,0.0,-9.38263716,-0.00777933,-2.85381729,0.002592,-0.003105,0.003104
9.57,9.57,0.0,0.0,2.4636891047186964,0.0,0.0,-9.38263716,-0.00777933,-2.85381729,0.002592,-0.003105,0.003104
9.58,9.58,0.0,0.0,2.463720144718696,0.0,0.0,-9.38263716,-0.00777933,-2.85381729,0.002592,-0.003105,0.003104
9.59,9.59,0.0,0.0,2.4637511847186957,0.0,0.0,-9.38263716,-0.00777933,-2.85381729,0.002592,-0.003105,0.003104
9.6,9.6,0.0,0.0,2.4637822247186953,0.0,0.0,-9.38263716,-0.00777933,-2.85381729,0.002592,-0.003105,0.003104
9.61,9.61,0.0,0.0,2.463813264718695,0.0,0.0,-9.38263716,-0.00777933,-2.85381729,0.002592,-0.003105,0.003104
9.620000000000001,9.620000000000001,0.0,0.0,2.4638443047186946,0.0,0.0,-9.38263716,-0.00777933,-2.85381729,0.002592,-0.003105,0.003104
9.63,9.63,0.0,0.0,2.4638753447186943,0.0,0.0,-9.38263716,-0.00777933,-2.85381729,0.002592,-0.003105,0.003104
9.64,9.64,0.0,0.0,2.463906384718694,0.0,0.0,-9.38263716,-0.00777933,-2.85381729,0.002592,-0.003105,0.003104
9.65,9.65,0.0,0.0,2.4639374247186936,0.0,0.0,-9.38263716,-0.00777933,-2.85381729,0.002592,-0.003105,0.003104
9.66,9.66,0.0,0.0,2.4639684647186932,0.0,0.0,-9.38263716,-0.00777933,-2.85381729,0.002592,-0.003105,0.003104
9.67,9.67,0.0,0.0,2.463999504718693,0.0,0.0,-9.38263716,-0.00777933,-2.85381729,0.002592,-0.003105,0.003104
9.68,9.68,0.0,0.0,2.4640305447186925,0.0,0.0,-9.38263716,-0.00777933,-2.85381729,0.002592,-0.003105,0.003104
9.69,9.69,0.0,0.0,2.464061584718692,0.0,0.0,-9.38263716,-0.00777933,-2.85381729,0.002592,-0.003105,0.003104
9.700000000000001,9.700000000000001,0.0,0.0,2.464092624718692,0.0,0.0,-9.38263716,-0.00777933,-2.85381729,0.002592,-0.003105,0.003104
9.71,9.71,0.0,0.0,2.4641236647186915,0.0,0.0,-9.38263716,-0.00777933,-2.85381729,0.002592,-0.003105,0.003104
9.72,9.72,0.0,0.0,2.464154704718691,0.0,0.0,-9.38263716,-0.00777933,-2.85381729,0.002592,-0.003105,0.003104
9.73,9.73,0.0,0.0,2.464185744718691,0.0,0.0,-9.38263716,-0.00777933,-2.85381729,0.002592,-0.003105,0.003104
9.74,9.74,0.0,0.0,2.4642167847186904,0.0,0.0,-9.38263716,-0.00777933,-2.85381729,0.002592,-0.003105,0.003104
9.75,9.75,0.0,0.0,2.46424782471869,0.0,0.0,-9.38263716,-0.00777933,-2.85381729,0.002592,-0.003105,0.003104
9.76,9.76,0.0,0.0,2.4642788647186897,0.0,0.0,-9.38263716,-0.00777933,-2.85381729,0.002592,-0.003105,0.003104
9.77,9.77,0.0,0.0,2.4643099047186894,0.0,0.0,-9.38263716,-0.00777933,-2.85381729,0.002592,-0.003105,0.003104
9.78,9.78,0.0,0.0,2.464340944718689,0.0,0.0,-9.38263716,-0.00777933,-2.85381729,0.002592,-0.003105,0.003104
9.790000000000001,9.790000000000001,0.0,0.0,2.4643719847186887,0.0,0.0,-9.38263716,-0.00777933,-2.85381729,0.002592,-0.003105,0.003104
9.8,9.8,0.0,0.0,2.4644030247186883,0.0,0.0,-9.38263716,-0.00777933,-2.85381729,0.002592,-0.003105,0.003104
9.81,9.81,0.0,0.0,2.464434064718688,0.0,0.0,-9.38263716,-0.00777933,-2.85381729,0.002592,-0.003105,0.003104
9.82,9.82,0.0,0.0,2.4644651047186876,0.0,0.0,-9.38263716,-0.00777933,-2.85381729,0.002592,-0.003105,0.003104
9.83,9.83,0.0,0.0,2.4644961447186873,0.0,0.0,-9.38263716,-0.00777933,-2.85381729,0.002592,-0.003105,0.003104
9.84,9.84,0.0,0.0,2.464527184718687,0.0,0.0,-9.38263716,-0.00777933,-2.85381729,0.002592,-0.003105,0.003104
9.85,9.85,0.0,0.0,2.4645582247186866,0.0,0.0,-9.38263716,-0.00777933,-2.85381729,0.002592,-0.003105,0.003104
9.86,9.86,0.0,0.0,2.4645892647186862,0.0,0.0,-9.38263716,-0.00777933,-2.85381729,0.002592,-0.003105,0.003104
9.870000000000001,9.870000000000001,0.0,0.0,2.464620304718686,0.0,0.0,-9.38263716,-0.00777933,-2.85381729,0.002592,-0.003105,0.003104
9.88,9.88,0.0,0.0,2.4646513447186855,0.0,0.0,-9.38263716,-0.00777933,-2.85381729,0.002592,-0.003105,0.003104
9.89,9.89,0.0,0.0,2.464682384718685,0.0,0.0,-9.38263716,-0.00777933,-2.85381729,0.002592,-0.003105,0.003104
9.9,9.9,0.0,0.0,2.464713424718685,0.0,0.0,-9.38263716,-0.00777933,-2.85381729,0.002592,-0.003105,0.003104
9.91,9.91,0.0,0.0,2.4647444647186845,0.0,0.0,-9.38263716,-0.00777933,-2.85381729,0.002592,-0.003105,0.003104
9.92,9.92,0.0,0.0,2.464775504718684,0.0,0.0,-9.38263716,-0.00777933,-2.85381729,0.002592,-0.003105,0.003104
9.93,9.93,0.0,0.0,2.4648065447186838,0.0,0.0,-9.38263716,-0.00777933,-2.85381729,0.002592,-0.003105,0.003104
9.94,9.94,0.0,0.0,2.4648375847186834,0.0,0.0,-9.38263716,-0.00777933,-2.85381729,0.002592,-0.003105,0.003104
9.950000000000001,9.950000000000001,0.0,0.0,2.464868624718683,0.0,0.0,-9.38263716,-0.00777933,-2.85381729,0.002592,-0.003105,0.003104
9.96,9.96,0.0,0.0,2.4648996647186827,0.0,0.0,-9.38263716,-0.00777933,-2.85381729,0.002592,-0.003105,0.003104
9.97,9.97,0.0,0.0,2.4649307047186824,0.0,0.0,-9.38263716,-0.00777933,-2.85381729,0.002592,-0.003105,0.003104
9.98,9.98,0.0,0.0,2.464961744718682,0.0,0.0,-9.38263716,-0.00777933,-2.85381729,0.002592,-0.003105,0.003104
9.99,9.99,0.0,0.0,2.4649927847186817,0.0,0.0,-9.38263716,-0.00777933,-2.85381729,0.002592,-0.003105,0.003104
10.0,10.0,0.0,0.0,2.4650238247186813,0.0,0.0,-9.38263716,-0.00777933,-2.85381729,0.002592,-0.003105,0.003104
10.01,10.01,0.0,0.0,2.465054864718681,0.0,0.0,-9.38263716,-0.00777933,-2.85381729,0.002592,-0.003105,0.003104
10.02,10.02,0.0,0.0,2.4650859047186806,0.0,0.0,-9.38263716,-0.00777933,-2.85381729,0.002592,-0.003105,0.003104
10.03,10.03,0.0,0.0,2.4651169447186803,0.0,0.0,-9.38263716,-0.00777933,-2.85381729,0.002592,-0.003105,0.003104
10.040000000000001,10.040000000000001,0.0,0.0,2.46514798471868,0.0,0.0,-9.38263716,-0.00777933,-2.85381729,0.002592,-0.003105,0.003104
10.05,10.05,0.0,0.0,2.4651790247186796,0.0,0.0,-9.38263716,-0.00777933,-2.85381729,0.002592,-0.003105,0.003104
10.06,10.06,0.0,0.0,2.465210064718679,0.0,0.0,-9.38263716,-0.00777933,-2.85381729,0.002592,-0.003105,0.003104
10.07,10.07,0.0,0.0,2.465241104718679,0.0,0.0,-9.38263716,-0.00777933,-2.85381729,0.002592,-0.003105,0.003104
10.08,10.08,0.0,0.0,2.4652721447186785,0.0,0.0,-9.38263716,-0.00777933,-2.85381729,0.002592,-0.003105,0.003104
10.09,10.09,0.0,0.0,2.465303184718678,0.0,0.0,-9.38263716,-0.00777933,-2.85381729,0.002592,-0.003105,0.003104
10.1,10.1,0.0,0.0,2.465334224718678,0.0,0.0,-9.38263716,-0.00777933,-2.85381729,0.002592,-0.003105,0.003104
10.11,10.11,0.0,0.0,2.4653652647186775,0.0,0.0,-9.38263716,-0.00777933,-2.85381729,0.002592,-0.003105,0.003104
10.120000000000001,10.120000000000001,0.0,0.0,2.465396304718677,0.0,0.0,-9.38263716,-0.00777933,-2.85381729,0.002592,-0.003105,0.003104
10.13,10.13,0.0,0.0,2.4654273447186767,0.0,0.0,-9.38263716,-0.00777933,-2.85381729,0.002592,-0.003105,0.003104
10.14,10.14,0.0,0.0,2.4654583847186764,0.0,0.0,-9.38263716,-0.00777933,-2.85381729,0.002592,-0.003105,0.003104
10.15,10.15,0.0,0.0,2.465489424718676,0.0,0.0,-9.38263716,-0.00777933,-2.85381729,0.002592,-0.003105,0.003104
10.16,10.16,0.0,0.0,2.4655204647186757,0.0,0.0,-9.38263716,-0.00777933,-2.85381729,0.002592,-0.003105,0.003104
10.17,10.17,0.0,0.0,2.4655515047186753,0.0,0.0,-9.38263716,-0.00777933,-2.85381729,0.002592,-0.003105,0.003104
10.18,10.18,0.0,0.0,2.465582544718675,0.0,0.0,-9.38263716,-0.00777933,-2.85381729,0.002592,-0.003105,0.003104
10.19,10.19,0.0,0.0,2.4656135847186746,0.0,0.0,-9.38263716,-0.00777933,-2.85381729,0.002592,-0.003105,0.003104
10.200000000000001,10.200000000000001,0.0,0.0,2.4656446247186743,0.0,0.0,-9.38263716,-0.00777933,-2.85381729,0.002592,-0.003105,0.003104
10.21,10.21,0.0,0.0,2.465675664718674,0.0,0.0,-9.38263716,-0.00777933,-2.85381729,0.002592,-0.003105,0.003104
10.22,10.22,0.0,0.0,2.4657067047186736,0.0,0.0,-9.38263716,-0.00777933,-2.85381729,0.002592,-0.003105,0.003104
10.23,10.23,0.0,0.0,2.4657377447186732,0.0,0.0,-9.38263716,-0.00777933,-2.85381729,0.002592,-0.003105,0.003104
10.24,10.24,0.0,0.0,2.465768784718673,0.0,0.0,-9.38263716,-0.00777933,-2.85381729,0.002592,-0.003105,0.003104
10.25,10.25,0.0,0.0,2.4657998247186725,0.0,0.0,-9.38263716,-0.00777933,-2.85381729,0.002592,-0.003105,0.003104
10.26,10.26,0.0,0.0,2.465830864718672,0.0,0.0,-9.38263716,-0.00777933,-2.85381729,0.002592,-0.003105,0.003104
10.27,10.27,0.0,0.0,2.465861904718672,0.0,0.0,-9.38263716,-0.00777933,-2.85381729,0.002592,-0.003105,0.003104
10.28,10.28,0.0,0.0,2.4658929447186715,0.0,0.0,-9.38263716,-0.00777933,-2.85381729,0.002592,-0.003105,0.003104
10.290000000000001,10.290000000000001,0.0,0.0,2.465923984718671,0.0,0.0,-9.38263716,-0.00777933,-2.85381729,0.002592,-0.003105,0.003104
10.3,10.3,0.0,0.0,2.465955024718671,0.0,0.0,-9.38263716,-0.00777933,-2.85381729,0.002592,-0.003105,0.003104
10.31,10.31,0.0,0.0,2.4659860647186704,0.0,0.0,-9.38263716,-0.00777933,-2.85381729,0.002592,-0.003105,0.003104
10.32,10.32,0.0,0.0,2.46601710471867,0.0,0.0,-9.38263716,-0.00777933,-2.85381729,0.002592,-0.003105,0.003104
10.33,10.33,0.0,0.0,2.4660481447186697,0.0,0.0,-9.38263716,-0.00777933,-2.85381729,0.002592,-0.003105,0.003104
10.34,10.34,0.0,0.0,2.4660791847186694,0.0,0.0,-9.38263716,-0.00777933,-2.85381729,0.002592,-0.003105,0.003104
10.35,10.35,0.0,0.0,2.466110224718669,0.0,0.0,-9.38263716,-0.00777933,-2.85381729,0.002592,-0.003105,0.003104
10.36,10.36,0.0,0.0,2.4661412647186687,0.0,0.0,-9.38263716,-0.00777933,-2.85381729,0.002592,-0.003105,0.003104
10.370000000000001,10.370000000000001,0.0,0.0,2.4661723047186683,0.0,0.0,-9.38263716,-0.00777933,-2.85381729,0.002592,-0.003105,0.003104
10.38,10.38,0.0,0.0,2.466203344718668,0.0,0.0,-9.38263716,-0.00777933,-2.85381729,0.002592,-0.003105,0.003104
10.39,10.39,0.0,0.0,2.4662343847186676,0.0,0.0,-9.38263716,-0.00777933,-2.85381729,0.002592,-0.003105,0.003104
10.4,10.4,0.0,0.0,2.4662654247186673,0.0,0.0,-9.38263716,-0.00777933,-2.85381729,0.002592,-0.003105,0.003104
10.41,10.41,0.0,0.0,2.466296464718667,0.0,0.0,-9.38263716,-0.00777933,-2.85381729,0.002592,-0.003105,0.003104
10.42,10.42,0.0,0.0,2.4663275047186666,0.0,0.0,-9.38263716,-0.00777933,-2.85381729,0.002592,-0.003105,0.003104
10.43,10.43,0.0,0.0,2.4663585447186662,0.0,0.0,-9.38263716,-0.00777933,-2.85381729,0.002592,-0.003105,0.003104
10.44,10.44,0.0,0.0,2.466389584718666,0.0,0.0,-9.38263716,-0.00777933,-2.85381729,0.002592,-0.003105,0.003104
10.450000000000001,10.450000000000001,0.0,0.0,2.4664206247186655,0.0,0.0,-9.38263716,-0.00777933,-2.85381729,0.002592,-0.003105,0.003104
10.46,10.46,0.0,0.0,2.466451664718665,0.0,0.0,-9.38263716,-0.00777933,-2.85381729,0.002592,-0.003105,0.003104
10.47,10.47,0.0,0.0,2.466482704718665,0.0,0.0,-9.38263716,-0.00777933,-2.85381729,0.002592,-0.003105,0.003104
10.48,10.48,0.0,0.0,2.4665137447186645,0.0,0.0,-9.38263716,-0.00777933,-2.85381729,0.002592,-0.003105,0.003104
10.49,10.49,0.0,0.0,2.466544784718664,0.0,0.0,-9.38263716,-0.00777933,-2.85381729,0.002592,-0.003105,0.003104
10.5,10.5,0.0,0.0,2.4665758247186638,0.0,0.0,-9.38263716,-0.00777933,-2.85381729,0.002592,-0.003105,0.003104
10.51,10.51,0.0,0.0,2.4666068647186634,0.0,0.0,-9.38263716,-0.00777933,-2.85381729,0.002592,-0.003105,0.003104
10.52,10.52,0.0,0.0,2.466637904718663,0.0,0.0,-9.38263716,-0.00777933,-2.85381729,0.002592,-0.003105,0.003104
10.53,10.53,0.0,0.0,2.4666689447186627,0.0,0.0,-9.38263716,-0.00777933,-2.85381729,0.002592,-0.003105,0.003104
10.540000000000001,10.540000000000001,0.0,0.0,2.4666999847186624,0.0,0.0,-9.38263716,-0.00777933,-2.85381729,0.002592,-0.003105,0.003104
10.55,10.55,0.0,0.0,2.466731024718662,0.0,0.0,-9.38263716,-0.00777933,-2.85381729,0.002592,-0.003105,0.003104
10.56,10.56,0.0,0.0,2.4667620647186617,0.0,0.0,-9.38263716,-0.00777933,-2.85381729,0.002592,-0.003105,0.003104
10.57,10.57,0.0,0.0,2.4667931047186613,0.0,0.0,-9.38263716,-0.00777933,-2.85381729,0.002592,-0.003105,0.003104
10.58,10.58,0.0,0.0,2.466824144718661,0.0,0.0,-9.38263716,-0.00777933,-2.85381729,0.002592,-0.003105,0.003104
10.59,10.59,0.0,0.0,2.4668551847186606,0.0,0.0,-9.38263716,-0.00777933,-2.85381729,0.002592,-0.003105,0.003104
10.6,10.6,0.0,0.0,2.4668862247186603,0.0,0.0,-9.38263716,-0.00777933,-2.85381729,0.002592,-0.003105,0.003104
10.61,10.61,0.0,0.0,2.46691726471866,0.0,0.0,-9.38263716,-0.00777933,-2.85381729,0.002592,-0.003105,0.003104
10.620000000000001,10.620000000000001,0.0,0.0,2.4669483047186596,0.0,0.0,-9.38263716,-0.00777933,-2.85381729,0.002592,-0.003105,0.003104
10.63,10.63,0.0,0.0,2.466979344718659,0.0,0.0,-9.38263716,-0.00777933,-2.85381729,0.002592,-0.003105,0.003104
10.64,10.64,0.0,0.0,2.467010384718659,0.0,0.0,-9.38263716,-0.00777933,-2.85381729,0.002592,-0.003105,0.003104
10.65,10.65,0.0,0.0,2.4670414247186585,0.0,0.0,-9.38263716,-0.00777933,-2.85381729,0.002592,-0.003105,0.003104
10.66,10.66,0.0,0.0,2.467072464718658,0.0,0.0,-9.38263716,-0.00777933,-2.85381729,0.002592,-0.003105,0.003104
10.67,10.67,0.0,0.0,2.467103504718658,0.0,0.0,-9.38263716,-0.00777933,-2.85381729,0.002592,-0.003105,0.003104
10.68,10.68,0.0,0.0,2.4671345447186575,0.0,0.0,-9.38263716,-0.00777933,-2.85381729,0.002592,-0.003105,0.003104
10.69,10.69,0.0,0.0,2.467165584718657,0.0,0.0,-9.38263716,-0.00777933,-2.85381729,0.002592,-0.003105,0.003104
