timestamp,time_rel,x,y,theta,vx,vy,accel_x,accel_y,accel_z,gyro_x,gyro_y,gyro_z
0.0,0.0,0.0,0.0,0.0,0.0,0.0,-9.28608714,-2.84857875,2.64814083,-0.016383,-0.045112,0.129277
0.05995299998903647,0.05995299998903647,0.0,0.0,0.005782185357789071,0.0,0.0,-9.17860878,-2.5554853800000004,2.67313671,0.002903,-0.092979,0.071868
0.09992100001545623,0.09992100001545623,0.0,0.0,0.007704305345883622,0.0,0.0,-9.32949639,-2.69619021,2.7442395900000003,0.002374,-0.053279,0.034319
0.09992100001545623,0.09992100001545623,0.0,0.0,0.006794978950677155,0.0,0.0,-9.32949639,-2.69619021,2.7442395900000003,0.002374,-0.053279,0.034319
0.13988999999128282,0.13988999999128282,0.0,0.0,2.7917599169331266,0.0,0.0,-9.25031007,-2.6161111800000003,2.71520199,0.008939,0.02439,0.005785
0.1598740000044927,0.1598740000044927,0.0,0.0,2.702382399149105,0.0,0.0,-9.29746674,-2.6906573700000003,2.66715261,0.001744,0.059168,-0.01635
0.1598740000044927,0.1598740000044927,0.0,0.0,2.629914198863168,0.0,0.0,-9.29746674,-2.6906573700000003,2.66715261,0.001744,0.059168,-0.01635
0.19984200003091246,0.19984200003091246,0.0,0.0,2.5717071735550423,0.0,0.0,-9.11335266,-2.65727394,2.6725383000000003,-0.012568,0.119616,-0.024498
0.21982699999352917,0.21982699999352917,0.0,0.0,2.5227638885548593,0.0,0.0,-9.12936258,-2.7155061000000003,2.5785388800000004,-0.006438,0.139818,-0.037036
0.23981100000673905,0.23981100000673905,0.0,0.0,2.482392520690709,0.0,0.0,-9.16305012,-2.7158004,2.5346783700000004,0.00239,0.141601,-0.041751
0.23981100000673905,0.23981100000673905,0.0,0.0,2.4487045226136805,0.0,0.0,-9.16305012,-2.7158004,2.5346783700000004,0.00239,0.141601,-0.041751
0.23981100000673905,0.23981100000673905,0.0,0.0,2.448157125723762,0.0,0.0,-9.16305012,-2.7158004,2.5346783700000004,0.00239,0.141601,-0.041751
0.2997639999957755,0.2997639999957755,0.0,0.0,2.4471763826114676,0.0,0.0,-9.020844360000002,-2.7274743000000004,2.46462516,0.022364,0.088129,-0.034102
0.3197480000089854,0.3197480000089854,0.0,0.0,2.4466089107325617,0.0,0.0,-9.10137465,-2.74708449,2.41837101,0.027195,0.065717,-0.029938
0.3397320000221953,0.3397320000221953,0.0,0.0,2.4463044679231913,0.0,0.0,-9.13670046,-2.6882637300000005,2.41253406,0.021986,0.043299,-0.015264
0.35971600003540516,0.35971600003540516,0.0,0.0,2.4459830523756434,0.0,0.0,-9.01979469,-2.67927777,2.39606307,0.017087,0.03015,-0.016201
0.37970099999802187,0.37970099999802187,0.0,0.0,2.4454963853106992,0.0,0.0,-8.95362624,-2.6776296900000003,2.37601143,0.020094,0.004251,-0.025382
0.39968500001123175,0.39968500001123175,0.0,0.0,2.444975812367181,0.0,0.0,-9.0263772,-2.6444032200000005,2.40774678,0.02839,-0.015732,-0.027154
0.41966900002444163,0.41966900002444163,0.0,0.0,2.4445835406579848,0.0,0.0,-9.06454791,-2.63766375,2.42451207,0.035389,-0.024731,-0.019825
0.4396530000376515,0.4396530000376515,0.0,0.0,2.4443416611875453,0.0,0.0,-8.952135120000001,-2.54800035,2.45714013,0.055191,-0.042761,-0.011341
0.4596380000002682,0.4596380000002682,0.0,0.0,2.44401893087682,0.0,0.0,-8.98686252,-2.5836302700000005,2.44531908,0.080838,-0.060363,-0.015999
0.4796220000134781,0.4796220000134781,0.0,0.0,2.4437532501500634,0.0,0.0,-9.15960681,-2.66325804,2.45159748,0.078978,-0.064727,-0.012793
0.499606000026688,0.499606000026688,0.0,0.0,2.4437248158228826,0.0,0.0,-9.11484378,-2.70936504,2.51327295,0.066055,-0.049783,0.000589
0.5195899999816902,0.5195899999816902,0.0,0.0,2.4438665276140012,0.0,0.0,-9.14867847,-2.80277586,2.5237500300000004,0.047068,-0.020364,0.009981
0.5395750000025146,0.5395750000025146,0.0,0.0,2.4441699812006323,0.0,0.0,-9.1823562,-2.78735454,2.56311756,0.030189,0.014139,0.018788
0.5395750000025146,0.5395750000025146,0.0,0.0,2.444572090157477,0.0,0.0,-9.1823562,-2.78735454,2.56311756,0.030189,0.014139,0.018788
0.5795430000289343,0.5795430000289343,0.0,0.0,2.4449921186122054,0.0,0.0,-8.89465833,-2.6002386000000004,2.57210352,0.034731,0.046381,0.029348
0.599527999991551,0.599527999991551,0.0,0.0,2.445212591471506,0.0,0.0,-8.84600073,-2.6289819000000003,2.54185929,0.044048,0.046342,0.012572
0.6195120000047609,0.6195120000047609,0.0,0.0,2.445443958439931,0.0,0.0,-8.944051680000001,-2.57045544,2.5444098900000003,0.039768,0.041156,0.012963
0.6394960000179708,0.6394960000179708,0.0,0.0,2.445994255194,0.0,0.0,-8.96007141,-2.50713189,2.51985546,0.020803,0.027934,0.031047
0.6594800000311807,0.6594800000311807,0.0,0.0,2.4465868090534997,0.0,0.0,-8.832678750000001,-2.54665638,2.5186586400000004,-0.008903,-0.005227,0.032945
0.6994490000070073,0.6994490000070073,0.0,0.0,2.44817714784638,0.0,0.0,-8.85932271,-2.43348822,2.5765965,-0.02334,-0.097838,0.070748
0.6994490000070073,0.6994490000070073,0.0,0.0,2.4490433257768798,0.0,0.0,-8.85932271,-2.43348822,2.5765965,-0.02334,-0.097838,0.070748
0.739417000033427,0.739417000033427,0.0,0.0,2.4509686025501285,0.0,0.0,-8.404276050000002,-2.06885052,2.47914396,0.030573,-0.232112,0.07291
0.7594019999960437,0.7594019999960437,0.0,0.0,2.4522924323508803,0.0,0.0,-8.482559850000001,-2.1459375,2.3466697200000004,0.062773,-0.324686,0.06859
0.7793860000092536,0.7793860000092536,0.0,0.0,2.4536049612383266,0.0,0.0,-8.58509397,-2.15925948,2.33020854,0.086066,-0.41856,0.067893
0.7993700000224635,0.7993700000224635,0.0,0.0,2.4548030946538084,0.0,0.0,-8.58494682,-2.25071811,2.42929935,0.097945,-0.501276,0.061532
0.8193540000356734,0.8193540000356734,0.0,0.0,2.455697478012329,0.0,0.0,-8.65934586,-2.5042968,2.52809586,0.090712,-0.556524,0.04476
0.8193540000356734,0.8193540000356734,0.0,0.0,2.455698278663961,0.0,0.0,-8.65934586,-2.5042968,2.52809586,0.090712,-0.556524,0.04476
0.8393389999982901,0.8393389999982901,0.0,0.0,2.4564472827229658,0.0,0.0,-8.694818820000002,-2.60503569,2.70142875,0.068225,-0.59441,0.035783
0.8393389999982901,0.8393389999982901,0.0,0.0,2.4563341737742377,0.0,0.0,-8.694818820000002,-2.60503569,2.70142875,0.068225,-0.59441,0.035783
0.8992910000379197,0.8992910000379197,0.0,0.0,2.459095691980174,0.0,0.0,-8.845402320000002,-2.5569863100000005,2.96383644,0.034395,-0.614132,0.05378
0.8992910000379197,0.8992910000379197,0.0,0.0,2.4592432839208644,0.0,0.0,-8.845402320000002,-2.5569863100000005,2.96383644,0.034395,-0.614132,0.05378
0.9392600000137463,0.9392600000137463,0.0,0.0,2.4616467614875175,0.0,0.0,-8.31849741,-2.51521533,3.10709187,0.003392,-0.619259,0.078366
0.9592440000269562,0.9592440000269562,0.0,0.0,2.463951234046342,0.0,0.0,-8.24485374,-2.20761297,3.13807185,0.071772,-0.610172,0.123592
0.9792279999819584,0.9792279999819584,0.0,0.0,2.466257378841025,0.0,0.0,-8.11941327,-2.32182099,3.31111044,0.138447,-0.593028,0.1225
0.9992130000027828,0.9992130000027828,0.0,0.0,2.468748043383778,0.0,0.0,-7.890840270000001,-2.2617936,3.33162315,0.188424,-0.580924,0.131936
1.0191980000236072,1.0191980000236072,0.0,0.0,2.4720715826820463,0.0,0.0,-7.812703620000001,-2.05493013,3.66408405,0.226432,-0.532057,0.178143
1.039182000036817,1.039182000036817,0.0,0.0,2.4767051750152698,0.0,0.0,-7.75417716,-2.06990019,3.75000003,0.261375,-0.536489,0.250907
1.0591659999918193,1.0591659999918193,0.0,0.0,2.482571333699493,0.0,0.0,-7.8203358,-2.11225977,3.89340261,0.291158,-0.563536,0.318352
1.0791500000050291,1.0791500000050291,0.0,0.0,2.489850498364631,0.0,0.0,-7.763006160000001,-2.08890216,3.92903253,0.298525,-0.592089,0.395351
1.0991350000258535,1.0991350000258535,0.0,0.0,2.4984628007819154,0.0,0.0,-7.603289550000001,-1.99804194,4.06120266,0.285281,-0.6068,0.466972
1.1191190000390634,1.1191190000390634,0.0,0.0,2.5077788482333023,0.0,0.0,-7.81988454,-2.0910015,4.27420719,0.257823,-0.578423,0.502021
1.1391029999940656,1.1391029999940656,0.0,0.0,2.5174610202720284,0.0,0.0,-7.76075967,-1.81947051,4.56385725,0.232605,-0.549066,0.517793
1.1391029999940656,1.1391029999940656,0.0,0.0,2.5210314775683997,0.0,0.0,-7.76075967,-1.81947051,4.56385725,0.232605,-0.549066,0.517793
1.1391029999940656,1.1391029999940656,0.0,0.0,2.523854659256564,0.0,0.0,-7.76075967,-1.81947051,4.56385725,0.232605,-0.549066,0.517793
1.199055999983102,1.199055999983102,0.0,0.0,2.545805187939406,0.0,0.0,-7.80956442,-1.76917464,5.006043,0.15188,-0.551825,0.443176
1.219039999996312,1.219039999996312,0.0,0.0,2.554349952718015,0.0,0.0,-7.543713420000001,-1.66124502,5.26125996,0.101297,-0.592477,0.439603
1.2390250000171363,1.2390250000171363,0.0,0.0,2.562886470816892,0.0,0.0,-7.15152924,-1.60975233,5.34972654,0.051762,-0.640825,0.437071
1.2590090000303462,1.2590090000303462,0.0,0.0,2.5707573640561296,0.0,0.0,-7.16439996,-1.82739699,5.326221780000001,-0.009209,-0.676427,0.397065
1.2789929999853484,1.2789929999853484,0.0,0.0,2.57870722051969,0.0,0.0,-7.07803272,-1.89550782,5.417533260000001,-0.097409,-0.753872,0.401102
1.2989769999985583,1.2989769999985583,0.0,0.0,2.586418525663909,0.0,0.0,-6.946608150000001,-1.67202621,5.15033829,-0.111614,-0.95848,0.386836
1.3189620000193827,1.3189620000193827,0.0,0.0,2.594526545096574,0.0,0.0,-6.37134975,-1.21876497,5.2259341500000005,-0.147799,-1.169956,0.409517
1.3389460000325926,1.3389460000325926,0.0,0.0,2.60215211349826,0.0,0.0,-6.6862998,-1.33941816,5.4248711400000005,-0.16122,-1.203471,0.381162
1.3789140000008047,1.3789140000008047,0.0,0.0,2.617729093309782,0.0,0.0,-6.7472199,-0.9860031,5.52426606,-0.024313,-1.443701,0.395913
1.398899000021629,1.398899000021629,0.0,0.0,2.6254593441284353,0.0,0.0,-6.653063520000001,-0.95276682,5.79041136,0.054154,-1.413785,0.386854
1.398899000021629,1.398899000021629,0.0,0.0,2.625475655729632,0.0,0.0,-6.653063520000001,-0.95276682,5.79041136,0.054154,-1.413785,0.386854
1.418883000034839,1.418883000034839,0.0,0.0,2.6322062327823748,0.0,0.0,-6.17616018,-0.86340753,5.983060140000001,0.097172,-1.48342,0.327336
1.4388669999898411,1.4388669999898411,0.0,0.0,2.636904735476554,0.0,0.0,-6.052514940000001,-0.76281579,6.05969586,0.142618,-1.545979,0.208186
1.4388669999898411,1.4388669999898411,0.0,0.0,2.634689366770453,0.0,0.0,-6.052514940000001,-0.76281579,6.05969586,0.142618,-1.545979,0.208186
1.4388669999898411,1.4388669999898411,0.0,0.0,2.632925880643292,0.0,0.0,-6.052514940000001,-0.76281579,6.05969586,0.142618,-1.545979,0.208186
1.4388669999898411,1.4388669999898411,0.0,0.0,2.631488812980198,0.0,0.0,-6.052514940000001,-0.76281579,6.05969586,0.142618,-1.545979,0.208186
1.5188039999920875,1.5188039999920875,0.0,0.0,2.6544022193066326,0.0,0.0,-5.385346650000001,-0.47046798,6.88478553,0.287709,-1.787408,0.177238
1.5587730000261217,1.5587730000261217,0.0,0.0,2.662754034643628,0.0,0.0,-4.6689419700000006,-0.1853109,7.387136010000001,0.366357,-1.79198,0.113846
1.5787570000393316,1.5787570000393316,0.0,0.0,2.6640755293793212,0.0,0.0,-5.06247012,-0.41418801,7.819286130000001,0.394724,-1.759627,0.053617
1.5987409999943338,1.5987409999943338,0.0,0.0,2.664547260812549,0.0,0.0,-4.74707862,-0.20507805,8.08753077,0.413245,-1.719389,0.008404
1.6187260000151582,1.6187260000151582,0.0,0.0,2.6640916580960177,0.0,0.0,-4.24621926,-0.16495515,8.05923873,0.434935,-1.695892,-0.040946
1.638710000028368,1.638710000028368,0.0,0.0,2.662658262970721,0.0,0.0,-3.75793632,-0.38259981,7.93155177,0.459187,-1.734467,-0.092928
1.6586939999833703,1.6586939999833703,0.0,0.0,2.6599822291439335,0.0,0.0,-3.51977895,-0.40894947,8.03603808,0.471013,-1.804304,-0.159307
1.6786779999965802,1.6786779999965802,0.0,0.0,2.6558333090641435,0.0,0.0,-3.70554111,-0.39428352,8.443045170000001,0.47145,-1.822089,-0.238179
1.6986630000174046,1.6986630000174046,0.0,0.0,2.6504286345593258,0.0,0.0,-3.77484876,-0.58858038,8.83568061,0.438317,-1.787176,-0.304698
1.7186470000306144,1.7186470000306144,0.0,0.0,2.6438543496745677,0.0,0.0,-3.718715940000001,-0.6742020599999999,9.1709766,0.377563,-1.742853,-0.366127
1.7386309999856167,1.7386309999856167,0.0,0.0,2.6359886073220657,0.0,0.0,-3.46918878,-0.4426272,9.3676671,0.312211,-1.691554,-0.434112
1.7386309999856167,1.7386309999856167,0.0,0.0,2.630745395449866,0.0,0.0,-3.46918878,-0.4426272,9.3676671,0.312211,-1.691554,-0.434112
1.7586149999988265,1.7586149999988265,0.0,0.0,2.6219693237724204,0.0,0.0,-3.15782919,-0.50834439,9.41781582,0.253279,-1.647395,-0.51514
1.7985840000328608,1.7985840000328608,0.0,0.0,2.606444722067672,0.0,0.0,-2.25775188,-0.99887382,9.93005478,0.112972,-1.571328,-0.638122
1.818567999987863,1.818567999987863,0.0,0.0,2.593642201962785,0.0,0.0,-2.3373894600000003,-0.82942569,10.25951382,0.013347,-1.416958,-0.687962
1.8385520000010729,1.8385520000010729,0.0,0.0,2.580408817400677,0.0,0.0,-2.31089265,-0.6976970100000001,10.7151687,-0.084071,-1.207234,-0.70604
1.8585370000218973,1.8585370000218973,0.0,0.0,2.567372091070432,0.0,0.0,-1.7937192600000005,-0.7782273000000001,11.08564335,-0.169712,-1.044704,-0.689156
1.8785210000351071,1.8785210000351071,0.0,0.0,2.5549587220173002,0.0,0.0,-1.80240111,-0.68018616,11.274407370000002,-0.227582,-0.871058,-0.649025
1.8985059999977238,1.8985059999977238,0.0,0.0,2.5428404994514207,0.0,0.0,-1.80240111,-0.42870681,11.23159653,-0.24878,-0.662846,-0.628515
1.9184890000033192,1.9184890000033192,0.0,0.0,2.5312927590986716,0.0,0.0,-1.62337842,-0.26121087,11.55462021,-0.243507,-0.436382,-0.59315
1.9384740000241436,1.9384740000241436,0.0,0.0,2.520729709388382,0.0,0.0,-1.04737446,-0.22034241,11.82690657,-0.224045,-0.265421,-0.534971
1.9584580000373535,1.9584580000373535,0.0,0.0,2.510989801269023,0.0,0.0,-0.45206442,-0.50265459,11.592938070000002,-0.205025,-0.152738,-0.487203
1.9784429999999702,1.9784429999999702,0.0,0.0,2.501687020522205,0.0,0.0,-0.27288477,-0.56357469,11.2818924,-0.177235,-0.111072,-0.46226
1.9984260000055656,1.9984260000055656,0.0,0.0,2.355519444580799,0.0,0.0,-0.26030835,-0.49831857,11.31078285,-0.143739,-0.089214,-0.419629
2.0184100000187755,2.0184100000187755,0.0,0.0,2.211873862489618,0.0,0.0,-0.07499745,-0.57899601,11.32305516,-0.11995,-0.079666,-0.348827
2.0383940000319853,2.0383940000319853,0.0,0.0,2.0725927658137575,0.0,0.0,-0.05823216,-0.44068482,11.066033160000002,-0.084874,-0.077073,-0.289521
2.0383940000319853,2.0383940000319853,0.0,0.0,2.074769072490331,0.0,0.0,-0.05823216,-0.44068482,11.066033160000002,-0.084874,-0.077073,-0.289521
2.078363000007812,2.078363000007812,0.0,0.0,2.061689679166978,0.0,0.0,-0.16839846,-0.10972485,10.52237277,0.00993,-0.063331,-0.197654
2.098347000021022,2.098347000021022,0.0,0.0,2.058135031727618,0.0,0.0,0.20956122,-0.33485454,10.46803518,0.036142,-0.120225,-0.13786
2.1383159999968484,2.1383159999968484,0.0,0.0,2.0492263066593273,0.0,0.0,0.21015963,-0.18097488,10.63567827,0.076558,-0.194335,-0.074018
2.1383159999968484,2.1383159999968484,0.0,0.0,2.0531814701977247,0.0,0.0,0.21015963,-0.18097488,10.63567827,0.076558,-0.194335,-0.074018
2.178284000023268,2.178284000023268,0.0,0.0,2.045648684674557,0.0,0.0,-0.24892875,-0.10463346,11.09776851,0.111665,-0.085664,-0.078262
2.178284000023268,2.178284000023268,0.0,0.0,2.0484815303046657,0.0,0.0,-0.24892875,-0.10463346,11.09776851,0.111665,-0.085664,-0.078262
2.198268999985885,2.198268999985885,0.0,0.0,2.0458296746969786,0.0,0.0,-0.21735036,-0.12768696,11.45058516,0.117458,-0.024345,-0.110307
2.2182529999990948,2.2182529999990948,0.0,0.0,2.0427747077270757,0.0,0.0,0.12288987,0.01826622,11.543691870000002,0.122658,-0.033283,-0.139169
2.2582210000255145,2.2582210000255145,0.0,0.0,2.0354785650655387,0.0,0.0,0.14878827,-0.14235291,11.40253578,0.093715,-0.109031,-0.15508
2.2782059999881312,2.2782059999881312,0.0,0.0,2.0324811840747543,0.0,0.0,-0.35776089,-0.24055101,11.600275950000002,0.044403,-0.083324,-0.145565
2.298190000001341,2.298190000001341,0.0,0.0,2.0299549898841924,0.0,0.0,-0.5724135,-0.13157172,11.38427937,-0.008906,-0.02893,-0.120101
2.318174000014551,2.318174000014551,0.0,0.0,2.028423640828464,0.0,0.0,-0.34503732,-0.03876912,11.02651848,-0.058394,-0.017703,-0.065788
2.338158000027761,2.338158000027761,0.0,0.0,2.0281116764083915,0.0,0.0,0.04266369,-0.0811287,10.798848,-0.10159,-0.081712,0.000741
2.338158000027761,2.338158000027761,0.0,0.0,2.0303918486429247,0.0,0.0,0.04266369,-0.0811287,10.798848,-0.10159,-0.081712,0.000741
2.338158000027761,2.338158000027761,0.0,0.0,2.0321853404301358,0.0,0.0,0.04266369,-0.0811287,10.798848,-0.10159,-0.081712,0.000741
2.3981110000167973,2.3981110000167973,0.0,0.0,2.0302084817716377,0.0,0.0,-0.24444558,-0.37496763,9.90340101,-0.218275,-0.133209,0.157423
2.4180960000376217,2.4180960000376217,0.0,0.0,2.032880609881735,0.0,0.0,-0.22962267,-0.2399526,9.83185668,-0.220958,-0.12992,0.161578
2.438079999992624,2.438079999992624,0.0,0.0,2.0353958554881446,0.0,0.0,0.07380063,-0.17408826,9.75431844,-0.198539,-0.175281,0.148436
2.458064000005834,2.458064000005834,0.0,0.0,2.03744478086959,0.0,0.0,0.09879651,-0.10762551,9.73155924,-0.168347,-0.222402,0.118555
2.4780480000190437,2.4780480000190437,0.0,0.0,2.0390723209675734,0.0,0.0,0.02110131,-0.12888378,9.708809850000002,-0.136996,-0.237315,0.092204
2.4980329999816604,2.4980329999816604,0.0,0.0,2.040294413313773,0.0,0.0,-0.1077726599999999,-0.21764466,9.64983213,-0.110307,-0.220407,0.067517
2.5180169999948703,2.5180169999948703,0.0,0.0,2.041057296759023,0.0,0.0,-0.20312586,-0.28441152,9.73904427,-0.089431,-0.174699,0.040383
2.53800100000808,2.53800100000808,0.0,0.0,2.0413857228310244,0.0,0.0,-0.13876245,-0.29847906,9.80012133,-0.067203,-0.116815,0.01524
2.5579860000289045,2.5579860000289045,0.0,0.0,2.0413322360969035,0.0,0.0,-0.08532738,-0.33679692,9.76913154,-0.017928,-0.074113,-0.006428
2.5779699999839067,2.5779699999839067,0.0,0.0,2.041505114315842,0.0,0.0,0.09729558,-0.09265545,9.79248915,0.077295,-0.06541,0.007077
2.5979539999971166,2.5979539999971166,0.0,0.0,2.041551057523069,0.0,0.0,0.46778004,-0.46418958,9.82856052,0.101469,-0.108869,3.6e-05
2.6179380000103265,2.6179380000103265,0.0,0.0,2.042095098990048,0.0,0.0,0.20118348,0.06047865,10.174490550000002,0.194867,-0.127655,0.028921
2.637923000031151,2.637923000031151,0.0,0.0,2.042448134692844,0.0,0.0,0.2371077,0.24294465,10.27732878,0.337357,-0.020432,0.017714
2.637923000031151,2.637923000031151,0.0,0.0,2.0424532609775525,0.0,0.0,0.2371077,0.24294465,10.27732878,0.337357,-0.020432,0.017714
2.657906999986153,2.657906999986153,0.0,0.0,2.042871282746015,0.0,0.0,0.22632651,-0.46522944,9.39057345,0.271197,0.00734,0.021901
2.7178600000333972,2.7178600000333972,0.0,0.0,2.04378636795545,0.0,0.0,0.09370512,-1.84042467,10.32628068,-0.004633,-0.347773,0.009597
2.7178600000333972,2.7178600000333972,0.0,0.0,2.0436675813027225,0.0,0.0,0.09370512,-1.84042467,10.32628068,-0.004633,-0.347773,0.009597
2.7378439999883994,2.7378439999883994,0.0,0.0,2.043621745082829,0.0,0.0,-0.47226321,0.36883638,9.40583781,0.117723,0.01433,-0.005655
2.7778130000224337,2.7778130000224337,0.0,0.0,2.044044791710675,0.0,0.0,-0.03517866,0.46747593,9.34611453,0.075058,-0.087341,0.007983
2.7977970000356436,2.7977970000356436,0.0,0.0,2.044226326054149,0.0,0.0,0.55849311,-0.31314501,9.85939335,0.049509,-0.089466,0.00887
2.817780999990646,2.817780999990646,0.0,0.0,2.044603287560709,0.0,0.0,-0.31763799,-0.5522049,10.417739310000002,-0.007355,0.013867,0.019423
2.817780999990646,2.817780999990646,0.0,0.0,2.0447110267242907,0.0,0.0,-0.31763799,-0.5522049,10.417739310000002,-0.007355,0.013867,0.019423
2.85775000002468,2.85775000002468,0.0,0.0,2.045187226228368,0.0,0.0,0.1722930299999999,-0.42092748,9.78545538,-0.000653,0.007606,0.009887
2.87773400003789,2.87773400003789,0.0,0.0,2.04515747946089,0.0,0.0,0.47900268,0.00150093,9.77392863,0.014959,-0.005957,-0.003002
2.897717999992892,2.897717999992892,0.0,0.0,2.044982623346483,0.0,0.0,0.23785326,-0.1986328799999999,9.7721334,-0.003458,-0.005871,-0.010893
2.9177030000137165,2.9177030000137165,0.0,0.0,2.044563800694057,0.0,0.0,0.52525683,0.05478885,9.7986204,0.006279,-0.009331,-0.024252
2.9376870000269264,2.9376870000269264,0.0,0.0,2.0440858614698705,0.0,0.0,0.42301701,-0.0432621,9.76434426,-4.2e-05,-0.00467,-0.027172
2.9376870000269264,2.9376870000269264,0.0,0.0,2.0436670042453544,0.0,0.0,0.42301701,-0.0432621,9.76434426,-4.2e-05,-0.00467,-0.027172
2.9376870000269264,2.9376870000269264,0.0,0.0,2.043336870230828,0.0,0.0,0.42301701,-0.0432621,9.76434426,-4.2e-05,-0.00467,-0.027172
2.997640000015963,2.997640000015963,0.0,0.0,2.0425282674054692,0.0,0.0,0.47751156,-0.18636057,9.73844586,-0.001957,-0.004355,-0.031104
3.0176240000291727,3.0176240000291727,0.0,0.0,2.0421263669873095,0.0,0.0,0.44637462,-0.19414971,9.72856719,0.017007,-0.022054,-0.021565
3.037607999984175,3.037607999984175,0.0,0.0,2.042203963422212,0.0,0.0,0.32901759,-0.28560834,9.59864355,0.018891,-0.018323,0.006034
3.057591999997385,3.057591999997385,0.0,0.0,2.0426272940370263,0.0,0.0,0.57540555,-0.50190903,9.91358379,-0.002928,-0.005877,0.02545
3.077577000018209,3.077577000018209,0.0,0.0,2.0429916258166525,0.0,0.0,0.42047622,-0.41718006,9.89067744,0.00528,-0.00462,0.021434
3.097561000031419,3.097561000031419,0.0,0.0,2.0430700293224957,0.0,0.0,0.55519695,-0.21031659,9.81119682,0.010034,-0.011622,0.004603
3.1175449999864213,3.1175449999864213,0.0,0.0,2.042923214551399,0.0,0.0,0.4047606,-0.03023442,9.76539393,0.005267,-0.000992,-0.008387
3.1375300000072457,3.1375300000072457,0.0,0.0,2.042807110513916,0.0,0.0,0.4135896,0.11616021,9.7695828,0.005212,-0.00152,-0.006474
3.1575140000204556,3.1575140000204556,0.0,0.0,2.0428562583352035,0.0,0.0,0.38005902,0.05433759,9.748922940000002,0.001979,0.000259,0.003094
3.1774980000336654,3.1774980000336654,0.0,0.0,2.0432574614207617,0.0,0.0,0.53154504,0.0606258,9.69054363,0.002152,-0.002735,0.023187
3.1974819999886677,3.1974819999886677,0.0,0.0,2.0440853096347915,0.0,0.0,0.39742272,0.04086846,9.71390124,0.002018,0.006182,0.047204
3.217467000009492,3.217467000009492,0.0,0.0,2.0452514685148575,0.0,0.0,0.37736127,-0.07813665,9.79203789,-0.004154,-0.000113,0.065766
3.237451000022702,3.237451000022702,0.0,0.0,2.0464761257370796,0.0,0.0,0.48349566,-0.17992521,9.908198100000002,-0.001826,0.002122,0.068025
3.237451000022702,3.237451000022702,0.0,0.0,2.0471758285700474,0.0,0.0,0.48349566,-0.17992521,9.908198100000002,-0.001826,0.002122,0.068025
3.2774199999985285,3.2774199999985285,0.0,0.0,2.049052915464584,0.0,0.0,0.51223896,-0.30641535,9.88574301,0.003186,-0.003876,0.071943
3.2974040000117384,3.2974040000117384,0.0,0.0,2.0503937974264765,0.0,0.0,0.41598324,-0.35281665,9.78829047,0.002767,-0.000769,0.07217
3.3173880000249483,3.3173880000249483,0.0,0.0,2.0517517958071663,0.0,0.0,0.5092371,-0.3107513699999999,9.73021527,0.004393,-0.001085,0.072356
3.337372000038158,3.337372000038158,0.0,0.0,2.0528287233123947,0.0,0.0,0.50834439,-0.31045707,9.73979964,0.00392,-0.002576,0.055473
3.3773410000139847,3.3773410000139847,0.0,0.0,2.054117172374509,0.0,0.0,0.5020561800000001,-0.27707364,9.77228055,0.0026,0.00019,0.018564
3.3773410000139847,3.3773410000139847,0.0,0.0,2.053736995390322,0.0,0.0,0.5020561800000001,-0.27707364,9.77228055,0.0026,0.00019,0.018564
3.3973250000271946,3.3973250000271946,0.0,0.0,2.053926372357118,0.0,0.0,0.5375291400000001,-0.30730806,9.7897914,0.002228,0.000285,0.004236
3.437294000003021,3.437294000003021,0.0,0.0,2.054702302019213,0.0,0.0,0.45235872,-0.23665644,9.76809168,0.004023,0.00075,0.003307
3.437294000003021,3.437294000003021,0.0,0.0,2.054271893126696,0.0,0.0,0.45235872,-0.23665644,9.76809168,0.004023,0.00075,0.003307
3.457278000016231,3.457278000016231,0.0,0.0,2.054428944052174,0.0,0.0,0.46957527,-0.21450546,9.76180347,0.002419,0.002155,0.004123
3.4972469999920577,3.4972469999920577,0.0,0.0,2.054979367664936,0.0,0.0,0.46149183,-0.16705449,9.77886306,0.00261,0.001031,0.002804
3.5172310000052676,3.5172310000052676,0.0,0.0,2.0551010517743347,0.0,0.0,0.47287143,-0.1676529,9.75940983,0.002139,-0.001755,0.004889
3.5172310000052676,3.5172310000052676,0.0,0.0,2.0548862888589907,0.0,0.0,0.47287143,-0.1676529,9.75940983,0.002139,-0.001755,0.004889
3.5372150000184774,3.5372150000184774,0.0,0.0,2.0550235712256946,0.0,0.0,0.47182176,-0.17753157,9.76883724,0.002502,-0.000481,0.004677
3.5372150000184774,3.5372150000184774,0.0,0.0,2.0548733622775988,0.0,0.0,0.47182176,-0.17753157,9.76883724,0.002502,-0.000481,0.004677
3.597168000007514,3.597168000007514,0.0,0.0,2.055506465801397,0.0,0.0,0.4564004400000001,-0.2342628,9.780511140000002,0.003312,0.000123,0.002817
3.617152000020724,3.617152000020724,0.0,0.0,2.0556140347595155,0.0,0.0,0.47900268,-0.25342173,9.79143948,0.003423,0.000614,0.004619
3.6371360000339337,3.6371360000339337,0.0,0.0,2.055682298997443,0.0,0.0,0.46418958,-0.25193061,9.78335604,0.002228,-0.001061,0.002524
3.6571209999965504,3.6571209999965504,0.0,0.0,2.05577520643814,0.0,0.0,0.46058931,-0.24519114,9.76015539,0.003117,-0.000841,0.004017
3.6571209999965504,3.6571209999965504,0.0,0.0,2.0556945500280985,0.0,0.0,0.46058931,-0.24519114,9.76015539,0.003117,-0.000841,0.004017
3.6571209999965504,3.6571209999965504,0.0,0.0,2.0556313175390555,0.0,0.0,0.46058931,-0.24519114,9.76015539,0.003117,-0.000841,0.004017
3.717073999985587,3.717073999985587,0.0,0.0,2.0560142909138452,0.0,0.0,0.47526507,-0.21106215,9.768690090000002,0.002708,-0.000587,0.002382
3.7370579999987967,3.7370579999987967,0.0,0.0,2.056111230353503,0.0,0.0,0.47691315,-0.19534653,9.78290478,0.003758,0.000314,0.004519
3.7570420000120066,3.7570420000120066,0.0,0.0,2.0561966592927057,0.0,0.0,0.46298295,-0.2023803,9.76329459,0.004074,0.000524,0.003915
3.7770260000252165,3.7770260000252165,0.0,0.0,2.0562901053607234,0.0,0.0,0.46298295,-0.19324719,9.7755669,0.003785,0.001029,0.004428
3.797010999987833,3.797010999987833,0.0,0.0,2.0564096044445392,0.0,0.0,0.46897686,-0.21211182,9.76988691,0.002535,0.00076,0.005953
3.816995000001043,3.816995000001043,0.0,0.0,2.0565193690239916,0.0,0.0,0.47151765,-0.22408002,9.77587101,0.002773,-0.000491,0.005401
3.836979000014253,3.836979000014253,0.0,0.0,2.0566201529418198,0.0,0.0,0.48438837,-0.23696055,9.77991273,0.004054,-0.001576,0.004901
3.836979000014253,3.836979000014253,0.0,0.0,2.056604959769392,0.0,0.0,0.48438837,-0.23696055,9.77991273,0.004054,-0.001576,0.004901
3.836979000014253,3.836979000014253,0.0,0.0,2.0565929753183108,0.0,0.0,0.48438837,-0.23696055,9.77991273,0.004054,-0.001576,0.004901
3.8969320000032894,3.8969320000032894,0.0,0.0,2.0569064961340606,0.0,0.0,0.46687752,-0.2228832,9.76329459,0.002608,0.001264,0.00412
3.9169160000164993,3.9169160000164993,0.0,0.0,2.0570105485473498,0.0,0.0,0.47211606,-0.21555513,9.7784118,0.002657,-0.000378,0.005168
3.9369010000373237,3.9369010000373237,0.0,0.0,2.05709141508948,0.0,0.0,0.48065076,-0.21225897,9.77946147,0.002948,0.000327,0.003836
3.956884999992326,3.956884999992326,0.0,0.0,2.0571685193709097,0.0,0.0,0.47301858,-0.20312586,9.75970413,0.0031,-0.00018,0.003654
3.976869000005536,3.976869000005536,0.0,0.0,2.0572648704370273,0.0,0.0,0.47256732,-0.20567646,9.77422293,0.003021,-0.000782,0.004796
3.99685400002636,3.99685400002636,0.0,0.0,2.057336713318878,0.0,0.0,0.4742154,-0.21764466,9.76015539,0.003192,-0.002638,0.003388
4.036821999994572,4.036821999994572,0.0,0.0,2.057499965771793,0.0,0.0,0.47032083,-0.21914559,9.77003406,0.003338,0.000925,0.003374
4.036821999994572,4.036821999994572,0.0,0.0,2.057480191407975,0.0,0.0,0.47032083,-0.21914559,9.77003406,0.003338,0.000925,0.003374
4.0767910000286065,4.0767910000286065,0.0,0.0,2.05763037484808,0.0,0.0,0.47077209,-0.23591088,9.77048532,0.003285,-0.001469,0.003041
4.096775999991223,4.096775999991223,0.0,0.0,2.0576823624185065,0.0,0.0,0.47062494,-0.22273605,9.77302611,0.001947,2.9e-05,0.002487
4.116758999996819,4.116758999996819,0.0,0.0,2.057753706390356,0.0,0.0,0.47287143,-0.21525102,9.77003406,0.003499,-0.000643,0.003539
4.136744000017643,4.136744000017643,0.0,0.0,2.0578199750121593,0.0,0.0,0.47182176,-0.22393287,9.77601816,0.003647,0.000421,0.003264
4.136744000017643,4.136744000017643,0.0,0.0,2.0578111250600166,0.0,0.0,0.47182176,-0.22393287,9.77601816,0.003647,0.000421,0.003264
4.136744000017643,4.136744000017643,0.0,0.0,2.0578041798617157,0.0,0.0,0.47182176,-0.22393287,9.77601816,0.003647,0.000421,0.003264
4.196695999999065,4.196695999999065,0.0,0.0,2.0580297645763572,0.0,0.0,0.47226321,-0.20283156,9.755064,0.002158,-0.000535,0.003924
4.196695999999065,4.196695999999065,0.0,0.0,2.058032837029934,0.0,0.0,0.47226321,-0.20283156,9.755064,0.002158,-0.000535,0.003924
4.236665999982506,4.236665999982506,0.0,0.0,2.0581751373487727,0.0,0.0,0.45699885,-0.21479976,9.764942670000002,0.003468,-0.001496,0.003319
4.256649999995716,4.256649999995716,0.0,0.0,2.0582491269922034,0.0,0.0,0.47182176,-0.21510387,9.7695828,0.003275,0.000782,0.003704
4.276633000001311,4.276633000001311,0.0,0.0,2.0583190922970536,0.0,0.0,0.47002653,-0.2282787,9.76943565,0.003935,0.000937,0.003476
4.276633000001311,4.276633000001311,0.0,0.0,2.058316195856717,0.0,0.0,0.47002653,-0.2282787,9.76943565,0.003935,0.000937,0.003476
4.296618000022136,4.296618000022136,0.0,0.0,2.0583973989841944,0.0,0.0,0.46687752,-0.2257281,9.76539393,0.003922,-0.000708,0.004178
4.336586999997962,4.336586999997962,0.0,0.0,2.0585418956446553,0.0,0.0,0.46418958,-0.22378572,9.75925287,0.00284,-0.001404,0.003501
4.356570000003558,4.356570000003558,0.0,0.0,2.058652297238037,0.0,0.0,0.46194309,-0.20627487,9.7664436,0.002229,6.4e-05,0.005761
4.356570000003558,4.356570000003558,0.0,0.0,2.0586802416077967,0.0,0.0,0.46194309,-0.20627487,9.7664436,0.002229,6.4e-05,0.005761
4.396539999986999,4.396539999986999,0.0,0.0,2.0588297832967513,0.0,0.0,0.46089342,-0.21046374,9.76733631,0.00296,-0.001678,0.003178
4.416524000000209,4.416524000000209,0.0,0.0,2.0589085080426264,0.0,0.0,0.4601478600000001,-0.21884148,9.77392863,0.003288,-0.000209,0.003925
4.436507000005804,4.436507000005804,0.0,0.0,2.058994351392954,0.0,0.0,0.47510811,-0.2026746,9.78829047,0.002135,0.001145,0.004333
4.436507000005804,4.436507000005804,0.0,0.0,2.0589984288269614,0.0,0.0,0.47510811,-0.2026746,9.78829047,0.002135,0.001145,0.004333
4.436507000005804,4.436507000005804,0.0,0.0,2.05900163529752,0.0,0.0,0.47510811,-0.2026746,9.78829047,0.002135,0.001145,0.004333
4.4964599999948405,4.4964599999948405,0.0,0.0,2.0592714561414445,0.0,0.0,0.46792719,-0.22108797,9.77048532,0.003256,-0.000825,0.005424
4.516445000015665,4.516445000015665,0.0,0.0,2.0593556167540843,0.0,0.0,0.48259314,-0.22558095,9.76704201,0.002855,0.000321,0.004196
4.536430000036489,4.536430000036489,0.0,0.0,2.059440913826358,0.0,0.0,0.45625329,-0.21735036,9.77991273,0.004473,-0.000709,0.004264
4.536430000036489,4.536430000036489,0.0,0.0,2.0594405066984685,0.0,0.0,0.45625329,-0.21735036,9.77991273,0.004473,-0.000709,0.004264
4.576396999997087,4.576396999997087,0.0,0.0,2.0596150413044327,0.0,0.0,0.47091924,-0.22648347,9.78005988,0.002205,-0.000477,0.004471
4.596383000025526,4.596383000025526,0.0,0.0,2.059694843465305,0.0,0.0,0.47406825,-0.2137599,9.77032836,0.003789,0.000201,0.003944
4.616367000038736,4.616367000038736,0.0,0.0,2.0597671245118034,0.0,0.0,0.47751156,-0.21735036,9.7635987,0.003298,-0.000663,0.003519
4.636350999993738,4.636350999993738,0.0,0.0,2.0598700870518964,0.0,0.0,0.45924534,-0.22123512,9.77092677,0.001742,-0.00035,0.005302
4.656333999999333,4.656333999999333,0.0,0.0,2.059973454010117,0.0,0.0,0.46508229,-0.21749751,9.77541975,0.001742,-0.00035,0.005302
4.676320000027772,4.676320000027772,0.0,0.0,2.0600744911223234,0.0,0.0,0.46553355,-0.20896281,9.76913154,0.003289,-1.5e-05,0.005147
4.696303999982774,4.696303999982774,0.0,0.0,2.0601284465037075,0.0,0.0,0.4716648,-0.21854718,9.76164651,0.003217,0.000302,0.002423
4.716287999995984,4.716287999995984,0.0,0.0,2.060211439192768,0.0,0.0,0.47541222,-0.21943989,9.76404996,0.00322,0.000544,0.004137
4.716287999995984,4.716287999995984,0.0,0.0,2.060209815890616,0.0,0.0,0.47541222,-0.21943989,9.76404996,0.00322,0.000544,0.004137
4.716287999995984,4.716287999995984,0.0,0.0,2.0602085330327515,0.0,0.0,0.47541222,-0.21943989,9.76404996,0.00322,0.000544,0.004137
4.7362710000015795,4.7362710000015795,0.0,0.0,2.060282539793916,0.0,0.0,0.4767561900000001,-0.2140542,9.78275763,0.003642,0.002142,0.003486
4.7962249999982305,4.7962249999982305,0.0,0.0,2.060518642900382,0.0,0.0,0.47510811,-0.21794877,9.77601816,0.002107,-0.001349,0.003458
4.836194000032265,4.836194000032265,0.0,0.0,2.060709199029703,0.0,0.0,0.47570652,-0.20656917,9.77737194,0.003495,7.2e-05,0.005506
4.856177999987267,4.856177999987267,0.0,0.0,2.060811457536534,0.0,0.0,0.47196891,-0.21840003,9.76823883,0.003117,-0.000464,0.005137
4.876162000000477,4.876162000000477,0.0,0.0,2.0608900511317074,0.0,0.0,0.47211606,-0.23172201,9.76898439,0.001878,0.001159,0.003915
4.896147000021301,4.896147000021301,0.0,0.0,2.0609581258216245,0.0,0.0,0.46493514,-0.2128573799999999,9.77287896,0.003944,0.001125,0.003359
4.916131000034511,4.916131000034511,0.0,0.0,2.061036802703505,0.0,0.0,0.4564004400000001,-0.21599658,9.7752726,0.004204,0.001613,0.003921
4.936114999989513,4.936114999989513,0.0,0.0,2.061139777639835,0.0,0.0,0.46972242,-0.22108797,9.768690090000002,0.002062,-0.00014,0.005226
4.956099000002723,4.956099000002723,0.0,0.0,2.0612115325631137,0.0,0.0,0.47930679,-0.22768029,9.77137803,0.001904,-0.000218,0.003532
4.976084000023548,4.976084000023548,0.0,0.0,2.0612738630966483,0.0,0.0,0.45759726,-0.21211182,9.78021684,0.003539,-0.00139,0.003021
4.996067000029143,4.996067000029143,0.0,0.0,2.061380814849816,0.0,0.0,0.46104057,-0.22079367,9.77452704,0.003763,-0.000247,0.005481
5.016050999984145,5.016050999984145,0.0,0.0,2.0614680094882374,0.0,0.0,0.46388547,-0.20986533,9.77766624,0.003355,-0.001456,0.004377
5.0360360000049695,5.0360360000049695,0.0,0.0,2.061555863172133,0.0,0.0,0.4716648,-0.21914559,9.77108373,0.004795,-0.000689,0.004412
5.0360360000049695,5.0360360000049695,0.0,0.0,2.061558080185618,0.0,0.0,0.4716648,-0.21914559,9.77108373,0.004795,-0.000689,0.004412
5.0360360000049695,5.0360360000049695,0.0,0.0,2.0615598311070293,0.0,0.0,0.4716648,-0.21914559,9.77108373,0.004795,-0.000689,0.004412
5.0959879999863915,5.0959879999863915,0.0,0.0,2.061807134071877,0.0,0.0,0.46508229,-0.21495672,9.76733631,0.003175,-0.001144,0.0037
5.115973000007216,5.115973000007216,0.0,0.0,2.061897550453766,0.0,0.0,0.4653864,-0.22648347,9.78215922,0.003337,-0.000954,0.004566
5.135957000020426,5.135957000020426,0.0,0.0,2.0619841537066765,0.0,0.0,0.47242017,-0.21300453,9.77617512,0.001856,-0.000895,0.004343
5.155941000033636,5.155941000033636,0.0,0.0,2.062056223628681,0.0,0.0,0.46732878,-0.21225897,9.78305193,0.00093,-0.001439,0.003514
5.175925999996252,5.175925999996252,0.0,0.0,2.0621602312997656,0.0,0.0,0.47077209,-0.21644784,9.79473564,0.003288,-0.00107,0.005348
5.195910000009462,5.195910000009462,0.0,0.0,2.062232937897212,0.0,0.0,0.47510811,-0.22153923,9.77797035,0.002597,-0.00102,0.003541
5.215894000022672,5.215894000022672,0.0,0.0,2.0623041005042353,0.0,0.0,0.47331288,-0.21255327,9.77572386,0.004153,0.00043,0.003467
5.235878000035882,5.235878000035882,0.0,0.0,2.0623719450469675,0.0,0.0,0.46942812,-0.21704625,9.77257485,0.003182,-0.000515,0.003291
5.255862999998499,5.255862999998499,0.0,0.0,2.062439528153181,0.0,0.0,0.47032083,-0.21225897,9.77587101,0.003182,-0.000515,0.003291
5.275847000011709,5.275847000011709,0.0,0.0,2.0625416568265074,0.0,0.0,0.47691315,-0.21510387,9.76224492,0.003549,-0.000321,0.005283
5.2958310000249185,5.2958310000249185,0.0,0.0,2.062614216875228,0.0,0.0,0.46986957,-0.22438413,9.78141366,0.002211,-0.001251,0.003563
5.315815999987535,5.315815999987535,0.0,0.0,2.0626854907296854,0.0,0.0,0.46658322,-0.2168991,9.78440571,0.002936,-0.000288,0.003499
5.335800000000745,5.335800000000745,0.0,0.0,2.062753764327878,0.0,0.0,0.46388547,-0.21840003,9.7664436,0.003863,0.000299,0.003337
5.335800000000745,5.335800000000745,0.0,0.0,2.0627454743044016,0.0,0.0,0.46388547,-0.21840003,9.7664436,0.003863,0.000299,0.003337
5.355784000013955,5.355784000013955,0.0,0.0,2.0628265529884118,0.0,0.0,0.47436255,-0.21884148,9.76823883,0.003467,0.000215,0.004126
5.3957529999897815,5.3957529999897815,0.0,0.0,2.0629714575436093,0.0,0.0,0.46613196,-0.20881566,9.75985128,0.003545,-2.2e-05,0.003339
5.415737000002991,5.415737000002991,0.0,0.0,2.063049789392699,0.0,0.0,0.47287143,-0.22333446,9.77437008,0.001508,-0.001472,0.003939
5.435721000016201,5.435721000016201,0.0,0.0,2.0631367518654473,0.0,0.0,0.47242017,-0.21884148,9.76539393,0.002333,-8.2e-05,0.004428
5.455706000037026,5.455706000037026,0.0,0.0,2.063211995216019,0.0,0.0,0.47361699,-0.22768029,9.77092677,0.003335,-0.000586,0.003748
5.495674000005238,5.495674000005238,0.0,0.0,2.063400964572347,0.0,0.0,0.46627911,-0.21615354,9.77916717,0.003299,-0.001189,0.005631
5.515658000018448,5.515658000018448,0.0,0.0,2.063487959142824,0.0,0.0,0.45594918,-0.22498254,9.76404996,0.003816,0.000424,0.004362
5.535643000039272,5.535643000039272,0.0,0.0,2.063570416030492,0.0,0.0,0.47331288,-0.21225897,9.77228055,0.002483,0.001034,0.004124
5.555626999994274,5.555626999994274,0.0,0.0,2.063608404454955,0.0,0.0,0.4628358,-0.21450546,9.76883724,0.002932,0.001133,0.001757
5.575611000007484,5.575611000007484,0.0,0.0,2.063667260924264,0.0,0.0,0.46957527,-0.22588506,9.77257485,0.002292,-0.000596,0.00288
5.5955960000283085,5.5955960000283085,0.0,0.0,1.89632801756086,0.0,0.0,0.48065076,-0.21764466,9.77108373,0.004416,-0.001508,0.004961
5.615579999983311,5.615579999983311,0.0,0.0,1.8963793904199582,0.0,0.0,0.4716648,-0.21780162,9.76149936,0.003157,-5.3e-05,0.002456
5.635563999996521,5.635563999996521,0.0,0.0,1.8964641542391156,0.0,0.0,0.47331288,-0.21420135,9.77871591,0.004091,-0.001475,0.004336
5.635563999996521,5.635563999996521,0.0,0.0,1.8964764414722968,0.0,0.0,0.47331288,-0.21420135,9.77871591,0.004091,-0.001475,0.004336
5.635563999996521,5.635563999996521,0.0,0.0,1.8964861327453466,0.0,0.0,0.47331288,-0.21420135,9.77871591,0.004091,-0.001475,0.004336
5.695516999985557,5.695516999985557,0.0,0.0,1.8967021235339496,0.0,0.0,0.46089342,-0.21106215,9.78245352,0.001423,2.7e-05,0.003315
5.715500999998767,5.715500999998767,0.0,0.0,1.8967901259325242,0.0,0.0,0.4685256,-0.21390705,9.76568823,0.003189,0.001075,0.004507
5.735486000019591,5.735486000019591,0.0,0.0,1.8968532637280102,0.0,0.0,0.48634056,-0.23052519,9.78141366,0.002957,0.000498,0.003072
5.755470000032801,5.755470000032801,0.0,0.0,1.8969338733918528,0.0,0.0,0.47002653,-0.2055195,9.76180347,0.002124,-0.000961,0.004083
5.775453999987803,5.775453999987803,0.0,0.0,1.8970208791962095,0.0,0.0,0.47436255,-0.22048956,9.76284333,0.002607,-0.000496,0.004441
5.795438000001013,5.795438000001013,0.0,0.0,1.897106625680049,0.0,0.0,0.47211606,-0.22992678,9.77003406,0.001316,-0.001141,0.004356
5.815423000021838,5.815423000021838,0.0,0.0,1.89722671449067,0.0,0.0,0.46807434,-0.20866851,9.77617512,0.00281,0.000506,0.006311
5.8354070000350475,5.8354070000350475,0.0,0.0,1.897327127199194,0.0,0.0,0.4656807,-0.2225889,9.76883724,0.004792,5.3e-05,0.00514
5.85539099999005,5.85539099999005,0.0,0.0,1.8974216936878712,0.0,0.0,0.46074627,-0.21749751,9.77168214,0.003656,-5e-06,0.004788
5.875376000010874,5.875376000010874,0.0,0.0,1.8974739887918606,0.0,0.0,0.46104057,-0.21330864,9.75551526,0.003301,-0.000324,0.002356
5.895360000024084,5.895360000024084,0.0,0.0,1.8975377925477241,0.0,0.0,0.47032083,-0.2282787,9.76913154,0.004043,-0.000187,0.003055
5.915344000037294,5.915344000037294,0.0,0.0,1.8976286295365865,0.0,0.0,0.47630493,-0.22213764,9.77077962,0.002553,-0.001569,0.004627
5.935328999999911,5.935328999999911,0.0,0.0,1.8976999506054515,0.0,0.0,0.45894123,-0.22244175,9.76120506,0.001276,0.000199,0.003494
5.935328999999911,5.935328999999911,0.0,0.0,1.8976921930246275,0.0,0.0,0.45894123,-0.22244175,9.76120506,0.001276,0.000199,0.003494
5.935328999999911,5.935328999999911,0.0,0.0,1.8976860563136952,0.0,0.0,0.45894123,-0.22244175,9.76120506,0.001276,0.000199,0.003494
5.995280999981333,5.995280999981333,0.0,0.0,1.8979245919762322,0.0,0.0,0.47106639,-0.21240612,9.7695828,0.00286,0.001395,0.004192
6.015266000002157,6.015266000002157,0.0,0.0,1.8980126696003756,0.0,0.0,0.46448388,-0.22108797,9.79323471,0.0036,0.001639,0.004482
6.035250000015367,6.035250000015367,0.0,0.0,1.8981017770423243,0.0,0.0,0.47406825,-0.21764466,9.76030254,0.003435,0.000888,0.004529
6.055234000028577,6.055234000028577,0.0,0.0,1.8981491275735562,0.0,0.0,0.46194309,-0.20192904,9.77092677,0.002928,-0.000849,0.002104
6.075218999991193,6.075218999991193,0.0,0.0,1.8981957350638687,0.0,0.0,0.48079791,-0.21854718,9.7635987,0.002928,-0.000849,0.002104
6.095203000004403,6.095203000004403,0.0,0.0,1.8982880299754896,0.0,0.0,0.46104057,-0.22199049,9.77377167,0.000853,0.000285,0.004777
6.115187000017613,6.115187000017613,0.0,0.0,1.89837852121339,0.0,0.0,0.47256732,-0.20582361,9.77572386,0.00456,-0.002651,0.004648
6.135171000030823,6.135171000030823,0.0,0.0,1.8984715910377847,0.0,0.0,0.47106639,-0.22632651,9.78036399,0.001914,0.000218,0.004778
6.17514000000665,6.17514000000665,0.0,0.0,1.8985966852408138,0.0,0.0,0.4653864,-0.22438413,9.77422293,0.003755,0.002091,0.002215
6.17514000000665,6.17514000000665,0.0,0.0,1.8985712737625242,0.0,0.0,0.4653864,-0.22438413,9.77422293,0.003755,0.002091,0.002215
6.215108999982476,6.215108999982476,0.0,0.0,1.8987122043840792,0.0,0.0,0.47795301,-0.21943989,9.77437008,0.003508,-0.000581,0.003521
6.235092999995686,6.235092999995686,0.0,0.0,1.8987713095988,0.0,0.0,0.46882971,-0.21780162,9.76688505,0.005446,-0.001753,0.002916
6.235092999995686,6.235092999995686,0.0,0.0,1.898762712528491,0.0,0.0,0.46882971,-0.21780162,9.76688505,0.005446,-0.001753,0.002916
6.235092999995686,6.235092999995686,0.0,0.0,1.8987560067625076,0.0,0.0,0.46882971,-0.21780162,9.76688505,0.005446,-0.001753,0.002916
6.295045999984723,6.295045999984723,0.0,0.0,1.8989827965346189,0.0,0.0,0.47406825,-0.21659499,9.76120506,0.002215,-0.001448,0.004841
6.3150299999979325,6.3150299999979325,0.0,0.0,1.8990740575788028,0.0,0.0,0.47017368,-0.22034241,9.76195062,0.002916,0.000545,0.00468
6.335015000018757,6.335015000018757,0.0,0.0,1.8991708484927123,0.0,0.0,0.47541222,-0.20866851,9.75776175,0.003564,0.001368,0.004974
6.354999000031967,6.354999000031967,0.0,0.0,1.8992506627265593,0.0,0.0,0.47601063,-0.2128573799999999,9.77197644,0.00409,-0.001077,0.004007
6.374982999986969,6.374982999986969,0.0,0.0,1.899319166125581,0.0,0.0,0.46178613,-0.2225889,9.77991273,0.003948,-0.000516,0.00337
6.394967000000179,6.394967000000179,0.0,0.0,1.8993930566221051,0.0,0.0,0.46882971,-0.21914559,9.76015539,0.002868,0.000599,0.003681
6.414952000021003,6.414952000021003,0.0,0.0,1.899476721412353,0.0,0.0,0.45819567,-0.21465261,9.765246780000002,0.003292,-0.00066,0.004235
6.434936000034213,6.434936000034213,0.0,0.0,1.8995833720265907,0.0,0.0,0.47211606,-0.21735036,9.76704201,0.002186,-0.001193,0.00553
6.454919999989215,6.454919999989215,0.0,0.0,1.899675995184995,0.0,0.0,0.46837845,-0.21943989,9.76195062,0.005345,0.001278,0.004708
6.47490500001004,6.47490500001004,0.0,0.0,1.8997443093954622,0.0,0.0,0.46149183,-0.25207776,9.76628664,-0.000308,-0.000107,0.003316
6.4948890000232495,6.4948890000232495,0.0,0.0,1.8997847252440874,0.0,0.0,0.49172625,-0.1907064,9.78859458,0.004464,-0.000305,0.001742
6.514873000036459,6.514873000036459,0.0,0.0,1.8998800970537175,0.0,0.0,0.46822149,-0.23964849,9.77197644,0.002893,0.00174,0.004915
6.534857999999076,6.534857999999076,0.0,0.0,1.8999492224699495,0.0,0.0,0.47062494,-0.22663062,9.76434426,0.001337,-0.00056,0.003396
6.534857999999076,6.534857999999076,0.0,0.0,1.8999423962623192,0.0,0.0,0.47062494,-0.22663062,9.76434426,0.001337,-0.00056,0.003396
6.534857999999076,6.534857999999076,0.0,0.0,1.899936997173528,0.0,0.0,0.47062494,-0.22663062,9.76434426,0.001337,-0.00056,0.003396
6.534857999999076,6.534857999999076,0.0,0.0,1.899932620018343,0.0,0.0,0.47062494,-0.22663062,9.76434426,0.001337,-0.00056,0.003396
6.574826000025496,6.574826000025496,0.0,0.0,1.900086519940829,0.0,0.0,0.47765871,-0.22199049,9.77617512,0.00397,-0.0015,0.004097
6.634779000014532,6.634779000014532,0.0,0.0,1.900318394575038,0.0,0.0,0.47930679,-0.22812174,9.76688505,0.003621,0.001813,0.004119
6.654763000027742,6.654763000027742,0.0,0.0,1.9004163256383526,0.0,0.0,0.47242017,-0.23201631,9.77422293,0.002389,0.000925,0.00501
6.674747999990359,6.674747999990359,0.0,0.0,1.9004802279702009,0.0,0.0,0.44726733,-0.20776599,9.76628664,0.005502,0.001611,0.003114
6.694732000003569,6.694732000003569,0.0,0.0,1.9005670554868779,0.0,0.0,0.47046798,-0.22378572,9.76778757,0.002711,0.000417,0.004398
6.714716000016779,6.714716000016779,0.0,0.0,1.900640445719354,0.0,0.0,0.46343421,-0.2168991,9.75611367,0.002809,-0.002609,0.003642
6.734701000037603,6.734701000037603,0.0,0.0,1.900712700650681,0.0,0.0,0.46807434,-0.21075804,9.780658290000002,0.003574,0.001322,0.003582
6.754684999992605,6.754684999992605,0.0,0.0,1.9008130788558981,0.0,0.0,0.47570652,-0.22483539,9.79203789,0.002565,-0.00025,0.005166
6.794653000019025,6.794653000019025,0.0,0.0,1.9009862067958698,0.0,0.0,0.48529089,-0.2200383,9.77871591,0.00249,0.00038,0.004639
6.794653000019025,6.794653000019025,0.0,0.0,1.9009950917896195,0.0,0.0,0.48529089,-0.2200383,9.77871591,0.00249,0.00038,0.004639
6.834621999994852,6.834621999994852,0.0,0.0,1.901096711864966,0.0,0.0,0.46822149,-0.21584943,9.75671208,0.00352,0.001915,0.000748
6.834621999994852,6.834621999994852,0.0,0.0,1.9010475732656085,0.0,0.0,0.46822149,-0.21584943,9.75671208,0.00352,0.001915,0.000748
6.834621999994852,6.834621999994852,0.0,0.0,1.9010094848482426,0.0,0.0,0.46822149,-0.21584943,9.75671208,0.00352,0.001915,0.000748
6.874591000028886,6.874591000028886,0.0,0.0,1.9011323463740464,0.0,0.0,0.4596966,-0.21390705,9.77512545,0.002289,0.000535,0.003137
6.914558999997098,6.914558999997098,0.0,0.0,1.9012938784657232,0.0,0.0,0.47226321,-0.21570228,9.76300029,0.002892,-0.001529,0.005165
6.934544000017922,6.934544000017922,0.0,0.0,1.9013610952170197,0.0,0.0,0.46418958,-0.2137599,9.76224492,0.002522,-0.000153,0.003364
6.954528000031132,6.954528000031132,0.0,0.0,1.9014384370928505,0.0,0.0,0.47406825,-0.21570228,9.77287896,0.003445,0.000966,0.003912
6.9745119999861345,6.9745119999861345,0.0,0.0,1.9015157389266353,0.0,0.0,0.4543011,-0.21884148,9.76599234,0.003839,8e-06,0.003907
6.994497000006959,6.994497000006959,0.0,0.0,1.901565675315113,0.0,0.0,0.46792719,-0.21495672,9.76224492,0.004246,-0.000322,0.002402
7.014481000020169,7.014481000020169,0.0,0.0,1.9016448311523533,0.0,0.0,0.47660904,-0.21794877,9.76149936,0.002728,8.5e-05,0.004024
7.014481000020169,7.014481000020169,0.0,0.0,1.9016541395599411,0.0,0.0,0.47660904,-0.21794877,9.76149936,0.002728,8.5e-05,0.004024
7.014481000020169,7.014481000020169,0.0,0.0,1.9016614657615225,0.0,0.0,0.47660904,-0.21794877,9.76149936,0.002728,8.5e-05,0.004024
7.074434000009205,7.074434000009205,0.0,0.0,1.9018943418844803,0.0,0.0,0.46373832,-0.21854718,9.7752726,0.002613,-0.001947,0.004647
7.094418000022415,7.094418000022415,0.0,0.0,1.9019701476192346,0.0,0.0,0.47825712,-0.21824307,9.78036399,0.001935,0.000223,0.003803
7.114402000035625,7.114402000035625,0.0,0.0,1.9020591436277563,0.0,0.0,0.46882971,-0.21854718,9.78485697,0.003277,0.000288,0.004549
7.134386999998242,7.134386999998242,0.0,0.0,1.9021518950068899,0.0,0.0,0.46433673,-0.21525102,9.77003406,0.004033,-0.000179,0.004748
7.134386999998242,7.134386999998242,0.0,0.0,1.9021640057356866,0.0,0.0,0.46433673,-0.21525102,9.77003406,0.004033,-0.000179,0.004748
7.134386999998242,7.134386999998242,0.0,0.0,1.9021735219742268,0.0,0.0,0.46433673,-0.21525102,9.77003406,0.004033,-0.000179,0.004748
7.194339999987278,7.194339999987278,0.0,0.0,1.9024210173615357,0.0,0.0,0.46194309,-0.22199049,9.77077962,0.003556,-0.001814,0.004113
7.214324000000488,7.214324000000488,0.0,0.0,1.9024884771064503,0.0,0.0,0.44891541,-0.23186916,9.74877579,0.002596,-0.003831,0.003263
7.234308000013698,7.234308000013698,0.0,0.0,1.9025761303711075,0.0,0.0,0.46149183,-0.22962267,9.76838598,0.003952,-0.001644,0.004442
7.254293000034522,7.254293000034522,0.0,0.0,1.902673695169245,0.0,0.0,0.47062494,-0.19264878,9.76988691,0.004361,-0.001498,0.005002
7.2742769999895245,7.2742769999895245,0.0,0.0,1.902779369947476,0.0,0.0,0.4596966,-0.22034241,9.76883724,0.001949,0.001736,0.005449
7.294261000002734,7.294261000002734,0.0,0.0,1.9028500069735363,0.0,0.0,0.47541222,-0.22168638,9.78141366,0.002316,-7.8e-05,0.003412
7.334230000036769,7.334230000036769,0.0,0.0,1.9030474486344282,0.0,0.0,0.47301858,-0.21659499,9.77048532,0.003105,-0.000656,0.005684
7.354213999991771,7.354213999991771,0.0,0.0,1.9031247392474784,0.0,0.0,0.45670455,-0.22318731,9.764795520000002,0.003215,-0.001282,0.003842
7.374198000004981,7.374198000004981,0.0,0.0,1.9032218454056018,0.0,0.0,0.45849978,-0.21615354,9.765246780000002,0.003824,-0.000647,0.004887
7.374198000004981,7.374198000004981,0.0,0.0,1.9032292874379113,0.0,0.0,0.45849978,-0.21615354,9.765246780000002,0.003824,-0.000647,0.004887
7.414167000039015,7.414167000039015,0.0,0.0,1.9034025011798175,0.0,0.0,0.47032083,-0.22722903,9.77766624,0.002339,-0.001312,0.004148
7.434150999994017,7.434150999994017,0.0,0.0,1.903479250445069,0.0,0.0,0.4716648,-0.21151341,9.77228055,0.002731,0.000195,0.003787
7.434150999994017,7.434150999994017,0.0,0.0,1.9034701057039367,0.0,0.0,0.4716648,-0.21151341,9.77228055,0.002731,0.000195,0.003787
7.434150999994017,7.434150999994017,0.0,0.0,1.9034629428188188,0.0,0.0,0.4716648,-0.21151341,9.77228055,0.002731,0.000195,0.003787
7.474120000028051,7.474120000028051,0.0,0.0,1.9036284216644033,0.0,0.0,0.47974824,-0.21914559,9.76793472,0.002703,0.000224,0.004008
7.514089000003878,7.514089000003878,0.0,0.0,1.9038285870950098,0.0,0.0,0.47062494,-0.22228479,9.77661657,0.002792,-0.000664,0.005957
7.534073000017088,7.534073000017088,0.0,0.0,1.9039249686881128,0.0,0.0,0.45939249,-0.22378572,9.76943565,0.002952,0.000388,0.004858
7.554057000030298,7.554057000030298,0.0,0.0,1.9040375214240761,0.0,0.0,0.45670455,-0.2140542,9.77721498,0.001998,-0.001124,0.005746
7.5740419999929145,7.5740419999929145,0.0,0.0,1.9041221622677176,0.0,0.0,0.47601063,-0.22048956,9.75341592,0.003541,0.000162,0.004187
7.5740419999929145,7.5740419999929145,0.0,0.0,1.9041153520553982,0.0,0.0,0.47601063,-0.22048956,9.75341592,0.003541,0.000162,0.004187
7.614010000019334,7.614010000019334,0.0,0.0,1.9042591936208044,0.0,0.0,0.46163898,-0.21015963,9.7752726,0.003851,-0.000356,0.0024
7.633994000032544,7.633994000032544,0.0,0.0,1.9043411540299786,0.0,0.0,0.45909819,-0.21465261,9.78185511,0.003631,0.000913,0.004081
7.653978999995161,7.653978999995161,0.0,0.0,1.9044039025713602,0.0,0.0,0.46313991,-0.23560677,9.77422293,0.002429,-0.00075,0.003
7.673963000008371,7.673963000008371,0.0,0.0,1.9044794396677682,0.0,0.0,0.46089342,-0.22244175,9.77032836,0.002489,-0.001041,0.003742
7.693947000021581,7.693947000021581,0.0,0.0,1.9045597398393426,0.0,0.0,0.47331288,-0.20507805,9.77512545,0.001784,-0.000192,0.004017
7.693947000021581,7.693947000021581,0.0,0.0,1.9045595986092536,0.0,0.0,0.47331288,-0.20507805,9.77512545,0.001784,-0.000192,0.004017
7.733915999997407,7.733915999997407,0.0,0.0,1.9047036225602563,0.0,0.0,0.46942812,-0.22199049,9.77032836,0.004445,-0.001072,0.003063
7.733915999997407,7.733915999997407,0.0,0.0,1.9046908176757231,0.0,0.0,0.46942812,-0.22199049,9.77032836,0.004445,-0.001072,0.003063
7.733915999997407,7.733915999997407,0.0,0.0,1.9046807579858838,0.0,0.0,0.46942812,-0.22199049,9.77032836,0.004445,-0.001072,0.003063
7.793868999986444,7.793868999986444,0.0,0.0,1.9049115538346646,0.0,0.0,0.46807434,-0.23022108,9.780962400000002,0.002046,-0.001058,0.00418
7.8138529999996535,7.8138529999996535,0.0,0.0,1.9049712068439213,0.0,0.0,0.45774441,-0.20372427,9.77960862,0.003494,0.001604,0.002863
7.833838000020478,7.833838000020478,0.0,0.0,1.905062901818944,0.0,0.0,0.46373832,-0.20611791,9.77302611,0.002649,-0.000262,0.00473
7.833838000020478,7.833838000020478,0.0,0.0,1.9050770518232785,0.0,0.0,0.46373832,-0.20611791,9.77302611,0.002649,-0.000262,0.00473
7.87380599998869,7.87380599998869,0.0,0.0,1.9052545436349755,0.0,0.0,0.485595,-0.20881566,9.76793472,0.001985,-0.000705,0.00513
7.893791000009514,7.893791000009514,0.0,0.0,1.9053483948321297,0.0,0.0,0.47287143,-0.22423698,9.77646942,0.003623,-0.000619,0.00479
7.913775000022724,7.913775000022724,0.0,0.0,1.9054494115062468,0.0,0.0,0.46718163,-0.21644784,9.77362452,0.003916,0.000189,0.005188
7.933759000035934,7.933759000035934,0.0,0.0,1.9055191963092444,0.0,0.0,0.47660904,-0.21914559,9.77706783,0.004127,-0.000721,0.003367
7.953743999998551,7.953743999998551,0.0,0.0,1.9055698759387907,0.0,0.0,0.46598481,-0.2052252,9.77706783,0.00344,-0.000345,0.002286
7.973728000011761,7.973728000011761,0.0,0.0,1.9056318402185068,0.0,0.0,0.4713705,-0.22063671,9.77003406,0.004635,0.00039,0.002975
7.993712000024971,7.993712000024971,0.0,0.0,1.9057035056430234,0.0,0.0,0.47361699,-0.2228832,9.76090095,0.003525,-0.000892,0.003553
8.01369600003818,8.01369600003818,0.0,0.0,1.9058146469509802,0.0,0.0,0.45894123,-0.21780162,9.77871591,0.003323,-0.002291,0.005831
8.053665000014007,8.053665000014007,0.0,0.0,1.9059935984684548,0.0,0.0,0.47840427,-0.21345579,9.7692885,0.002307,-0.000262,0.004938
8.053665000014007,8.053665000014007,0.0,0.0,1.906006423157221,0.0,0.0,0.47840427,-0.21345579,9.7692885,0.002307,-0.000262,0.004938
8.073649000027217,8.073649000027217,0.0,0.0,1.9060701257527937,0.0,0.0,0.46238454,-0.23576373,9.77826465,0.001112,-0.000321,0.00299
8.093633999989834,8.093633999989834,0.0,0.0,1.9061399977019082,0.0,0.0,0.45415395,-0.21615354,9.75940983,0.003257,-0.000253,0.003387
8.133602000016253,8.133602000016253,0.0,0.0,1.9063073431941007,0.0,0.0,0.46822149,-0.23366439,9.7547697,0.003154,-0.000146,0.004378
8.153587000037078,8.153587000037078,0.0,0.0,1.90640625755736,0.0,0.0,0.46029501,-0.21599658,9.75805605,0.002947,-0.000864,0.005008
8.17357099999208,8.17357099999208,0.0,0.0,1.906490767382519,0.0,0.0,0.47151765,-0.20178189,9.75985128,0.004607,-0.000733,0.004231
8.19355500000529,8.19355500000529,0.0,0.0,1.9066072181551608,0.0,0.0,0.46957527,-0.22498254,9.76240188,0.002136,-0.001794,0.005965
8.213540000026114,8.213540000026114,0.0,0.0,1.9067116898699918,0.0,0.0,0.47062494,-0.22304016,9.78110955,0.001414,-0.000652,0.0053
8.213540000026114,8.213540000026114,0.0,0.0,1.9067235582941553,0.0,0.0,0.47062494,-0.22304016,9.78110955,0.001414,-0.000652,0.0053
8.253507999994326,8.253507999994326,0.0,0.0,1.9068911542281297,0.0,0.0,0.45819567,-0.22363857,9.77137803,0.00311,0.001335,0.003635
8.27349300001515,8.27349300001515,0.0,0.0,1.9069602017894471,0.0,0.0,0.46673037,-0.22273605,9.780511140000002,0.002698,0.00093,0.003334
8.29347700002836,8.29347700002836,0.0,0.0,1.9070749467627337,0.0,0.0,0.47570652,-0.21720321,9.76628664,0.003601,0.000141,0.005907
8.29347700002836,8.29347700002836,0.0,0.0,1.9070961290312916,0.0,0.0,0.47570652,-0.21720321,9.76628664,0.003601,0.000141,0.005907
8.29347700002836,8.29347700002836,0.0,0.0,1.907112806285041,0.0,0.0,0.47570652,-0.21720321,9.76628664,0.003601,0.000141,0.005907
8.353430000017397,8.353430000017397,0.0,0.0,1.9073863586774324,0.0,0.0,0.46343421,-0.21211182,9.7667379,0.002007,-0.001139,0.003874
8.353430000017397,8.353430000017397,0.0,0.0,1.9073735588440126,0.0,0.0,0.46343421,-0.21211182,9.7667379,0.002007,-0.001139,0.003874
8.393398999993224,8.393398999993224,0.0,0.0,1.9075331186913411,0.0,0.0,0.48065076,-0.22378572,9.77422293,0.002415,0.000633,0.003202
8.413383000006434,8.413383000006434,0.0,0.0,1.9076246949127817,0.0,0.0,0.47825712,-0.2131614899999999,9.77572386,0.003057,0.001097,0.004608
8.433367000019643,8.433367000019643,0.0,0.0,1.907680687512542,0.0,0.0,0.47436255,-0.22632651,9.77377167,0.003411,-0.000128,0.002566
8.45335199998226,8.45335199998226,0.0,0.0,1.9077505493917055,0.0,0.0,0.46807434,-0.22483539,9.76913154,0.002786,0.000396,0.003397
8.47333599999547,8.47333599999547,0.0,0.0,1.9078186591598483,0.0,0.0,0.46807434,-0.2128573799999999,9.77407578,0.002907,-0.000761,0.003312
8.49332000000868,8.49332000000868,0.0,0.0,1.9079089680009114,0.0,0.0,0.45804852,-0.22048956,9.76704201,0.003522,-0.001588,0.004599
8.51330400002189,8.51330400002189,0.0,0.0,1.9079763450139966,0.0,0.0,0.46582785,-0.22737618,9.77317326,0.001817,-0.002044,0.003272
8.533288999984507,8.533288999984507,0.0,0.0,1.9080634074496512,0.0,0.0,0.48364281,-0.20043792,9.77496849,0.003999,0.000879,0.004416
8.553272999997716,8.553272999997716,0.0,0.0,1.9081323260352203,0.0,0.0,0.47017368,-0.22393287,9.76584519,0.003915,-0.00025,0.003366
8.573257000010926,8.573257000010926,0.0,0.0,1.9082183416245861,0.0,0.0,0.46209024,-0.21615354,9.76090095,0.002651,-0.00023,0.00436
8.59324200003175,8.59324200003175,0.0,0.0,1.9082736385784917,0.0,0.0,0.46582785,-0.20881566,9.7692885,0.003541,-0.000814,0.002587
8.613225999986753,8.613225999986753,0.0,0.0,1.908349226166381,0.0,0.0,0.47017368,-0.21450546,9.764795520000002,0.005348,-0.001763,0.00378
8.633209999999963,8.633209999999963,0.0,0.0,1.9084287567459226,0.0,0.0,0.46104057,-0.23696055,9.75716334,0.003434,-0.001081,0.004007
8.653195000020787,8.653195000020787,0.0,0.0,1.9085412163057693,0.0,0.0,0.46747593,-0.21943989,9.76838598,0.0027,-0.001575,0.005896
8.653195000020787,8.653195000020787,0.0,0.0,1.908568850696744,0.0,0.0,0.46747593,-0.21943989,9.76838598,0.0027,-0.001575,0.005896
8.693162999989,8.693162999989,0.0,0.0,1.908712168075665,0.0,0.0,0.47211606,-0.22378572,9.76374585,0.002483,-0.000161,0.002642
8.713148000009824,8.713148000009824,0.0,0.0,1.9087887905326069,0.0,0.0,0.45146601,-0.21630069,9.7695828,0.002914,0.00079,0.003796
8.733132000023033,8.733132000023033,0.0,0.0,1.9088757758758748,0.0,0.0,0.46388547,-0.21584943,9.77601816,0.004351,0.001658,0.0044
8.753116000036243,8.753116000036243,0.0,0.0,1.908945684954972,0.0,0.0,0.47242017,-0.22123512,9.77512545,0.004092,0.000669,0.003408
8.77310099999886,8.77310099999886,0.0,0.0,1.9090024652219064,0.0,0.0,0.46058931,-0.20941407,9.79338186,0.001824,-1.5e-05,0.002665
8.79308500001207,8.79308500001207,0.0,0.0,1.9090843980221859,0.0,0.0,0.46343421,-0.21704625,9.7635987,0.002844,-0.001354,0.004142
8.81306900002528,8.81306900002528,0.0,0.0,1.9091634234281702,0.0,0.0,0.46478799,-0.21510387,9.77692068,0.003102,-0.001162,0.003968
8.81306900002528,8.81306900002528,0.0,0.0,1.909164793613476,0.0,0.0,0.46478799,-0.21510387,9.77692068,0.003102,-0.001162,0.003968
8.873022000014316,8.873022000014316,0.0,0.0,1.909391386419692,0.0,0.0,0.46298295,-0.22199049,9.77496849,0.002402,0.000332,0.003543
8.89300700003514,8.89300700003514,0.0,0.0,1.9094778734086981,0.0,0.0,0.45370269,-0.20702043,9.77018121,0.003812,1.6e-05,0.004359
8.89300700003514,8.89300700003514,0.0,0.0,1.909485186748407,0.0,0.0,0.45370269,-0.20702043,9.77018121,0.003812,1.6e-05,0.004359
8.932975000003353,8.932975000003353,0.0,0.0,1.9096366938450258,0.0,0.0,0.45670455,-0.22782744,9.77077962,0.002403,-0.000946,0.003581
8.952960000024177,8.952960000024177,0.0,0.0,1.9096858141648987,0.0,0.0,0.47242017,-0.21794877,9.77437008,0.002996,-0.001552,0.002322
8.952960000024177,8.952960000024177,0.0,0.0,1.9096638698526185,0.0,0.0,0.47242017,-0.21794877,9.77437008,0.002996,-0.001552,0.002322
8.99292799999239,8.99292799999239,0.0,0.0,1.9098192913691703,0.0,0.0,0.46508229,-0.2055195,9.77661657,0.003792,-0.00157,0.004335
9.012913000013214,9.012913000013214,0.0,0.0,1.909904497399844,0.0,0.0,0.46837845,-0.22962267,9.77587101,0.003792,-0.00157,0.004335
9.032897000026423,9.032897000026423,0.0,0.0,1.9099909832029613,0.0,0.0,0.46178613,-0.23890293,9.77197644,0.003552,0.000293,0.004398
9.052880999981426,9.052880999981426,0.0,0.0,1.9100873702950265,0.0,0.0,0.45489951,-0.21075804,9.77706783,0.004376,-0.000309,0.004945
9.07286600000225,9.07286600000225,0.0,0.0,1.91015487644745,0.0,0.0,0.457146,-0.22108797,9.75760479,0.004255,0.000595,0.003303
9.09285000001546,9.09285000001546,0.0,0.0,1.9102304417502136,0.0,0.0,0.45894123,-0.22498254,9.76764042,0.002749,-0.001035,0.003768
9.11283400002867,9.11283400002867,0.0,0.0,1.9102833255677947,0.0,0.0,0.47974824,-0.21106215,9.77018121,0.003047,-0.000794,0.002486
9.11283400002867,9.11283400002867,0.0,0.0,1.9102646329316473,0.0,0.0,0.47974824,-0.21106215,9.77018121,0.003047,-0.000794,0.002486
9.152803000004496,9.152803000004496,0.0,0.0,1.9104238815390095,0.0,0.0,0.47256732,-0.2257281,9.78485697,0.003113,-0.00087,0.004548
9.172787000017706,9.172787000017706,0.0,0.0,1.9105060063548374,0.0,0.0,0.46673037,-0.22168638,9.78261048,0.002465,-4.9e-05,0.00417
9.19277200003853,9.19277200003853,0.0,0.0,1.9106123548826757,0.0,0.0,0.46867275,-0.22213764,9.77677353,0.002995,-0.000305,0.005545
9.212755999993533,9.212755999993533,0.0,0.0,1.9106947264923768,0.0,0.0,0.47287143,-0.21914559,9.76015539,0.00399,0.000611,0.004141
9.232740000006743,9.232740000006743,0.0,0.0,1.9107772172275377,0.0,0.0,0.46074627,-0.21240612,9.77482134,0.002556,0.000428,0.004145
9.252725000027567,9.252725000027567,0.0,0.0,1.9108740730283333,0.0,0.0,0.47077209,-0.21539817,9.76554108,0.002956,-0.000672,0.004965
9.252725000027567,9.252725000027567,0.0,0.0,1.9108866157643272,0.0,0.0,0.47077209,-0.21539817,9.76554108,0.002956,-0.000672,0.004965
9.29269299999578,9.29269299999578,0.0,0.0,1.911065191464207,0.0,0.0,0.46687752,-0.21749751,9.76823883,0.002827,-1.2e-05,0.004756
9.312678000016604,9.312678000016604,0.0,0.0,1.9111402739397958,0.0,0.0,0.47391129,-0.21749751,9.75865446,0.002538,-0.000753,0.003673
9.332662000029813,9.332662000029813,0.0,0.0,1.9112181304655973,0.0,0.0,0.46493514,-0.22184334,9.78005988,0.00393,-0.000454,0.003846
9.35264699999243,9.35264699999243,0.0,0.0,1.9112739222092792,0.0,0.0,0.46209024,-0.22153923,9.77737194,0.003239,-0.000316,0.002584
9.37263100000564,9.37263100000564,0.0,0.0,1.911377387939826,0.0,0.0,0.4595396399999999,-0.2402469,9.76599234,0.004312,0.000938,0.005359
9.412599999981467,9.412599999981467,0.0,0.0,1.9115216552596275,0.0,0.0,0.47526507,-0.20971818,9.77392863,0.004096,0.000123,0.003033
9.412599999981467,9.412599999981467,0.0,0.0,1.911505589719324,0.0,0.0,0.47526507,-0.20971818,9.77392863,0.004096,0.000123,0.003033
9.452568000007886,9.452568000007886,0.0,0.0,1.911652196272053,0.0,0.0,0.46627911,-0.22617936,9.77677353,0.002974,-0.00033,0.003449
9.47255300002871,9.47255300002871,0.0,0.0,1.9117339248790666,0.0,0.0,0.47646189,-0.2137599,9.77422293,0.00344,-0.003201,0.00411
9.492536999983713,9.492536999983713,0.0,0.0,1.9118331751391784,0.0,0.0,0.46702467,-0.20747169,9.76733631,0.00326,0.000645,0.005057
9.492536999983713,9.492536999983713,0.0,0.0,1.9118501015335632,0.0,0.0,0.46702467,-0.20747169,9.76733631,0.00326,0.000645,0.005057
9.532506000017747,9.532506000017747,0.0,0.0,1.9119943515440525,0.0,0.0,0.47481381,-0.20791314,9.77302611,0.004081,0.000727,0.00297
9.552490000030957,9.552490000030957,0.0,0.0,1.9120737583255378,0.0,0.0,0.47780586,-0.21824307,9.76988691,0.003472,0.000831,0.003973
9.552490000030957,9.552490000030957,0.0,0.0,1.9120736841354198,0.0,0.0,0.47780586,-0.21824307,9.76988691,0.003472,0.000831,0.003973
9.57247399998596,9.57247399998596,0.0,0.0,1.9121953901555298,0.0,0.0,0.47226321,-0.21899844,9.78424875,0.00382,0.000125,0.006609
9.612443000019994,9.612443000019994,0.0,0.0,1.912355739506297,0.0,0.0,0.47436255,-0.21809592,9.77032836,0.002997,-0.001369,0.003659
9.632427000033204,9.632427000033204,0.0,0.0,1.9124474530000102,0.0,0.0,0.46957527,-0.22408002,9.78350319,0.003704,-0.000659,0.004632
9.65241199999582,9.65241199999582,0.0,0.0,1.9125165094952576,0.0,0.0,0.46912401,-0.21780162,9.77407578,0.003735,0.000606,0.00336
9.67239600000903,9.67239600000903,0.0,0.0,1.9126018933745073,0.0,0.0,0.46822149,-0.21840003,9.77797035,0.002853,0.000479,0.004288
9.69238000002224,9.69238000002224,0.0,0.0,1.9126813941053902,0.0,0.0,0.47615778,-0.21764466,9.78739776,0.004178,0.000655,0.003955
9.712364999984857,9.712364999984857,0.0,0.0,1.9127325262849677,0.0,0.0,0.46163898,-0.21899844,9.76240188,0.001688,0.000207,0.002357
9.732348999998067,9.732348999998067,0.0,0.0,1.9128145083301549,0.0,0.0,0.46732878,-0.21240612,9.77077962,0.003634,-0.001239,0.004129
9.752333000011276,9.752333000011276,0.0,0.0,1.9128863236308407,0.0,0.0,0.46433673,-0.20866851,9.76284333,0.003912,0.000256,0.003549
9.7723180000321,9.7723180000321,0.0,0.0,1.9129664321256312,0.0,0.0,0.4656807,-0.22153923,9.77482134,0.003195,-0.000302,0.004026
9.792301999987103,9.792301999987103,0.0,0.0,1.9130423095165598,0.0,0.0,0.46313991,-0.21345579,9.76149936,0.002845,0.000348,0.003783
9.812286000000313,9.812286000000313,0.0,0.0,1.913141099910531,0.0,0.0,0.45834282,-0.2200383,9.77452704,0.002711,0.000454,0.005091
9.832271000021137,9.832271000021137,0.0,0.0,1.9132504377127821,0.0,0.0,0.4653864,-0.21749751,9.765246780000002,0.002531,-0.001266,0.005672
9.852255000034347,9.852255000034347,0.0,0.0,1.913349090470228,0.0,0.0,0.47271447,-0.21495672,9.77467419,0.00248,-0.000482,0.005033
9.87223899998935,9.87223899998935,0.0,0.0,1.9134108060917887,0.0,0.0,0.47615778,-0.2131614899999999,9.77317326,0.003292,0.000698,0.002906
9.892224000010174,9.892224000010174,0.0,0.0,1.9134808324280757,0.0,0.0,0.46313991,-0.23531247,9.77422293,0.003181,-0.000688,0.003408
9.912208000023384,9.912208000023384,0.0,0.0,1.913550349542109,0.0,0.0,0.47017368,-0.21479976,9.77092677,0.004005,-0.000724,0.003393
9.932192000036594,9.932192000036594,0.0,0.0,1.9136496388645376,0.0,0.0,0.4625415,-0.21211182,9.7724277,0.00206,-0.001674,0.005113
9.95217699999921,9.95217699999921,0.0,0.0,1.9137325216932313,0.0,0.0,0.4685256,-0.2112093,9.77168214,0.003781,-0.001295,0.00415
9.97216100001242,9.97216100001242,0.0,0.0,1.913819273781983,0.0,0.0,0.46118772,-0.22019526,9.77333022,0.003262,-0.001472,0.004372
10.012129999988247,10.012129999988247,0.0,0.0,1.9139966812191904,0.0,0.0,0.47301858,-0.2140542,9.77077962,0.003615,0.001189,0.004732
10.012129999988247,10.012129999988247,0.0,0.0,1.9140048787041053,0.0,0.0,0.47301858,-0.2140542,9.77077962,0.003615,0.001189,0.004732
10.052099000022281,10.052099000022281,0.0,0.0,1.9141317083118956,0.0,0.0,0.46163898,-0.21794877,9.77377167,0.001607,0.001452,0.001899
10.07208300003549,10.07208300003549,0.0,0.0,1.9142182899827729,0.0,0.0,0.46582785,-0.22273605,9.78170796,0.002501,-0.000904,0.004359
10.092066999990493,10.092066999990493,0.0,0.0,1.914309237160281,0.0,0.0,0.46687752,-0.2140542,9.77392863,0.003363,0.000349,0.004594
10.092066999990493,10.092066999990493,0.0,0.0,1.9143172971161508,0.0,0.0,0.46687752,-0.2140542,9.77392863,0.003363,0.000349,0.004594
10.132036000024527,10.132036000024527,0.0,0.0,1.9144783677798713,0.0,0.0,0.47002653,-0.22123512,9.78185511,0.002832,-0.000282,0.003876
10.152020000037737,10.152020000037737,0.0,0.0,1.9145539947834838,0.0,0.0,0.45819567,-0.22318731,9.77108373,0.002759,0.000357,0.003749
10.152020000037737,10.152020000037737,0.0,0.0,1.9145489231852375,0.0,0.0,0.45819567,-0.22318731,9.77108373,0.002759,0.000357,0.003749
10.172005000000354,10.172005000000354,0.0,0.0,1.9146533703602735,0.0,0.0,0.4692711599999999,-0.21884148,9.7724277,0.004104,0.000313,0.00552
10.211973000026774,10.211973000026774,0.0,0.0,1.9147981440116268,0.0,0.0,0.46089342,-0.21555513,9.7838073,0.002404,-0.000662,0.002903
10.2519420000026,10.2519420000026,0.0,0.0,1.914958948209172,0.0,0.0,0.47077209,-0.21899844,9.78679935,0.002194,-0.002588,0.004017
10.27192600001581,10.27192600001581,0.0,0.0,1.9150584760939093,0.0,0.0,0.48378996,-0.22228479,9.77137803,0.003502,-0.001418,0.004995
10.291911000036635,10.291911000036635,0.0,0.0,1.9151553624805784,0.0,0.0,0.4742154,-0.23306598,9.76823883,0.004655,-0.000356,0.004869
10.311894999991637,10.311894999991637,0.0,0.0,1.9152642172413383,0.0,0.0,0.46178613,-0.22917141,9.77077962,0.002702,0.00022,0.0055
10.331879000004847,10.331879000004847,0.0,0.0,1.9153469205761153,0.0,0.0,0.45610614,-0.2128573799999999,9.79173378,0.002584,0.000645,0.004121
10.351864000025671,10.351864000025671,0.0,0.0,1.9154243604713663,0.0,0.0,0.46343421,-0.23022108,9.76434426,0.003692,0.000402,0.003839
10.37184800003888,10.37184800003888,0.0,0.0,1.9154612731304885,0.0,0.0,0.46837845,-0.22931856,9.76809168,0.004079,-0.000615,0.001653
10.391831999993883,10.391831999993883,0.0,0.0,1.915533610141412,0.0,0.0,0.47271447,-0.20073222,9.7781175,0.0046,0.000877,0.00359
10.391831999993883,10.391831999993883,0.0,0.0,1.9155284118417244,0.0,0.0,0.47271447,-0.20073222,9.7781175,0.0046,0.000877,0.00359
10.431801000027917,10.431801000027917,0.0,0.0,1.9156971612904607,0.0,0.0,0.46687752,-0.21599658,9.7664436,0.002308,-0.000818,0.004645
10.45178499998292,10.45178499998292,0.0,0.0,1.9157830982941517,0.0,0.0,0.45101475,-0.22079367,9.7812567,0.002934,-0.001162,0.004336
10.45178499998292,10.45178499998292,0.0,0.0,1.9157879943511187,0.0,0.0,0.45101475,-0.22079367,9.7812567,0.002934,-0.001162,0.004336
10.491754000016954,10.491754000016954,0.0,0.0,1.9159483085914797,0.0,0.0,0.46912401,-0.22139208,9.78290478,0.003342,-0.000346,0.003945
10.511739000037778,10.511739000037778,0.0,0.0,1.9160111535272275,0.0,0.0,0.46448388,-0.21360294,9.77182929,0.004151,-0.00052,0.00303
10.53172299999278,10.53172299999278,0.0,0.0,1.9160836981873572,0.0,0.0,0.45610614,-0.22048956,9.77092677,0.003316,0.000613,0.003594
10.55170700000599,10.55170700000599,0.0,0.0,1.916175292554497,0.0,0.0,0.46508229,-0.22019526,9.765246780000002,0.004963,-0.000755,0.004678
10.571692000026815,10.571692000026815,0.0,0.0,1.9162734806075736,0.0,0.0,0.46522944,-0.21704625,9.77392863,0.002246,-0.001707,0.005039
10.591675999981817,10.591675999981817,0.0,0.0,1.9163348090019277,0.0,0.0,0.4653864,-0.21330864,9.76659075,0.001669,-0.000585,0.002926
10.611659999995027,10.611659999995027,0.0,0.0,1.9164313618652837,0.0,0.0,0.4713705,-0.219744,9.76749327,0.002671,-0.000784,0.004952
10.631645000015851,10.631645000015851,0.0,0.0,1.9165247450907028,0.0,0.0,0.46687752,-0.21061089,9.77437008,0.002519,-0.000701,0.004754
10.651629000029061,10.651629000029061,0.0,0.0,1.9165975399713675,0.0,0.0,0.4799052,-0.22168638,9.76404996,0.002655,0.000607,0.003567
10.671612999984063,10.671612999984063,0.0,0.0,1.9166870776670955,0.0,0.0,0.46373832,-0.219744,9.76164651,0.002422,0.00047,0.004535
10.691598000004888,10.691598000004888,0.0,0.0,1.916785948584562,0.0,0.0,0.47346984,-0.21135645,9.76628664,0.003395,0.000456,0.005061
10.711582000018097,10.711582000018097,0.0,0.0,1.9168653744081823,0.0,0.0,0.45176031,-0.21780162,9.76688505,0.001952,-0.001374,0.003931
10.731566000031307,10.731566000031307,0.0,0.0,1.9169611233492159,0.0,0.0,0.46642626,-0.22917141,9.77092677,0.002932,-0.000692,0.004873
10.731566000031307,10.731566000031307,0.0,0.0,1.9169697307829683,0.0,0.0,0.46642626,-0.22917141,9.77092677,0.002932,-0.000692,0.004873
10.731566000031307,10.731566000031307,0.0,0.0,1.9169765413775988,0.0,0.0,0.46642626,-0.22917141,9.77092677,0.002932,-0.000692,0.004873
10.771535000007134,10.771535000007134,0.0,0.0,1.9171899482174215,0.0,0.0,0.46238454,-0.2225889,9.780658290000002,0.004503,0.000601,0.006742
10.81150399998296,10.81150399998296,0.0,0.0,1.917335170928987,0.0,0.0,0.46403262,-0.21330864,9.75880161,0.003306,0.000547,0.002276
10.851473000016995,10.851473000016995,0.0,0.0,1.9174911860052664,0.0,0.0,0.46658322,-0.2225889,9.77092677,0.004297,6.7e-05,0.003427
10.871457000030205,10.871457000030205,0.0,0.0,1.9175826547381698,0.0,0.0,0.45310428,-0.2080701,9.77108373,0.004058,-0.000369,0.004585
10.891440999985207,10.891440999985207,0.0,0.0,1.9176542978663988,0.0,0.0,0.47046798,-0.21046374,9.77617512,0.003042,-0.001285,0.003559
10.891440999985207,10.891440999985207,0.0,0.0,1.9176438939136622,0.0,0.0,0.47046798,-0.21046374,9.77617512,0.003042,-0.001285,0.003559
10.931410000019241,10.931410000019241,0.0,0.0,1.9177722740327177,0.0,0.0,0.47361699,-0.22123512,9.77077962,0.001416,-0.001899,0.002209
10.951394000032451,10.951394000032451,0.0,0.0,1.9178454487282703,0.0,0.0,0.47541222,-0.21644784,9.78634809,0.002841,5e-05,0.003649
10.971378999995068,10.971378999995068,0.0,0.0,1.9179072414305915,0.0,0.0,0.45071064,-0.2112093,9.77003406,0.004567,0.001329,0.003032
10.991363000008278,10.991363000008278,0.0,0.0,1.9179860292364133,0.0,0.0,0.47211606,-0.210915,9.78215922,0.003626,0.000209,0.003965
11.011347000021487,11.011347000021487,0.0,0.0,1.9180721785197603,0.0,0.0,0.47646189,-0.22019526,9.76718916,0.001869,0.000802,0.004368
11.031331999984104,11.031331999984104,0.0,0.0,1.918159441240868,0.0,0.0,0.4599909,-0.21001248,9.77916717,0.003209,0.000228,0.004424
11.031331999984104,11.031331999984104,0.0,0.0,1.9181677725792916,0.0,0.0,0.4599909,-0.21001248,9.77916717,0.003209,0.000228,0.004424
11.031331999984104,11.031331999984104,0.0,0.0,1.9181743406011273,0.0,0.0,0.4599909,-0.21001248,9.77916717,0.003209,0.000228,0.004424
11.051315999997314,11.051315999997314,0.0,0.0,1.918261145418458,0.0,0.0,0.46298295,-0.219744,9.77737194,0.004173,-0.001649,0.004468
11.11126899998635,11.11126899998635,0.0,0.0,1.918490610233059,0.0,0.0,0.46104057,-0.22108797,9.7667379,0.003144,-0.000962,0.003284
11.131254000007175,11.131254000007175,0.0,0.0,1.9185768041416535,0.0,0.0,0.46897686,-0.22213764,9.75880161,0.003899,0.000852,0.004352
11.151238000020385,11.151238000020385,0.0,0.0,1.9186277034863481,0.0,0.0,0.46912401,-0.2140542,9.75042387,0.003964,-0.000401,0.002384
11.171222000033595,11.171222000033595,0.0,0.0,1.918673441458278,0.0,0.0,0.46238454,-0.2254338,9.79173378,0.004178,-0.000969,0.002116
11.191206999996211,11.191206999996211,0.0,0.0,1.9187583263902432,0.0,0.0,0.46673037,-0.22617936,9.74728467,0.003402,-0.000386,0.004331
11.211191000009421,11.211191000009421,0.0,0.0,1.918795398827319,0.0,0.0,0.46613196,-0.1995354,9.77482134,0.002833,-0.000332,0.001633
11.231175000022631,11.231175000022631,0.0,0.0,1.9188999731996041,0.0,0.0,0.46194309,-0.22273605,9.77347737,0.003066,-0.00019,0.005467
11.251159999985248,11.251159999985248,0.0,0.0,1.9189761149907785,0.0,0.0,0.47945394,-0.21914559,9.76688505,0.001373,-0.000975,0.003829
11.271143999998458,11.271143999998458,0.0,0.0,1.9190677087242722,0.0,0.0,0.47436255,-0.22483539,9.764491410000002,0.003981,0.000158,0.004702
11.291128000011668,11.291128000011668,0.0,0.0,1.919151482710343,0.0,0.0,0.46448388,-0.21479976,9.76135221,0.0034,0.001418,0.004242
11.311113000032492,11.311113000032492,0.0,0.0,1.919242836730433,0.0,0.0,0.46178613,-0.22722903,9.76809168,0.002515,-0.000143,0.004666
11.351082000008319,11.351082000008319,0.0,0.0,1.9193973509580777,0.0,0.0,0.46792719,-0.21106215,9.77108373,0.003858,-0.000696,0.003745
11.351082000008319,11.351082000008319,0.0,0.0,1.9193939246846003,0.0,0.0,0.46792719,-0.21106215,9.77108373,0.003858,-0.000696,0.003745
11.371066000021528,11.371066000021528,0.0,0.0,1.919459017555102,0.0,0.0,0.45849978,-0.21525102,9.765246780000002,0.004608,-0.001783,0.003143
11.411034999997355,11.411034999997355,0.0,0.0,1.919629160456549,0.0,0.0,0.47481381,-0.21479976,9.7755669,0.001927,-0.001013,0.004739
11.431019000010565,11.431019000010565,0.0,0.0,1.9197027824835757,0.0,0.0,0.46882971,-0.22019526,9.76809168,0.003137,-0.00012,0.003667
11.451003000023775,11.451003000023775,0.0,0.0,1.9198138341036994,0.0,0.0,0.46867275,-0.22079367,9.78709365,0.002916,0.001738,0.005678
11.470987999986392,11.470987999986392,0.0,0.0,1.9199137097217234,0.0,0.0,0.47287143,-0.21450546,9.77452704,0.003418,-0.000586,0.005067
11.490971999999601,11.490971999999601,0.0,0.0,1.9199721319734202,0.0,0.0,0.47062494,-0.2228832,9.76733631,0.003452,0.000451,0.0028
11.510957000020426,11.510957000020426,0.0,0.0,1.9200706888120918,0.0,0.0,0.46718163,-0.22094082,9.7812567,0.003756,-0.00072,0.005015
11.530941000033636,11.530941000033636,0.0,0.0,1.9201513784250963,0.0,0.0,0.46702467,-0.21271023,9.7667379,0.003296,-0.001678,0.00402
11.550924999988638,11.550924999988638,0.0,0.0,1.9202416289877533,0.0,0.0,0.46732878,-0.2254338,9.75985128,0.002508,-0.002624,0.004553
11.570910000009462,11.570910000009462,0.0,0.0,1.9203117458962389,0.0,0.0,0.47002653,-0.22438413,9.76269618,0.002274,-0.001161,0.003425
11.590894000022672,11.590894000022672,0.0,0.0,1.9203887892210725,0.0,0.0,0.47810997,-0.22094082,9.77496849,0.00331,-6.2e-05,0.003823
11.610878000035882,11.610878000035882,0.0,0.0,1.920463683069503,0.0,0.0,0.47316573,-0.22483539,9.763893,0.002613,-0.000637,0.003706
11.630862999998499,11.630862999998499,0.0,0.0,1.9205519252412317,0.0,0.0,0.46373832,-0.21615354,9.78560253,0.004339,0.000611,0.004464
11.650847000011709,11.650847000011709,0.0,0.0,1.9206066500139043,0.0,0.0,0.4596966,-0.22677777,9.77587101,0.003697,-0.000456,0.002562
11.650847000011709,11.650847000011709,0.0,0.0,1.920585929805311,0.0,0.0,0.4596966,-0.22677777,9.77587101,0.003697,-0.000456,0.002562
11.650847000011709,11.650847000011709,0.0,0.0,1.920569540945312,0.0,0.0,0.4596966,-0.22677777,9.77587101,0.003697,-0.000456,0.002562
11.690815999987535,11.690815999987535,0.0,0.0,1.9207357484002596,0.0,0.0,0.45834282,-0.21659499,9.77123088,0.002615,-0.000331,0.004989
11.710800000000745,11.710800000000745,0.0,0.0,1.920823102039698,0.0,0.0,0.46388547,-0.22677777,9.77886306,0.002294,-0.002091,0.004515
11.75076900003478,11.75076900003478,0.0,0.0,1.9209815725787154,0.0,0.0,0.45594918,-0.22333446,9.77182929,0.002539,-0.001052,0.004069
11.770752999989782,11.770752999989782,0.0,0.0,1.9210701770606295,0.0,0.0,0.46209024,-0.21539817,9.77677353,0.002513,-0.001381,0.004491
11.790738000010606,11.790738000010606,0.0,0.0,1.9211275404942194,0.0,0.0,0.47751156,-0.21151341,9.76613949,0.003288,0.002066,0.002744
11.810722000023816,11.810722000023816,0.0,0.0,1.921201545603659,0.0,0.0,0.47077209,-0.20971818,9.77931432,0.002894,0.000153,0.00369
11.830706999986432,11.830706999986432,0.0,0.0,1.9212758281438083,0.0,0.0,0.46627911,-0.22467843,9.78261048,0.003629,0.000471,0.003707
11.850690999999642,11.850690999999642,0.0,0.0,1.921363572885964,0.0,0.0,0.4599909,-0.21390705,9.77152518,0.002158,-3.3e-05,0.004466
11.870675000012852,11.870675000012852,0.0,0.0,1.9214308273480079,0.0,0.0,0.46778004,-0.20956122,9.78515127,0.00356,-0.000848,0.0033
11.890660000033677,11.890660000033677,0.0,0.0,1.9215452897270264,0.0,0.0,0.46897686,-0.21675195,9.76988691,0.002196,-0.002194,0.005979
11.930629000009503,11.930629000009503,0.0,0.0,1.9216977612269766,0.0,0.0,0.48409407,-0.21510387,9.77302611,0.003079,-4.8e-05,0.003528
11.950613000022713,11.950613000022713,0.0,0.0,1.9217428884812087,0.0,0.0,0.46673037,-0.23216346,9.78545538,0.001889,0.001116,0.002198
11.950613000022713,11.950613000022713,0.0,0.0,1.9217167050363697,0.0,0.0,0.46673037,-0.23216346,9.78545538,0.001889,0.001116,0.002198
11.950613000022713,11.950613000022713,0.0,0.0,1.9216963633210797,0.0,0.0,0.46673037,-0.23216346,9.78545538,0.001889,0.001116,0.002198
12.01056600001175,12.01056600001175,0.0,0.0,1.9219144216031054,0.0,0.0,0.46478799,-0.22438413,9.77048532,0.002569,-0.000994,0.004163
12.03055000002496,12.03055000002496,0.0,0.0,1.9219934519917583,0.0,0.0,0.46194309,-0.21465261,9.77991273,0.00351,-0.002025,0.003993
12.050534999987576,12.050534999987576,0.0,0.0,1.9220754503222572,0.0,0.0,0.46298295,-0.21539817,9.77347737,0.002533,-0.001329,0.004152
12.070519000000786,12.070519000000786,0.0,0.0,1.9221381530794694,0.0,0.0,0.47077209,-0.2128573799999999,9.76044969,0.003213,-2.9e-05,0.003085
12.09050400002161,12.09050400002161,0.0,0.0,1.9222063618173673,0.0,0.0,0.47510811,-0.21989115,9.76704201,0.002031,0.000169,0.003395
12.11048800003482,12.11048800003482,0.0,0.0,1.922290837466794,0.0,0.0,0.45625329,-0.21584943,9.7667379,0.001988,0.000822,0.004302
12.130471999989823,12.130471999989823,0.0,0.0,1.922355882088696,0.0,0.0,0.46822149,-0.21869433,9.77108373,0.003443,0.001155,0.003208
12.150457000010647,12.150457000010647,0.0,0.0,1.9224011423107914,0.0,0.0,0.46178613,-0.21255327,9.76434426,0.003139,-0.000313,0.002104
12.170441000023857,12.170441000023857,0.0,0.0,1.922479302368167,0.0,0.0,0.4628358,-0.22363857,9.77032836,0.001735,-0.000347,0.003975
12.190425999986473,12.190425999986473,0.0,0.0,1.9225677461505821,0.0,0.0,0.45790137,-0.21135645,9.76778757,0.003889,4.8e-05,0.004547
12.210409999999683,12.210409999999683,0.0,0.0,1.922647999314954,0.0,0.0,0.46642626,-0.22393287,9.77512545,0.002283,-0.000537,0.004068
12.230394000012893,12.230394000012893,0.0,0.0,1.9226897737787834,0.0,0.0,0.45819567,-0.20611791,9.77228055,0.003338,3.8e-05,0.001879
12.250379000033718,12.250379000033718,0.0,0.0,1.92278262867202,0.0,0.0,0.46792719,-0.2254338,9.77482134,0.003211,0.000101,0.00481
12.250379000033718,12.250379000033718,0.0,0.0,1.9228011250735548,0.0,0.0,0.46792719,-0.2254338,9.77482134,0.003211,0.000101,0.00481
12.290348000009544,12.290348000009544,0.0,0.0,1.922934577174927,0.0,0.0,0.45790137,-0.20417553,9.77661657,0.004317,0.001378,0.002798
12.330316000035964,12.330316000035964,0.0,0.0,1.923107770937846,0.0,0.0,0.46209024,-0.22887711,9.76823883,0.004037,-8e-05,0.005075
12.35030099999858,12.35030099999858,0.0,0.0,1.9231973066487473,0.0,0.0,0.46882971,-0.22168638,9.77063247,0.003014,-0.001545,0.004506
12.35030099999858,12.35030099999858,0.0,0.0,1.9232067952642131,0.0,0.0,0.46882971,-0.22168638,9.77063247,0.003014,-0.001545,0.004506
12.37028500001179,12.37028500001179,0.0,0.0,1.9233073265495557,0.0,0.0,0.47466666,-0.21584943,9.77317326,0.001708,0.000266,0.005221
12.410253999987617,12.410253999987617,0.0,0.0,1.9234851190977107,0.0,0.0,0.46058931,-0.20223315,9.763893,0.001863,0.001484,0.004766
12.430238000000827,12.430238000000827,0.0,0.0,1.9235566885615203,0.0,0.0,0.47331288,-0.20687328,9.77377167,0.003634,7.9e-05,0.003532
12.450223000021651,12.450223000021651,0.0,0.0,1.9236642363534777,0.0,0.0,0.46582785,-0.21749751,9.763893,0.003505,-0.000784,0.005483
12.470207000034861,12.470207000034861,0.0,0.0,1.9237479358425817,0.0,0.0,0.46328706,-0.21869433,9.77496849,0.003303,-0.000367,0.004175
12.490190999989863,12.490190999989863,0.0,0.0,1.9238116824092417,0.0,0.0,0.47391129,-0.21031659,9.77077962,0.004029,-9.5e-05,0.00308
12.510176000010688,12.510176000010688,0.0,0.0,1.9238995178992475,0.0,0.0,0.46418958,-0.22692492,9.77197644,0.002213,-0.00095,0.004421
12.530160000023898,12.530160000023898,0.0,0.0,1.9239774043066484,0.0,0.0,0.47346984,-0.22992678,9.77496849,0.004164,-0.001703,0.003866
12.550144999986514,12.550144999986514,0.0,0.0,1.9240854502132345,0.0,0.0,0.47106639,-0.20716758,9.7781175,0.003373,-0.000655,0.005552
12.550144999986514,12.550144999986514,0.0,0.0,1.9241047906120272,0.0,0.0,0.47106639,-0.20716758,9.7781175,0.003373,-0.000655,0.005552
12.590113000012934,12.590113000012934,0.0,0.0,1.9242586645456727,0.0,0.0,0.46718163,-0.22632651,9.77407578,0.003613,0.000254,0.003068
12.610098000033759,12.610098000033759,0.0,0.0,1.924342771756332,0.0,0.0,0.4767561900000001,-0.21644784,9.7579089,0.003301,0.000287,0.004199
12.63008199998876,12.63008199998876,0.0,0.0,1.9244326747213876,0.0,0.0,0.46328706,-0.21840003,9.76015539,0.002825,-0.001402,0.004529
12.650067000009585,12.650067000009585,0.0,0.0,1.924523641921815,0.0,0.0,0.46613196,-0.22048956,9.77347737,0.003337,-0.000218,0.004585
12.670051000022795,12.670051000022795,0.0,0.0,1.9246038909101655,0.0,0.0,0.46313991,-0.22498254,9.780658290000002,0.001407,-0.001239,0.003971
12.690035999985412,12.690035999985412,0.0,0.0,1.9247007636116669,0.0,0.0,0.47810997,-0.21959685,9.76419711,0.001541,0.000271,0.004924
12.730004000011832,12.730004000011832,0.0,0.0,1.9249295433914106,0.0,0.0,0.4745097,-0.19054944,9.78634809,0.0073,-0.00519,0.007139
12.749989000032656,12.749989000032656,0.0,0.0,1.92501077313812,0.0,0.0,0.46029501,-0.23800041,9.74952135,0.001874,0.001245,0.004036
12.769972999987658,12.769972999987658,0.0,0.0,1.9250828407221965,0.0,0.0,0.46778004,-0.24624081,9.75671208,0.002265,-0.001388,0.00355
12.769972999987658,12.769972999987658,0.0,0.0,1.9250667174558656,0.0,0.0,0.46778004,-0.24624081,9.75671208,0.002265,-0.001388,0.00355
12.789958000008482,12.789958000008482,0.0,0.0,1.9251535623043354,0.0,0.0,0.45535077,-0.1850166,9.78754491,0.004435,-0.000914,0.004335
12.829926000034902,12.829926000034902,0.0,0.0,1.9253361867147003,0.0,0.0,0.47481381,-0.23620518,9.77182929,0.001994,-0.001309,0.004773
12.849910999997519,12.849910999997519,0.0,0.0,1.9253951492386108,0.0,0.0,0.43454376,-0.2052252,9.76764042,0.005213,-0.000373,0.002829
12.849910999997519,12.849910999997519,0.0,0.0,1.92537257413575,0.0,0.0,0.43454376,-0.2052252,9.76764042,0.005213,-0.000373,0.002829
12.889880000031553,12.889880000031553,0.0,0.0,1.9255412119837905,0.0,0.0,0.46328706,-0.23560677,9.780658290000002,0.00213,-0.000617,0.004422
12.909863999986555,12.909863999986555,0.0,0.0,1.9255888169772675,0.0,0.0,0.44068482,-0.20178189,9.78589683,0.005608,0.000858,0.0022
12.929847999999765,12.929847999999765,0.0,0.0,1.9256485779103016,0.0,0.0,0.47046798,-0.22467843,9.76943565,0.002338,-0.001125,0.002896
12.94983300002059,12.94983300002059,0.0,0.0,1.9257187143346615,0.0,0.0,0.45984375,-0.22467843,9.76883724,0.002324,-0.001593,0.003486
12.94983300002059,12.94983300002059,0.0,0.0,1.9257156308627037,0.0,0.0,0.45984375,-0.22467843,9.76883724,0.002324,-0.001593,0.003486
12.989801999996416,12.989801999996416,0.0,0.0,1.925875838598638,0.0,0.0,0.47646189,-0.228573,9.77273181,0.002532,-0.001099,0.004448
13.009786000009626,13.009786000009626,0.0,0.0,1.925937113866583,0.0,0.0,0.4625415,-0.2137599,9.76599234,0.00321,0.000423,0.002975
13.049754999985453,13.049754999985453,0.0,0.0,1.9260946025475594,0.0,0.0,0.46957527,-0.21330864,9.77467419,0.003251,0.000476,0.004231
13.069738999998663,13.069738999998663,0.0,0.0,1.9261700231261383,0.0,0.0,0.47151765,-0.22168638,9.77317326,0.002633,0.001153,0.003775
13.089724000019487,13.089724000019487,0.0,0.0,1.9262527037613086,0.0,0.0,0.48170043,-0.21840003,9.77182929,0.004791,0.000294,0.004155
13.109708000032697,13.109708000032697,0.0,0.0,1.926344852539529,0.0,0.0,0.45580203,-0.22019526,9.764491410000002,0.004248,-0.00107,0.004658
13.129691999987699,13.129691999987699,0.0,0.0,1.9264155329939836,0.0,0.0,0.4742154,-0.22663062,9.77960862,0.004041,-0.000762,0.00351
13.149677000008523,13.149677000008523,0.0,0.0,1.9264954463320638,0.0,0.0,0.46792719,-0.21180771,9.77018121,0.002765,-0.000617,0.004009
13.149677000008523,13.149677000008523,0.0,0.0,1.9264974343612575,0.0,0.0,0.46792719,-0.21180771,9.77018121,0.002765,-0.000617,0.004009
13.149677000008523,13.149677000008523,0.0,0.0,1.926498997633459,0.0,0.0,0.46792719,-0.21180771,9.77018121,0.002765,-0.000617,0.004009
13.18964599998435,13.18964599998435,0.0,0.0,1.9266582076890026,0.0,0.0,0.47062494,-0.21824307,9.77257485,0.003278,-0.000168,0.004084
13.229615000018384,13.229615000018384,0.0,0.0,1.926810119243302,0.0,0.0,0.47226321,-0.22304016,9.77677353,0.003795,8.5e-05,0.003644
13.249599000031594,13.249599000031594,0.0,0.0,1.9268865252287846,0.0,0.0,0.47960109,-0.23336028,9.7724277,0.004116,-0.001052,0.003817
13.269582999986596,13.269582999986596,0.0,0.0,1.9269619923996038,0.0,0.0,0.46673037,-0.21061089,9.78170796,0.003687,-0.000672,0.003766
13.28956800000742,13.28956800000742,0.0,0.0,1.927047889421205,0.0,0.0,0.46104057,-0.22512969,9.76539393,0.003121,-0.001059,0.004343
13.30955200002063,13.30955200002063,0.0,0.0,1.9271369481881937,0.0,0.0,0.46807434,-0.21166056,9.77467419,0.003487,-0.000761,0.004514
13.329536999983247,13.329536999983247,0.0,0.0,1.9272308243935266,0.0,0.0,0.47466666,-0.21450546,9.77182929,0.002671,0.000102,0.004776
13.349520999996457,13.349520999996457,0.0,0.0,1.9273033393465049,0.0,0.0,0.46778004,-0.21539817,9.764795520000002,0.002759,0.000205,0.003571
13.369505000009667,13.369505000009667,0.0,0.0,1.92737067519323,0.0,0.0,0.47017368,-0.2228832,9.76793472,0.003204,0.00196,0.003287
13.389490000030492,13.389490000030492,0.0,0.0,1.9274244895387156,0.0,0.0,0.47481381,-0.21539817,9.76793472,0.004178,0.000519,0.002535
13.409473999985494,13.409473999985494,0.0,0.0,1.9274884326116952,0.0,0.0,0.47376414,-0.21390705,9.76539393,0.005002,-0.000897,0.003128
13.429459000006318,13.429459000006318,0.0,0.0,1.9275577193525484,0.0,0.0,0.45535077,-0.2140542,9.76688505,0.002919,0.000528,0.00344
13.449443000019528,13.449443000019528,0.0,0.0,1.927652335256452,0.0,0.0,0.47630493,-0.21704625,9.76913154,0.003341,-0.000588,0.004882
13.449443000019528,13.449443000019528,0.0,0.0,1.9276690994097159,0.0,0.0,0.47630493,-0.21704625,9.76913154,0.003341,-0.000588,0.004882
13.489411999995355,13.489411999995355,0.0,0.0,1.9278221947153469,0.0,0.0,0.4543011,-0.22348161,9.77362452,0.003885,-0.000964,0.003702
13.529381000029389,13.529381000029389,0.0,0.0,1.9279956099083124,0.0,0.0,0.46882971,-0.22244175,9.76778757,0.004079,-0.000292,0.004801
13.549364999984391,13.549364999984391,0.0,0.0,1.9280687325935641,0.0,0.0,0.47091924,-0.2140542,9.77601816,0.003793,0.001535,0.003644
13.569350000005215,13.569350000005215,0.0,0.0,1.9281567726039084,0.0,0.0,0.46209024,-0.22048956,9.77077962,0.004176,0.000263,0.004428
13.589334000018425,13.589334000018425,0.0,0.0,1.928238166453454,0.0,0.0,0.46403262,-0.21180771,9.77302611,0.002613,-0.000317,0.004075
13.609318000031635,13.609318000031635,0.0,0.0,1.9283162693553777,0.0,0.0,0.46598481,-0.22617936,9.7755669,0.001651,0.000403,0.003898
13.629302999994252,13.629302999994252,0.0,0.0,1.9283921922606426,0.0,0.0,0.4564004400000001,-0.21720321,9.77092677,0.002024,-0.000629,0.00378
13.649287000007462,13.649287000007462,0.0,0.0,1.9285132395525615,0.0,0.0,0.46058931,-0.22318731,9.77362452,0.001967,-0.001517,0.006247
13.669272000028286,13.669272000028286,0.0,0.0,1.9285752047300626,0.0,0.0,0.4716648,-0.21330864,9.76913154,0.003547,-0.000996,0.002982
13.689255999983288,13.689255999983288,0.0,0.0,1.928631147697522,0.0,0.0,0.47226321,-0.2112093,9.77692068,0.002619,0.001026,0.00266
13.709239999996498,13.709239999996498,0.0,0.0,1.928716419013739,0.0,0.0,0.46687752,-0.2200383,9.78005988,0.00416,0.001683,0.004305
13.729225000017323,13.729225000017323,0.0,0.0,1.9288023237664582,0.0,0.0,0.46433673,-0.22168638,9.77333022,0.003362,0.000383,0.004336
13.749209000030532,13.749209000030532,0.0,0.0,1.9288427230339327,0.0,0.0,0.4653864,-0.21075804,9.77228055,0.002817,-0.000167,0.00178
13.749209000030532,13.749209000030532,0.0,0.0,1.9288120759250642,0.0,0.0,0.4653864,-0.21075804,9.77228055,0.002817,-0.000167,0.00178
13.789178000006359,13.789178000006359,0.0,0.0,1.9289612217984047,0.0,0.0,0.46867275,-0.21780162,9.78230637,0.001349,-0.00101,0.004026
13.809163000027183,13.809163000027183,0.0,0.0,1.9290275469837823,0.0,0.0,0.47182176,-0.219744,9.77032836,0.003336,-0.000672,0.003285
13.829146999982186,13.829146999982186,0.0,0.0,1.9291268380696698,0.0,0.0,0.4653864,-0.210915,9.77092677,0.003423,-0.000979,0.005164
13.849130999995396,13.849130999995396,0.0,0.0,1.9291928390065198,0.0,0.0,0.47242017,-0.22768029,9.77182929,0.002667,-0.00028,0.003241
13.88910000002943,13.88910000002943,0.0,0.0,1.9293323065457395,0.0,0.0,0.47376414,-0.22123512,9.77168214,0.00342,0.000533,0.003287
13.88910000002943,13.88910000002943,0.0,0.0,1.9293265768427936,0.0,0.0,0.47376414,-0.22123512,9.77168214,0.00342,0.000533,0.003287
13.929069000005256,13.929069000005256,0.0,0.0,1.9294682201801692,0.0,0.0,0.47361699,-0.22632651,9.77273181,0.002583,-0.000671,0.003503
13.949053000018466,13.949053000018466,0.0,0.0,1.9295663032863644,0.0,0.0,0.45730296,-0.22453128,9.7721334,0.00188,-0.000189,0.004996
13.96903800003929,13.96903800003929,0.0,0.0,1.9296438216230003,0.0,0.0,0.46658322,-0.21764466,9.76749327,0.002235,-0.000549,0.003887
13.989021999994293,13.989021999994293,0.0,0.0,1.9297229652006163,0.0,0.0,0.46104057,-0.2128573799999999,9.76778757,0.003282,0.000872,0.003975
14.009007000015117,14.009007000015117,0.0,0.0,1.9298098873816194,0.0,0.0,0.47256732,-0.2168991,9.77572386,0.003842,-0.000659,0.004399
14.028991000028327,14.028991000028327,0.0,0.0,1.9298870839040525,0.0,0.0,0.46792719,-0.22722903,9.77646942,0.003823,-0.000356,0.00386
14.048975999990944,14.048975999990944,0.0,0.0,1.9299820803272763,0.0,0.0,0.46762308,-0.22558095,9.77392863,0.004426,0.000651,0.004845
14.048975999990944,14.048975999990944,0.0,0.0,1.9299952904981632,0.0,0.0,0.46762308,-0.22558095,9.77392863,0.004426,0.000651,0.004845
14.088944000017364,14.088944000017364,0.0,0.0,1.9301674435091165,0.0,0.0,0.47091924,-0.2168991,9.76164651,0.002331,-0.001363,0.004547
14.108929000038188,14.108929000038188,0.0,0.0,1.9302569054140193,0.0,0.0,0.47226321,-0.20597076,9.77077962,0.004088,7.3e-05,0.004514
14.12891299999319,14.12891299999319,0.0,0.0,1.9303423711970433,0.0,0.0,0.46522944,-0.21075804,9.7607538,0.003719,-0.001006,0.004284
14.148898000014015,14.148898000014015,0.0,0.0,1.930447139141287,0.0,0.0,0.46223739,-0.22244175,9.76195062,0.000743,-0.000536,0.005374
14.168882000027224,14.168882000027224,0.0,0.0,1.930542719756592,0.0,0.0,0.47091924,-0.20851155,9.78470001,0.003147,-0.000415,0.004836
14.208851000003051,14.208851000003051,0.0,0.0,1.9306950564840797,0.0,0.0,0.47586348,-0.21539817,9.7695828,0.003562,0.000244,0.003155
14.208851000003051,14.208851000003051,0.0,0.0,1.930676340672533,0.0,0.0,0.47586348,-0.21539817,9.7695828,0.003562,0.000244,0.003155
14.228835000016261,14.228835000016261,0.0,0.0,1.9307436228506933,0.0,0.0,0.47510811,-0.2257281,9.78769206,0.001108,-3.2e-05,0.003241
14.248820000037085,14.248820000037085,0.0,0.0,1.9308342587857936,0.0,0.0,0.46493514,-0.20956122,9.77901021,0.003076,-0.00152,0.004625
14.288789000012912,14.288789000012912,0.0,0.0,1.9309999766329362,0.0,0.0,0.47974824,-0.22123512,9.77496849,0.003133,-0.001152,0.004219
14.288789000012912,14.288789000012912,0.0,0.0,1.9310019603193016,0.0,0.0,0.47974824,-0.22123512,9.77496849,0.003133,-0.001152,0.004219
14.328757000039332,14.328757000039332,0.0,0.0,1.931201805293414,0.0,0.0,0.46957527,-0.22378572,9.77587101,0.003597,0.000704,0.006015
14.348742000001948,14.348742000001948,0.0,0.0,1.931270660893059,0.0,0.0,0.47091924,-0.21809592,9.77347737,0.003947,0.000481,0.003368
14.348742000001948,14.348742000001948,0.0,0.0,1.9312564733332298,0.0,0.0,0.47091924,-0.21809592,9.77347737,0.003947,0.000481,0.003368
14.368726000015158,14.368726000015158,0.0,0.0,1.9313482355520462,0.0,0.0,0.46658322,-0.2228832,9.76599234,0.002776,-0.000468,0.004694
14.408694999990985,14.408694999990985,0.0,0.0,1.9315086957720435,0.0,0.0,0.46912401,-0.22019526,9.78320889,0.002692,-0.002135,0.003788
14.428679000004195,14.428679000004195,0.0,0.0,1.9316095405777975,0.0,0.0,0.46178613,-0.21929274,9.77108373,0.003339,-0.002252,0.005135
14.448664000025019,14.448664000025019,0.0,0.0,1.9317090150371472,0.0,0.0,0.45280998,-0.21809592,9.76883724,0.003181,-0.001199,0.00505
14.468648000038229,14.468648000038229,0.0,0.0,1.9318056734012297,0.0,0.0,0.47391129,-0.23605803,9.76718916,0.004702,-0.000108,0.004886
14.488633000000846,14.488633000000846,0.0,0.0,1.931868413950296,0.0,0.0,0.47002653,-0.21749751,9.77092677,0.003986,0.000191,0.002988
14.508617000014056,14.508617000014056,0.0,0.0,1.9319309738219967,0.0,0.0,0.46897686,-0.22887711,9.77032836,0.003936,0.001044,0.002996
14.528601000027265,14.528601000027265,0.0,0.0,1.931993116475633,0.0,0.0,0.45745011,-0.22423698,9.76195062,0.003701,-0.000166,0.002989
14.548585999989882,14.548585999989882,0.0,0.0,1.9320969105327643,0.0,0.0,0.4713705,-0.2140542,9.76764042,0.00405,-0.001002,0.005352
14.568570000003092,14.568570000003092,0.0,0.0,1.9321634347413745,0.0,0.0,0.46822149,-0.21824307,9.77182929,0.004004,-0.000973,0.003225
14.588555000023916,14.588555000023916,0.0,0.0,1.9322658816600207,0.0,0.0,0.46433673,-0.21854718,9.780511140000002,0.001811,-0.002019,0.005274
14.608539000037126,14.608539000037126,0.0,0.0,1.9323517508936323,0.0,0.0,0.47496096,-0.22453128,9.76254903,0.003537,-0.001602,0.004313
14.648508000012953,14.648508000012953,0.0,0.0,1.9325244484573103,0.0,0.0,0.47331288,-0.21015963,9.77467419,0.00392,0.001162,0.004452
14.648508000012953,14.648508000012953,0.0,0.0,1.9325281768055964,0.0,0.0,0.47331288,-0.21015963,9.77467419,0.00392,0.001162,0.004452
14.668492000026163,14.668492000026163,0.0,0.0,1.9326135337726242,0.0,0.0,0.45011223,-0.21584943,9.77003406,0.003547,0.000281,0.004273
14.68847699998878,14.68847699998878,0.0,0.0,1.9327056181307452,0.0,0.0,0.46373832,-0.2140542,9.7841016,0.003463,-0.001059,0.004666
14.728446000022814,14.728446000022814,0.0,0.0,1.932869436351175,0.0,0.0,0.48139632,-0.21479976,9.77721498,0.002045,0.000325,0.003861
14.748430000036024,14.748430000036024,0.0,0.0,1.933000102688136,0.0,0.0,0.46897686,-0.21046374,9.77826465,0.00258,-0.001854,0.006678
14.768413999991026,14.768413999991026,0.0,0.0,1.9330698421728876,0.0,0.0,0.46044216,-0.22632651,9.780658290000002,0.001878,-0.000244,0.003411
14.768413999991026,14.768413999991026,0.0,0.0,1.9330531786102085,0.0,0.0,0.46044216,-0.22632651,9.780658290000002,0.001878,-0.000244,0.003411
14.80838300002506,14.80838300002506,0.0,0.0,1.9332171834672485,0.0,0.0,0.46433673,-0.21479976,9.76164651,0.002808,0.000931,0.003865
14.828367999987677,14.828367999987677,0.0,0.0,1.9332845821728917,0.0,0.0,0.46223739,-0.21479976,9.77197644,0.003846,0.000355,0.003286
14.848352000000887,14.848352000000887,0.0,0.0,1.9333491633913642,0.0,0.0,0.47646189,-0.22467843,9.77182929,0.003061,0.000221,0.003139
14.868337000021711,14.868337000021711,0.0,0.0,1.9334341893769906,0.0,0.0,0.46223739,-0.22048956,9.77347737,0.003684,0.000161,0.004285
14.88832100003492,14.88832100003492,0.0,0.0,1.9335363980642093,0.0,0.0,0.46778004,-0.21465261,9.78305193,0.003792,-0.000379,0.005241
14.908304999989923,14.908304999989923,0.0,0.0,1.9336102508936373,0.0,0.0,0.45370269,-0.21644784,9.77706783,0.002604,-0.000517,0.003637
14.928290000010747,14.928290000010747,0.0,0.0,1.9337204883578831,0.0,0.0,0.46508229,-0.21794877,9.77362452,0.0018,0.000257,0.00569
14.948274000023957,14.948274000023957,0.0,0.0,1.9338004220810365,0.0,0.0,0.46373832,-0.21360294,9.78201207,0.003253,-0.000182,0.003959
14.948274000023957,14.948274000023957,0.0,0.0,1.9337955049748086,0.0,0.0,0.46373832,-0.21360294,9.78201207,0.003253,-0.000182,0.003959
14.988242999999784,14.988242999999784,0.0,0.0,1.9339648567193208,0.0,0.0,0.46223739,-0.2168991,9.77766624,0.004985,0.000248,0.004238
15.008227000012994,15.008227000012994,0.0,0.0,1.9340357489635434,0.0,0.0,0.45520362,-0.22318731,9.77317326,0.002726,0.001109,0.003452
15.04819599998882,15.04819599998882,0.0,0.0,1.9342253645417333,0.0,0.0,0.47077209,-0.2131614899999999,9.76883724,0.001294,-0.000955,0.005386
15.068181000009645,15.068181000009645,0.0,0.0,1.9343432523229769,0.0,0.0,0.45939249,-0.22423698,9.77871591,0.002439,-0.001549,0.005959
15.088165000022855,15.088165000022855,0.0,0.0,1.9344208561688454,0.0,0.0,0.47017368,-0.21794877,9.77377167,0.003903,0.000376,0.003849
15.108149999985471,15.108149999985471,0.0,0.0,1.9344900327586023,0.0,0.0,0.47122335,-0.21300453,9.76972995,0.003034,-0.000248,0.003399
15.128133999998681,15.128133999998681,0.0,0.0,1.9345504465114223,0.0,0.0,0.46373832,-0.22153923,9.77871591,0.005029,0.000886,0.002929
15.148118000011891,15.148118000011891,0.0,0.0,1.9346271676887232,0.0,0.0,0.47436255,-0.21764466,9.7695828,0.003746,0.000314,0.003816
15.168103000032715,15.168103000032715,0.0,0.0,1.9347260711389307,0.0,0.0,0.46118772,-0.21255327,9.76584519,0.001913,-0.000102,0.005028
15.188086999987718,15.188086999987718,0.0,0.0,1.934785576008971,0.0,0.0,0.45370269,-0.21166056,9.76224492,0.00325,-0.000592,0.002857
15.208072000008542,15.208072000008542,0.0,0.0,1.9348772320395113,0.0,0.0,0.47615778,-0.21840003,9.76584519,0.00325,-0.000651,0.004645
15.228056000021752,15.228056000021752,0.0,0.0,1.9349444443037829,0.0,0.0,0.47017368,-0.21046374,9.75865446,0.003008,-0.000149,0.003281
15.248040999984369,15.248040999984369,0.0,0.0,1.9350243624210197,0.0,0.0,0.46223739,-0.2225889,9.75880161,0.003483,-0.003268,0.003999
15.248040999984369,15.248040999984369,0.0,0.0,1.935024374982639,0.0,0.0,0.46223739,-0.2225889,9.75880161,0.003483,-0.003268,0.003999
15.288009000010788,15.288009000010788,0.0,0.0,1.9351532458306453,0.0,0.0,0.46478799,-0.2225889,9.75880161,0.00282,-0.000181,0.002252
15.327977999986615,15.327977999986615,0.0,0.0,1.93529253179228,0.0,0.0,0.46058931,-0.21914559,9.77496849,0.002445,-0.000712,0.0032
15.34796300000744,15.34796300000744,0.0,0.0,1.9353635550600625,0.0,0.0,0.46238454,-0.2131614899999999,9.76015539,0.00305,0.000619,0.00355
15.36794700002065,15.36794700002065,0.0,0.0,1.9354239193177998,0.0,0.0,0.46986957,-0.22048956,9.75805605,0.002668,-0.001967,0.002992
15.38793100003386,15.38793100003386,0.0,0.0,1.9355226823482106,0.0,0.0,0.46149183,-0.22228479,9.77991273,0.002519,-0.001369,0.005021
15.407915999996476,15.407915999996476,0.0,0.0,1.9356276143028808,0.0,0.0,0.45924534,-0.21450546,9.76015539,0.002214,-0.002317,0.005352
15.427900000009686,15.427900000009686,0.0,0.0,1.935685398036341,0.0,0.0,0.46298295,-0.2080701,9.768690090000002,0.003185,6e-06,0.002806
15.44788500003051,15.44788500003051,0.0,0.0,1.935777172201652,0.0,0.0,0.4773546,-0.22917141,9.76988691,0.003031,0.001094,0.004659
15.487854000006337,15.487854000006337,0.0,0.0,1.9359433519364408,0.0,0.0,0.4628358,-0.2112093,9.77976558,0.005352,0.000231,0.004373
15.487854000006337,15.487854000006337,0.0,0.0,1.9359498902294474,0.0,0.0,0.4628358,-0.2112093,9.77976558,0.005352,0.000231,0.004373
15.507838000019547,15.507838000019547,0.0,0.0,1.9360349027572719,0.0,0.0,0.46837845,-0.21959685,9.7721334,0.003049,-0.000431,0.004282
15.527822000032756,15.527822000032756,0.0,0.0,1.9361199813068275,0.0,0.0,0.46403262,-0.21840003,9.76539393,0.003049,-0.000431,0.004282
15.527822000032756,15.527822000032756,0.0,0.0,1.9361227058529664,0.0,0.0,0.46403262,-0.21840003,9.76539393,0.003049,-0.000431,0.004282
15.567791000008583,15.567791000008583,0.0,0.0,1.9363065033147286,0.0,0.0,0.4742154,-0.23366439,9.76613949,0.002628,0.000576,0.005209
15.60775999998441,15.60775999998441,0.0,0.0,1.9364950375094292,0.0,0.0,0.46358136,-0.21749751,9.77407578,0.003727,0.001204,0.005188
15.627745000005234,15.627745000005234,0.0,0.0,1.9366090648737337,0.0,0.0,0.48094506,-0.22273605,9.7692885,0.002725,0.000377,0.005762
15.647729000018444,15.647729000018444,0.0,0.0,1.9366756514046006,0.0,0.0,0.47122335,-0.22079367,9.76628664,0.003993,0.001224,0.003261
15.667713000031654,15.667713000031654,0.0,0.0,1.9367405610585928,0.0,0.0,0.46837845,-0.21929274,9.76988691,0.003869,0.000887,0.00317
15.68769799999427,15.68769799999427,0.0,0.0,1.936819305817525,0.0,0.0,0.47660904,-0.22588506,9.7664436,0.002692,-6.3e-05,0.003917
15.70768200000748,15.70768200000748,0.0,0.0,1.936927474012565,0.0,0.0,0.4685256,-0.20896281,9.77991273,0.002674,-0.00105,0.005517
15.727667000028305,15.727667000028305,0.0,0.0,1.9370148555812765,0.0,0.0,0.47091924,-0.21630069,9.76898439,0.002655,0.000562,0.004372
15.747650999983307,15.747650999983307,0.0,0.0,1.9371017057121867,0.0,0.0,0.45475236,-0.22423698,9.77287896,0.00309,-0.001062,0.004343
15.767634999996517,15.767634999996517,0.0,0.0,1.937156180555542,0.0,0.0,0.46268865,-0.21584943,9.78036399,0.003079,0.001473,0.00255
15.807604000030551,15.807604000030551,0.0,0.0,1.937301467819549,0.0,0.0,0.46268865,-0.20926692,9.77077962,0.003388,0.000823,0.003139
15.807604000030551,15.807604000030551,0.0,0.0,1.9372868271429784,0.0,0.0,0.46268865,-0.20926692,9.77077962,0.003388,0.000823,0.003139
15.847573000006378,15.847573000006378,0.0,0.0,1.9374441819173098,0.0,0.0,0.46029501,-0.21899844,9.77092677,0.002953,-0.0007,0.004005
15.847573000006378,15.847573000006378,0.0,0.0,1.9374460742534012,0.0,0.0,0.46029501,-0.21899844,9.77092677,0.002953,-0.0007,0.004005
15.847573000006378,15.847573000006378,0.0,0.0,1.9374475426685454,0.0,0.0,0.46029501,-0.21899844,9.77092677,0.002953,-0.0007,0.004005
15.887541999982204,15.887541999982204,0.0,0.0,1.9376382944584911,0.0,0.0,0.47630493,-0.21749751,9.7812567,0.002074,-0.000842,0.005944
15.927511000016239,15.927511000016239,0.0,0.0,1.9377912690414707,0.0,0.0,0.46089342,-0.21630069,9.76464837,0.001427,0.000995,0.003428
15.927511000016239,15.927511000016239,0.0,0.0,1.9377806285254637,0.0,0.0,0.46089342,-0.21630069,9.76464837,0.001427,0.000995,0.003428
15.967479999992065,15.967479999992065,0.0,0.0,1.9379375657715867,0.0,0.0,0.47555937,-0.20207619,9.77137803,0.00451,-0.001084,0.003851
15.987464000005275,15.987464000005275,0.0,0.0,1.9380107572486676,0.0,0.0,0.47032083,-0.22333446,9.78141366,0.004346,-0.000212,0.003635
16.0074490000261,16.0074490000261,0.0,0.0,1.9380736449530573,0.0,0.0,0.46658322,-0.22019526,9.7692885,0.003105,-0.001868,0.003072
16.02743300003931,16.02743300003931,0.0,0.0,1.9381404413749301,0.0,0.0,0.45549792,-0.22677777,9.75356307,0.003868,0.000859,0.003295
16.04741699999431,16.04741699999431,0.0,0.0,1.9382195739259203,0.0,0.0,0.4625415,-0.21180771,9.77587101,0.004303,-0.00095,0.003984
16.067402000015136,16.067402000015136,0.0,0.0,1.9383046994358413,0.0,0.0,0.47346984,-0.22199049,9.76015539,0.003033,0.000267,0.004315
16.087386000028346,16.087386000028346,0.0,0.0,1.9383849660784502,0.0,0.0,0.46522944,-0.2254338,9.77197644,0.003781,4e-05,0.004037
16.107370999990962,16.107370999990962,0.0,0.0,1.9384685932970545,0.0,0.0,0.46702467,-0.22019526,9.76613949,0.002159,2.9e-05,0.004223
16.127353999996558,16.127353999996558,0.0,0.0,1.9385238738195936,0.0,0.0,0.47122335,-0.21720321,9.77362452,0.003271,0.000334,0.002622
16.127353999996558,16.127353999996558,0.0,0.0,1.938506288719024,0.0,0.0,0.47122335,-0.21720321,9.77362452,0.003271,0.000334,0.002622
16.127353999996558,16.127353999996558,0.0,0.0,1.938492397007444,0.0,0.0,0.47122335,-0.21720321,9.77362452,0.003271,0.000334,0.002622
16.167324000038207,16.167324000038207,0.0,0.0,1.9386324482973283,0.0,0.0,0.44846415,-0.22467843,9.76688505,0.003111,-0.000174,0.003497
16.20729200000642,16.20729200000642,0.0,0.0,1.9387588076560496,0.0,0.0,0.4504163400000001,-0.19923129,9.76090095,0.005044,8.8e-05,0.002739
16.227277000027243,16.227277000027243,0.0,0.0,1.9388527496953936,0.0,0.0,0.47196891,-0.2573163,9.75970413,0.000811,-0.000429,0.004851
16.24726199998986,16.24726199998986,0.0,0.0,1.9389321266443353,0.0,0.0,0.46508229,-0.18262296,9.78365034,0.004501,0.001563,0.004016
16.267244999995455,16.267244999995455,0.0,0.0,1.9389929226156841,0.0,0.0,0.44712018,-0.2314179,9.76778757,0.00323,8.3e-05,0.002967
16.287231000023894,16.287231000023894,0.0,0.0,1.9390557552492718,0.0,0.0,0.47002653,-0.23081949,9.76254903,0.002782,-0.001291,0.003091
16.32719999999972,16.32719999999972,0.0,0.0,1.9392421696384332,0.0,0.0,0.46867275,-0.2131614899999999,9.76000824,0.004692,-0.000106,0.005861
16.32719999999972,16.32719999999972,0.0,0.0,1.939276623780458,0.0,0.0,0.46867275,-0.2131614899999999,9.76000824,0.004692,-0.000106,0.005861
16.36716800002614,16.36716800002614,0.0,0.0,1.9394618337711584,0.0,0.0,0.47226321,-0.20791314,9.76778757,0.003238,0.00105,0.005204
16.387152999988757,16.387152999988757,0.0,0.0,1.9395212144467955,0.0,0.0,0.4599909,-0.23172201,9.77886306,0.003341,0.000743,0.002895
16.407135999994352,16.407135999994352,0.0,0.0,1.9395734940581448,0.0,0.0,0.48244599,-0.25356888,9.76568823,0.000713,0.000587,0.002515
16.42712200002279,16.42712200002279,0.0,0.0,1.9396503232880624,0.0,0.0,0.46433673,-0.20911977,9.77661657,0.004845,0.001239,0.003843
16.447106000036,16.447106000036,0.0,0.0,1.939725839013457,0.0,0.0,0.47974824,-0.21943989,9.76809168,0.004171,0.000304,0.003772
16.447106000036,16.447106000036,0.0,0.0,1.9397246569912259,0.0,0.0,0.47974824,-0.21943989,9.76809168,0.004171,0.000304,0.003772
16.467090999998618,16.467090999998618,0.0,0.0,1.9398029173322069,0.0,0.0,0.45894123,-0.21330864,9.76778757,0.004124,-0.00129,0.003934
16.507059000025038,16.507059000025038,0.0,0.0,1.939932295499375,0.0,0.0,0.47615778,-0.19803447,9.76688505,0.003454,-0.001634,0.002508
16.527043999987654,16.527043999987654,0.0,0.0,1.9400444119698408,0.0,0.0,0.4599909,-0.21869433,9.76988691,0.002903,0.001258,0.00581
16.547028000000864,16.547028000000864,0.0,0.0,1.9401543442682136,0.0,0.0,0.45879408,-0.23306598,9.76568823,0.004242,0.000259,0.005668
16.56701300002169,16.56701300002169,0.0,0.0,1.9402502709982432,0.0,0.0,0.48454533,-0.22588506,9.77273181,0.004033,-0.000945,0.004869
16.5869970000349,16.5869970000349,0.0,0.0,1.9403554554735685,0.0,0.0,0.46058931,-0.24653511,9.77108373,0.004789,0.001392,0.005379
16.606981999997515,16.606981999997515,0.0,0.0,1.9404189756989965,0.0,0.0,0.46627911,-0.21899844,9.78904584,0.003329,0.000283,0.003026
16.62696500000311,16.62696500000311,0.0,0.0,1.9405026951169448,0.0,0.0,0.46642626,-0.20866851,9.76883724,0.003507,-0.000928,0.004183
16.646950000023935,16.646950000023935,0.0,0.0,1.9405752884033536,0.0,0.0,0.45759726,-0.22348161,9.76659075,0.002896,-0.000851,0.003555
16.68691899999976,16.68691899999976,0.0,0.0,1.9407648157596897,0.0,0.0,0.45819567,-0.20447964,9.77692068,0.00259,-0.000489,0.005362
16.68691899999976,16.68691899999976,0.0,0.0,1.9407825843852429,0.0,0.0,0.45819567,-0.20447964,9.77692068,0.00259,-0.000489,0.005362
16.726888000033796,16.726888000033796,0.0,0.0,1.9409617638314227,0.0,0.0,0.47974824,-0.22737618,9.78814332,0.003735,-0.000138,0.004512
16.746872999996413,16.746872999996413,0.0,0.0,1.9410164553875529,0.0,0.0,0.46448388,-0.22483539,9.77077962,0.00389,0.000474,0.00263
16.746872999996413,16.746872999996413,0.0,0.0,1.9409904558236288,0.0,0.0,0.46448388,-0.22483539,9.77077962,0.00389,0.000474,0.00263
16.766856000002008,16.766856000002008,0.0,0.0,1.9410827494173954,0.0,0.0,0.47062494,-0.22393287,9.76269618,0.003923,0.001403,0.004743
16.786842000030447,16.786842000030447,0.0,0.0,1.9411635187353253,0.0,0.0,0.4713705,-0.21450546,9.76568823,0.003111,-2e-06,0.004029
16.80682599998545,16.80682599998545,0.0,0.0,1.9412189406977243,0.0,0.0,0.45549792,-0.2131614899999999,9.77856876,0.003257,-0.001271,0.002518
16.846795000019483,16.846795000019483,0.0,0.0,1.9413286656365738,0.0,0.0,0.45849978,-0.2140542,9.77751909,0.002775,-0.000802,0.001444
16.866779000032693,16.866779000032693,0.0,0.0,1.9414107271033174,0.0,0.0,0.48005235,-0.21675195,9.77617512,0.00404,-0.00086,0.00415
16.88676399999531,16.88676399999531,0.0,0.0,1.9415048230454444,0.0,0.0,0.46598481,-0.22108797,9.76164651,0.003334,-0.000222,0.004801
16.88676399999531,16.88676399999531,0.0,0.0,1.9415211983243195,0.0,0.0,0.46598481,-0.22108797,9.76164651,0.003334,-0.000222,0.004801
16.926733000029344,16.926733000029344,0.0,0.0,1.941675663142405,0.0,0.0,0.46268865,-0.22632651,9.76030254,0.004232,-9.9e-05,0.003808
16.946716999984346,16.946716999984346,0.0,0.0,1.9417340079673657,0.0,0.0,0.46268865,-0.22752333,9.76120506,0.003596,9.6e-05,0.002813
16.966700999997556,16.966700999997556,0.0,0.0,1.9418093929509297,0.0,0.0,0.47974824,-0.21435831,9.77437008,0.005744,0.000316,0.003775
16.98668600001838,16.98668600001838,0.0,0.0,1.9419059114640183,0.0,0.0,0.47630493,-0.20791314,9.76284333,0.003048,-0.001852,0.004957
17.00667000003159,17.00667000003159,0.0,0.0,1.9420170761008322,0.0,0.0,0.46822149,-0.21151341,9.76135221,0.002037,-0.001652,0.005764
17.026654999994207,17.026654999994207,0.0,0.0,1.9420907033445118,0.0,0.0,0.47481381,-0.21225897,9.76749327,0.00272,-0.001194,0.003624
17.046639000007417,17.046639000007417,0.0,0.0,1.9422071918524528,0.0,0.0,0.4745097,-0.21840003,9.75805605,0.004038,-0.00023,0.006053
17.046639000007417,17.046639000007417,0.0,0.0,1.9422337748341647,0.0,0.0,0.4745097,-0.21840003,9.75805605,0.004038,-0.00023,0.006053
17.086607999983244,17.086607999983244,0.0,0.0,1.942424532069702,0.0,0.0,0.4799052,-0.20402838,9.76599234,0.004677,-0.001004,0.005055
17.106591999996454,17.106591999996454,0.0,0.0,1.9425320455369137,0.0,0.0,0.46867275,-0.22632651,9.76913154,0.003246,-0.000703,0.005486
17.146561000030488,17.146561000030488,0.0,0.0,1.9427388230453975,0.0,0.0,0.46882971,-0.21644784,9.77333022,0.002971,-0.001765,0.005631
17.166545999993104,17.166545999993104,0.0,0.0,1.9428094598675267,0.0,0.0,0.45594918,-0.22168638,9.78215922,0.002511,-0.000797,0.003483
17.166545999993104,17.166545999993104,0.0,0.0,1.9427895088280724,0.0,0.0,0.45594918,-0.22168638,9.78215922,0.002511,-0.000797,0.003483
17.20651500002714,17.20651500002714,0.0,0.0,1.9429315329127368,0.0,0.0,0.4599909,-0.21780162,9.77541975,0.000936,-0.000613,0.002459
17.20651500002714,17.20651500002714,0.0,0.0,1.9429025416944672,0.0,0.0,0.4599909,-0.21780162,9.77541975,0.000936,-0.000613,0.002459
17.246484000002965,17.246484000002965,0.0,0.0,1.9430353766374164,0.0,0.0,0.45310428,-0.21450546,9.7692885,0.004029,-0.00052,0.002521
17.266468000016175,17.266468000016175,0.0,0.0,1.9431156695656995,0.0,0.0,0.48438837,-0.21764466,9.77333022,0.003012,-0.000769,0.004039
17.286452000029385,17.286452000029385,0.0,0.0,1.9431742297280943,0.0,0.0,0.45326124,-0.20447964,9.76015539,0.003479,-0.001699,0.002839
17.286452000029385,17.286452000029385,0.0,0.0,1.9431605948412987,0.0,0.0,0.45326124,-0.20447964,9.76015539,0.003479,-0.001699,0.002839
17.32642100000521,17.32642100000521,0.0,0.0,1.9433107913137242,0.0,0.0,0.46403262,-0.20432268,9.77362452,0.001555,-0.001202,0.003964
17.346406000026036,17.346406000026036,0.0,0.0,1.9433972067876244,0.0,0.0,0.45280998,-0.2270818799999999,9.76434426,0.002434,-0.000242,0.004406
17.346406000026036,17.346406000026036,0.0,0.0,1.943407554481536,0.0,0.0,0.45280998,-0.2270818799999999,9.76434426,0.002434,-0.000242,0.004406
17.386375000001863,17.386375000001863,0.0,0.0,1.9435745755015361,0.0,0.0,0.46493514,-0.22931856,9.78470001,0.00312,0.001578,0.004624
17.406359000015073,17.406359000015073,0.0,0.0,1.9436326284527494,0.0,0.0,0.4773546,-0.21465261,9.7755669,0.002911,-0.00136,0.002768
17.426343000028282,17.426343000028282,0.0,0.0,1.9437497962732095,0.0,0.0,0.47496096,-0.22139208,9.77137803,0.00281,-0.001826,0.006144
17.46631200000411,17.46631200000411,0.0,0.0,1.9440807299687712,0.0,0.0,0.50265459,-0.22079367,9.77422293,0.005623,0.001192,0.012632
17.486297000024933,17.486297000024933,0.0,0.0,1.9439996864191489,0.0,0.0,0.36523611,-0.18456534,9.70835859,0.007381,-0.001942,-0.004388
17.486297000024933,17.486297000024933,0.0,0.0,1.94385893416941,0.0,0.0,0.36523611,-0.18456534,9.70835859,0.007381,-0.001942,-0.004388
17.52626600000076,17.52626600000076,0.0,0.0,1.9438973941260693,0.0,0.0,0.43260138,-0.13666311,9.77766624,0.006603,0.002803,-0.001226
17.54625000001397,17.54625000001397,0.0,0.0,1.9438777475780418,0.0,0.0,0.51373008,-0.23920704,9.74234043,0.006603,0.002803,-0.001226
17.56623400002718,17.56623400002718,0.0,0.0,1.9439541153774718,0.0,0.0,0.4078998,-0.24519114,9.73111779,0.000933,0.000281,0.003987
17.56623400002718,17.56623400002718,0.0,0.0,1.9439844322548048,0.0,0.0,0.4078998,-0.24519114,9.73111779,0.000933,0.000281,0.003987
17.606203000003006,17.606203000003006,0.0,0.0,1.9440883981240447,0.0,0.0,0.49411989,-0.22034241,9.77092677,0.002531,-0.001112,0.00291
17.606203000003006,17.606203000003006,0.0,0.0,1.9440961570535134,0.0,0.0,0.49411989,-0.22034241,9.77092677,0.002531,-0.001112,0.00291
17.62618800002383,17.62618800002383,0.0,0.0,1.9442162428515175,0.0,0.0,0.44338257,-0.2282787,9.75446559,0.000823,-7e-06,0.006864
17.62618800002383,17.62618800002383,0.0,0.0,1.944271146639947,0.0,0.0,0.44338257,-0.2282787,9.75446559,0.000823,-7e-06,0.006864
17.64617200003704,17.64617200003704,0.0,0.0,1.9443389108944222,0.0,0.0,0.48094506,-0.18636057,9.78261048,0.00456,0.000871,0.003369
17.686141000012867,17.686141000012867,0.0,0.0,1.9445315985611993,0.0,0.0,0.4564004400000001,-0.21255327,9.77197644,0.004128,0.003156,0.006756
17.70612600003369,17.70612600003369,0.0,0.0,1.944532899819749,0.0,0.0,0.44862111,-0.45879408,9.768690090000002,-0.006282,-0.001232,-0.000676
17.746094000001904,17.746094000001904,0.0,0.0,1.9446263410079636,0.0,0.0,0.4564004400000001,-1.41949719,9.86703534,-0.022302,0.011237,0.001283
17.766079000022728,17.766079000022728,0.0,0.0,1.945019068118727,0.0,0.0,0.55893456,-1.95254316,9.91537902,-0.023672,0.015087,0.020851
17.786063000035938,17.786063000035938,0.0,0.0,1.9450482992136022,0.0,0.0,0.5364892800000001,-2.7993325500000004,9.65432511,-0.009877,0.038402,0.001132
17.806047999998555,17.806047999998555,0.0,0.0,1.9447746495470426,0.0,0.0,0.4972689,-3.45092256,9.66405663,-0.020934,-0.022876,-0.01535
17.826032000011764,17.826032000011764,0.0,0.0,1.9458618376400025,0.0,0.0,0.28515708,-3.8375739,9.36003492,-0.01416,0.032514,0.059432
17.84601700003259,17.84601700003259,0.0,0.0,1.9452974618854029,0.0,0.0,-0.09909081,-4.41686421,9.54519867,-0.033818,-0.01712,-0.032165
17.86600099998759,17.86600099998759,0.0,0.0,1.9435804463087187,0.0,0.0,0.4340925,-4.34786067,10.48179861,0.098749,-0.084173,-0.095704
17.8859850000008,17.8859850000008,0.0,0.0,1.942954312293658,0.0,0.0,-0.34578288,-4.39995177,11.59593993,-0.146992,0.209731,-0.033848
17.905970000021625,17.905970000021625,0.0,0.0,1.9430403080206524,0.0,0.0,1.36860291,-1.42548129,12.68297622,0.011625,0.082791,0.006292
17.925954000034835,17.925954000034835,0.0,0.0,1.9428315233509093,0.0,0.0,0.44846415,-3.09990114,13.00091832,-0.053778,0.196187,-0.010503
17.945938999997452,17.945938999997452,0.0,0.0,1.9453913840593424,0.0,0.0,0.26389881,-1.78338933,8.90633223,-0.033806,0.118719,0.145507
17.945938999997452,17.945938999997452,0.0,0.0,1.9475056662832095,0.0,0.0,0.26389881,-1.78338933,8.90633223,-0.033806,0.118719,0.145507
17.985908000031486,17.985908000031486,0.0,0.0,1.9475897440611725,0.0,0.0,-0.15237873,-0.42601887,11.17635642,0.070992,0.231147,-0.028785
18.005892999994103,18.005892999994103,0.0,0.0,1.9473736525596497,0.0,0.0,0.8041257,0.0142245,11.336975550000002,0.054924,-0.034037,-0.014905
18.045862000028137,18.045862000028137,0.0,0.0,1.9483573241358112,0.0,0.0,2.0730393900000004,2.83929849,5.03582616,0.5015,-0.130217,0.035359
18.06584599998314,18.06584599998314,0.0,0.0,1.9471208627605021,0.0,0.0,-3.65060511,0.22692492,17.97342093,0.078547,0.613242,-0.064855
18.085831000003964,18.085831000003964,0.0,0.0,1.9532569751896585,0.0,0.0,4.72208274,1.10724489,8.19426357,0.056604,-0.505569,0.322343
18.105815000017174,18.105815000017174,0.0,0.0,1.954287549650238,0.0,0.0,-0.97567317,3.418441650000001,12.38853888,-0.021795,-0.2705,0.05165
18.125800000037998,18.125800000037998,0.0,0.0,1.954143612745967,0.0,0.0,0.29907747,1.6628931,9.59489613,-0.115779,0.03175,-0.011412
18.145783999993,18.145783999993,0.0,0.0,1.9545552020718908,0.0,0.0,0.85757058,1.83638295,10.76950629,-0.007758,-0.029095,0.018835
18.165769000013825,18.165769000013825,0.0,0.0,1.95662806562318,0.0,0.0,0.56402595,1.17041148,10.44857214,0.00169,-0.013384,0.109601
18.165769000013825,18.165769000013825,0.0,0.0,1.957616620275406,0.0,0.0,0.56402595,1.17041148,10.44857214,0.00169,-0.013384,0.109601
18.185753000027034,18.185753000027034,0.0,0.0,1.9571090436463674,0.0,0.0,-0.43080615,1.23493185,10.6949601,0.024535,0.099913,-0.043931
18.22572200000286,18.22572200000286,0.0,0.0,1.957683201559795,0.0,0.0,-0.23665644,-0.8451413100000001,9.30091005,-0.075472,-0.020306,-0.020543
18.24570600001607,18.24570600001607,0.0,0.0,1.958034439562807,0.0,0.0,0.56282913,-0.35176698,9.62079453,-0.042032,0.076891,0.015796
18.24570600001607,18.24570600001607,0.0,0.0,1.9577763782258266,0.0,0.0,0.56282913,-0.35176698,9.62079453,-0.042032,0.076891,0.015796
18.285674999991897,18.285674999991897,0.0,0.0,1.9582508719546228,0.0,0.0,0.13936086,-1.53895356,9.87242103,-0.0652,0.040078,-0.010636
18.305660000012722,18.305660000012722,0.0,0.0,1.9584153302973277,0.0,0.0,1.25454204,-1.03539645,9.31213269,0.021939,-0.016919,0.00625
18.32564400002593,18.32564400002593,0.0,0.0,1.9594774804969841,0.0,0.0,0.5150740500000001,-2.37465765,10.65349323,-0.037578,-0.074822,0.057062
18.36561300000176,18.36561300000176,0.0,0.0,1.9584756253873197,0.0,0.0,0.05852646,-1.99729638,10.23182019,0.036308,-0.010682,-0.078244
18.385597000014968,18.385597000014968,0.0,0.0,1.9593152905633087,0.0,0.0,0.87013719,-1.5669414900000005,9.20705778,0.068921,-0.093296,0.042929
18.405582000035793,18.405582000035793,0.0,0.0,1.959866939739051,0.0,0.0,0.16525926,-1.51485039,9.72213183,-0.023265,0.09569,0.028124
18.405582000035793,18.405582000035793,0.0,0.0,1.9600466350253436,0.0,0.0,0.16525926,-1.51485039,9.72213183,-0.023265,0.09569,0.028124
18.44555100001162,18.44555100001162,0.0,0.0,1.9606524667650786,0.0,0.0,0.51164055,-0.8069706000000001,6.54184755,0.039256,0.00381,0.01107
18.46553500002483,18.46553500002483,0.0,0.0,1.9591227239738398,0.0,0.0,0.31838355,-0.8960355900000001,9.69070059,0.023384,-0.142051,-0.084059
18.48551900003804,18.48551900003804,0.0,0.0,1.9596975970638084,0.0,0.0,0.7746368400000001,-0.46732878,8.67491433,0.0488,0.157839,0.030987
18.505504000000656,18.505504000000656,0.0,0.0,1.9594479750045224,0.0,0.0,0.7665534,-0.21584943,10.581350490000002,-0.020818,0.183314,-0.014386
18.525488000013866,18.525488000013866,0.0,0.0,1.959337425136468,0.0,0.0,-0.37931346,0.44023356,9.28070145,0.067282,0.0056,-0.006546
18.525488000013866,18.525488000013866,0.0,0.0,1.959186360171814,0.0,0.0,-0.37931346,0.44023356,9.28070145,0.067282,0.0056,-0.006546
18.525488000013866,18.525488000013866,0.0,0.0,1.9590673362983368,0.0,0.0,-0.37931346,0.44023356,9.28070145,0.067282,0.0056,-0.006546
18.54547300003469,18.54547300003469,0.0,0.0,1.9583428464646886,0.0,0.0,-0.00628821,-0.3153915,9.26199378,-0.211573,-0.183543,-0.05007
18.585442000010516,18.585442000010516,0.0,0.0,1.9555370111939308,0.0,0.0,0.5081972400000001,3.87768699,13.50805608,0.36934,0.086197,-0.162932
18.625410999986343,18.625410999986343,0.0,0.0,1.9571662573235695,0.0,0.0,-0.14160735,2.23784739,9.828707670000002,0.090486,0.133364,0.117038
