timestamp,x,y,theta,vx,vy,bias_accel_x,bias_accel_y,bias_angular_velocity,accel_x,accel_y,accel_z,gyro_x,gyro_y,gyro_z,cov_trace
1757945898.400776,0.0,0.0,0.0,0.0,0.0,-2.273353232027833,0.28691964250497026,0.012677463220675946,0.07918631999999999,0.31644117000000005,9.79802199,0.003838,-0.000822,0.003149,3.13
1757945898.4216444,-0.0008314713654173989,-3.5622477957752985e-05,0.6027259234011169,-0.38607112943101113,-0.016540329433205353,-2.273353232027833,0.28691964250497026,0.0006036515559751134,0.07125003,0.29818476,9.80041563,0.00314,-0.002075,0.003138,0.9356947909304884
1757945898.441701,-0.006869807159336524,0.0006730052801182855,0.9191754989392429,-0.4509249826855861,0.0491198285158537,-2.273353232027833,0.28691964250497026,0.00030845165656535965,0.08232552,0.31000581,9.77661657,0.00165,-0.000252,0.003797,0.5874378168452483
1757945898.462038,-0.005674709494958401,0.0006520614217376884,1.1133327209408028,-0.24603730314516875,0.03270185655810367,-2.273353232027833,0.28691964250497026,0.00020668987141779515,0.08442486000000002,0.30446316,9.78230637,0.005132,0.000133,0.004943,0.4095686201991637
1757945898.4835773,-0.00954250693894868,0.003089897125543471,1.2520800859103565,-0.26570955418679537,0.09650118661252469,-2.273353232027833,0.28691964250497026,0.0001548670647273734,0.07304526,0.30147111000000004,9.775723860000001,0.002256,-0.002661,0.003053,0.3332226374474245
1757945898.5037496,-0.011735041273602996,0.00585785710149894,1.3562868038388975,-0.28553200846784293,0.1577902805527041,-2.273353232027833,0.28691964250497026,0.00012352769732566166,0.07663572,0.30565998000000005,9.74982546,0.003713,0.000266,0.00454,0.2825572755753809
1757945898.5239446,-0.01692301438822184,0.01106254011164281,1.4382903075684723,-0.30585147613581726,0.2177490172286984,-2.273353232027833,0.28691964250497026,0.00010230947784314746,0.0577809,0.30701375999999997,9.759252870000001,0.000243,-0.000513,0.003836,0.24869937389491928
1757945898.5449083,-0.019511979989957195,0.015050102015403431,1.5047454663151356,-0.3248489883484624,0.2721180204995203,-2.273353232027833,0.28691964250497026,8.70917117147175e-05,0.0577809,0.30701375999999997,9.759252870000001,0.000243,-0.000513,0.003836,0.22208230826691258
1757945898.5718522,-0.02081628113595114,0.02681873193583803,1.6387267049479934,-0.2549991670511959,0.37301009377379274,-2.273353232027833,0.28691964250497026,6.64521881338884e-05,0.07993188000000001,0.30012714,9.78919299,0.003051,-0.001742,0.004895,0.1789295456831866
1757945898.5984719,-0.022497831448945307,0.03646582653042216,1.6954440153007795,-0.22433866381521808,0.4220261245254667,-2.273353232027833,0.28691964250497026,5.9079567737266306e-05,0.06825798,0.30596409,9.78185511,0.000193,-0.000573,0.00334,0.1645585777593664
1757945898.6194062,-0.022839041486464273,0.04182950322126663,1.7404393996202714,-0.2164136485560198,0.4656711653477978,-2.273353232027833,0.28691964250497026,5.304531672144711e-05,0.06720831000000001,0.31239945,9.77048532,0.004568,-0.001281,0.003749,0.15207567705459102
1757945898.639909,-0.026443367192670927,0.05283817775261396,1.7778871139344874,-0.21811727183794757,0.5064319376533853,-2.273353232027833,0.28691964250497026,4.790361082712347e-05,0.08053028999999999,0.30402171,9.7781175,0.002882,1.9e-05,0.003998,0.14400668486085513
1757945898.6605902,-0.028111019517436383,0.05845406846173934,1.8095771920651025,-0.22569718353499954,0.5420323568029953,-2.273353232027833,0.28691964250497026,4.355746296335566e-05,0.07170129,0.30297204000000005,9.77692068,0.002948,0.000276,0.004305,0.1355289871628907
1757945898.685428,-0.03419119205561027,0.07387355808767232,1.8606486253140062,-0.24874846327564276,0.603142010619025,-2.273353232027833,0.28691964250497026,3.648039577258672e-05,0.07903917,0.29233800000000004,9.78829047,0.001119,0.000365,0.005344,0.12336137649223
1757945898.7064114,-0.03419119205561027,0.07387355808767232,1.8606486253140062,-0.24874846327564276,0.603142010619025,-2.273353232027833,0.28691964250497026,3.648039577258672e-05,0.07903917,0.29233800000000004,9.78829047,0.001119,0.000365,0.005344,0.12336137649223
1757945898.7270572,-0.04241268751854289,0.09221926161067016,1.8999657640450938,-0.27602093511296233,0.6525009171225999,-2.273353232027833,0.28691964250497026,3.095436874857163e-05,0.09400923,0.31015296,9.796530870000002,0.00271,0.00055,0.003088,0.11490188661625848
1757945898.7540243,-0.049078777043848,0.10664439889649312,1.9164214857219593,-0.2901060559502833,0.6738589156975145,-2.273353232027833,0.28691964250497026,2.8596565072889707e-05,0.07125003,0.29623257000000003,9.78874173,0.002828,-0.0002,0.003262,0.11280568782948922
1757945898.7745595,-0.05141234587248215,0.11061475801952231,1.9310764662798094,-0.303679239833036,0.6921990662321907,-2.273353232027833,0.28691964250497026,2.6513602781407137e-05,0.08053028999999999,0.30551283,9.763893,0.003661,-0.000323,0.006028,0.1082159055255746
1757945898.7951717,-0.05869367967630231,0.12549761310385105,1.9443213687346095,-0.31718710814916334,0.7093489142316288,-2.273353232027833,0.28691964250497026,2.4584628779645515e-05,0.08517042000000001,0.30910329000000003,9.77437008,0.000513,-0.000977,0.003409,0.10684499436255512
1757945898.8160002,-0.06127854623826962,0.1295604958553258,1.9562288074910823,-0.3298719847336191,0.724097712627013,-2.273353232027833,0.28691964250497026,2.2864378927476273e-05,0.07619427,0.28874754,9.77632227,0.003719,-6e-06,0.0046,0.10291985904781648
1757945898.8366196,-0.06792904247669361,0.142305518532869,1.967062865689721,-0.34215668082014944,0.7376479772815278,-2.273353232027833,0.28691964250497026,2.1270959434923586e-05,0.07215255000000001,0.2920437,9.795775500000001,0.002715,-0.000489,0.004426,0.1015044707974054
1757945898.8573818,-0.0712751309121008,0.14769342888138062,1.9768907181397415,-0.3536023512859204,0.7494431100906274,-2.273353232027833,0.28691964250497026,1.9831507172090397e-05,0.062116920000000006,0.29997999,9.7954812,0.003651,-0.000675,0.002104,0.09845435875037092
1757945898.878496,-0.07987442850065428,0.16395195448030522,1.985926925888828,-0.36470775544923395,0.7604777744074751,-2.273353232027833,0.28691964250497026,1.847292054328242e-05,0.0751446,0.31419468,9.780658290000002,0.004398,-0.000908,0.005338,0.09815626566905555
1757945898.8996246,-0.08176664450045111,0.16604189784745407,1.9941515450816372,-0.37480978940892845,0.7698453887142721,-2.273353232027833,0.28691964250497026,1.725517302205328e-05,0.0896634,0.3008727,9.796678020000002,-0.000633,-0.000244,0.004622,0.09460962202300169
1757945898.9197676,-0.08767543344719102,0.1763106228592955,2.001720067319834,-0.38432494243612336,0.7782916380885813,-2.273353232027833,0.28691964250497026,1.612406467709347e-05,0.06496182,0.31285071000000003,9.780815250000002,0.001748,4e-06,0.003539,0.09334720341358613
1757945898.9403846,-0.09312050071630565,0.18548345572160482,2.0086971730557037,-0.3932148482227379,0.7858281511003008,-2.273353232027833,0.28691964250497026,1.5076192325878743e-05,0.06496182,0.31285071000000003,9.780815250000002,0.001748,4e-06,0.003539,0.09188691823809214
1757945898.966235,-0.10412560769538387,0.20369996167579876,2.0211580857569595,-0.4093361910446389,0.7986635486419424,-2.273353232027833,0.28691964250497026,1.3182112295621182e-05,0.0865242,0.30117681,9.77856876,0.006156,-0.002197,0.004501,0.08896273266460396
1757945898.987149,-0.10412560769538387,0.20369996167579876,2.0211580857569595,-0.4093361910446389,0.7986635486419424,-2.273353232027833,0.28691964250497026,1.3182112295621182e-05,0.08547453,0.29862621,9.783208890000001,0.002439,0.000545,0.00394,0.08896273266460396
1757945899.0081866,-0.11528737481010629,0.22184030918782024,2.0319027142509363,-0.42317499578131007,0.8086536926150115,-2.273353232027833,0.28691964250497026,1.154769867955616e-05,0.08143281,0.30402171,9.78245352,0.005532,-0.000765,0.003541,0.08651498291985477
1757945899.032746,-0.12381113117923045,0.23636658386772022,2.0367477330428176,-0.42937965840452863,0.812813820408785,-2.273353232027833,0.28691964250497026,1.0807141998964379e-05,0.07603731000000001,0.29233800000000004,9.7784118,0.00289,-0.000379,0.004546,0.08668010609492723
1757945899.0530443,-0.12632073778799308,0.23944857131593247,2.041247366822267,-0.4350121499134437,0.8163433322584152,-2.273353232027833,0.28691964250497026,1.0131869882278021e-05,0.07454619,0.2977335,9.78589683,0.001961,0.000513,0.003902,0.08434145013531724
1757945899.0741713,-0.13566478902594906,0.2552918371139145,2.0454947963687378,-0.4403289753378722,0.8195280566413379,-2.273353232027833,0.28691964250497026,9.485017393017963e-06,0.08427771,0.29907747,9.764942670000002,0.006419,-0.000474,0.002741,0.08492188737294303
1757945899.0946157,-0.140158213747006,0.26202130447918953,2.0494698405828213,-0.44520050737828915,0.8222474673612173,-2.273353232027833,0.28691964250497026,8.886735925786533e-06,0.07529175,0.30491442,9.77826465,0.002192,0.000442,0.003567,0.0834136207821145
1757945899.1147087,-0.14677314962376053,0.27263072271049893,2.053213633359805,-0.449715046218436,0.8245990301693343,-2.273353232027833,0.28691964250497026,8.324602576914859e-06,0.06301944000000001,0.30027429,9.77797035,0.005103,-0.000534,0.0051,0.08288262914510089
1757945899.134773,-0.14910083482002578,0.27537340998008436,2.056713551970482,-0.453826600030003,0.826564991583525,-2.273353232027833,0.28691964250497026,7.810907359203982e-06,0.08248248000000001,0.30985866000000006,9.765246780000002,0.004028,-0.000893,0.003354,0.08078085515576006
1757945899.1552348,-0.15829186998743716,0.29058054087901525,2.060040526653639,-0.45768399088190154,0.8282719388747718,-2.273353232027833,0.28691964250497026,7.318406558184826e-06,0.06242103,0.3008727,9.767787570000001,0.003779,0.001442,0.00469,0.08148557699091082
1757945899.1757822,-0.16080128213182596,0.2936629036913162,2.063161375472177,-0.46120682591690115,0.8296807620560742,-2.273353232027833,0.28691964250497026,6.8673323662946355e-06,0.06735546,0.30625839,9.775272600000001,0.006329,-0.00246,0.003351,0.07952055476488384
1757945899.1959074,-0.16934186664425888,0.30757146971986565,2.0661331637125135,-0.46449464166156995,0.8308582242818213,-2.273353232027833,0.28691964250497026,6.4365523775644186e-06,0.05927202,0.3034233,9.80131815,0.001772,0.000708,0.004296,0.08001573531899726
1757945899.2165716,-0.1713381201622394,0.30975938941974335,2.0689254984816676,-0.46750381999285406,0.8318109720396488,-2.273353232027833,0.28691964250497026,6.042765853719728e-06,0.07110288000000001,0.30506157,9.76464837,0.003339,-0.000402,0.004131,0.0779857497312533
1757945899.2366984,-0.1803985090708223,0.32449708751625966,2.0715956160703026,-0.4703111026453946,0.8325647379249743,-2.273353232027833,0.28691964250497026,5.6649664783258965e-06,0.07139718,0.30311919,9.79353882,0.003894,-0.000899,0.003658,0.07877395017520455
1757945899.2577126,-0.18244663406635708,0.32680544445608656,2.0741110923668096,-0.4728903639790922,0.833153136221405,-2.273353232027833,0.28691964250497026,5.319137269732701e-06,0.07394778,0.30072555,9.79682517,0.001761,-3.8e-05,0.004524,0.07684728293504473
1757945899.277931,-0.19271120121348306,0.34356350713676276,2.076529441993733,-0.47528951486837684,0.8335524355936588,-2.273353232027833,0.28691964250497026,4.984765427670814e-06,0.07903917,0.29503575000000004,9.779314320000001,0.005537,-0.001839,0.005974,0.07809119582690219
1757945899.2982771,-0.1931887690223808,0.34314825712999597,2.0788042929192336,-0.47749910124400885,0.8338458329429083,-2.273353232027833,0.28691964250497026,4.6817297569162384e-06,0.07394778,0.3008727,9.77467419,0.001574,0.001388,0.002713,0.07560712361403765
1757945899.318411,-0.2027313602852919,0.3585578172955441,2.0809933208578615,-0.47954736019293526,0.8339758210736965,-2.273353232027833,0.28691964250497026,4.389759629292594e-06,0.07304526,0.30521853,9.77856876,0.003832,-0.00239,0.005595,0.07670252377694256
1757945899.3394852,-0.20515272186955233,0.36156692519896244,2.08306622373701,-0.48144454853030627,0.8340233755395339,-2.273353232027833,0.28691964250497026,4.121502441625806e-06,0.08471916,0.29952873,9.77632227,0.005111,-0.002542,0.002354,0.07504259378286438
1757945899.3651342,-0.2147221380026162,0.37580470475896344,2.0869461179142164,-0.48482723791783044,0.833803407187823,-2.273353232027833,0.28691964250497026,3.6307920285835595e-06,0.07559586,0.29713509,9.77273181,0.003406,-0.003768,0.004896,0.07369410186565731
1757945899.3865018,-0.2147221380026162,0.37580470475896344,2.0869461179142164,-0.48482723791783044,0.833803407187823,-2.273353232027833,0.28691964250497026,3.6307920285835595e-06,0.07559586,0.29713509,9.77273181,0.003406,-0.003768,0.004896,0.07369410186565731
1757945899.4066265,-0.22618156921398977,0.3932729034074575,2.090497902484584,-0.48772979338364514,0.8332551832275359,-2.273353232027833,0.28691964250497026,3.1983059964249324e-06,0.07424208,0.31689243,9.76120506,0.004385,0.000332,0.005047,0.07321025955173958
1757945899.4327176,-0.23452863537424506,0.4064500675393809,2.092168054524123,-0.48901441819462305,0.8328566124762434,-2.273353232027833,0.28691964250497026,3.0001566821914293e-06,0.06571719000000001,0.29414304,9.79712928,0.003041,-0.001089,0.003882,0.07398253082832873
1757945899.4530632,-0.23452863537424506,0.4064500675393809,2.092168054524123,-0.48901441819462305,0.8328566124762434,-2.273353232027833,0.28691964250497026,3.0001566821914293e-06,0.06571719000000001,0.29414304,9.79712928,0.003041,-0.001089,0.003882,0.07398253082832873
1757945899.4762328,-0.24647022506045188,0.4246516729204627,2.095334248366731,-0.4912322240763604,0.8317249069539377,-2.273353232027833,0.28691964250497026,2.632688799771951e-06,0.07574301000000001,0.29938158000000004,9.77646942,0.005132,-0.001026,0.003378,0.07300696626790512
1757945899.4966962,-0.2467546397157307,0.42414091371918017,2.0967932582291935,-0.49227511698584436,0.8312422447612312,-2.273353232027833,0.28691964250497026,2.4742578492993614e-06,0.07499745000000001,0.31210515000000005,9.774968490000001,0.002309,-0.000691,0.004798,0.0710055007475741
1757945899.517208,-0.2558313902965239,0.4384782829324779,2.0982091915842442,-0.49321727965595813,0.8306547498127358,-2.273353232027833,0.28691964250497026,2.321594450799565e-06,0.07858791000000001,0.29474145,9.75910572,0.004471,-0.000222,0.003616,0.07231969052375281
1757945899.5373552,-0.2570603307992834,0.4395989198463839,2.0995567963144763,-0.4941222366440312,0.8301109669450102,-2.273353232027833,0.28691964250497026,2.181804683426231e-06,0.07364367000000001,0.29099403,9.808499070000002,0.003728,-0.000599,0.00509,0.07066344171300253
1757945899.5574174,-0.2662263802002111,0.4540509202070166,2.1008667652707302,-0.49492970783479884,0.8294607934328138,-2.273353232027833,0.28691964250497026,2.0470193033148852e-06,0.07903917,0.29967588,9.77407578,0.001205,0.001104,0.003875,0.0719551686397823
1757945899.5782568,-0.2672819553393872,0.4549113546518744,2.1021143802709847,-0.49571300202517105,0.8288669102813431,-2.273353232027833,0.28691964250497026,1.923702500026497e-06,0.0606258,0.30101985000000003,9.7695828,0.005555,-0.000583,0.004044,0.07022193250219473
1757945899.5985868,-0.2672819553393872,0.4549113546518744,2.1021143802709847,-0.49571300202517105,0.8288669102813431,-2.273353232027833,0.28691964250497026,1.923702500026497e-06,0.0606258,0.30101985000000003,9.7695828,0.005555,-0.000583,0.004044,0.07022193250219473
1757945899.6257062,-0.2870246869998414,0.4860626993276905,2.104545584294069,-0.49684542609846577,0.8270484314407986,-2.273353232027833,0.28691964250497026,1.683205186655029e-06,0.08397360000000001,0.30565998000000005,9.78634809,0.002548,-0.00187,0.001725,0.0720656688802134
1757945899.6466258,-0.2871441385409203,0.4845590702576842,2.1067405524391125,-0.49802985767518604,0.8256855786702191,-2.273353232027833,0.28691964250497026,1.486003083459216e-06,0.07139718,0.29728224000000003,9.793087560000002,0.001106,0.001031,0.006367,0.06825260088820516
1757945899.6669781,-0.2871441385409203,0.4845590702576842,2.1067405524391125,-0.49802985767518604,0.8256855786702191,-2.273353232027833,0.28691964250497026,1.486003083459216e-06,0.07139718,0.29728224000000003,9.793087560000002,0.001106,0.001031,0.006367,0.06825260088820516
1757945899.6880717,-0.29831542522141785,0.5014380284296841,2.1087923007945735,-0.4990251908110296,0.8242332809102837,-2.273353232027833,0.28691964250497026,1.3099631712505986e-06,0.08801532000000001,0.29907747,9.77632227,0.003101,0.000568,0.003352,0.06854877290138775
1757945899.7146115,-0.3064750284968735,0.5141167905596653,2.1097668555462405,-0.49946180254222855,0.8234862093173971,-2.273353232027833,0.28691964250497026,1.229530980544901e-06,0.07155414,0.30252078000000004,9.78574968,0.001849,0.000587,0.00487,0.06968082471193605
1757945899.7354755,-0.3065215970944132,0.5134268759536957,2.110696154583443,-0.4999152642041551,0.8228364480149062,-2.273353232027833,0.28691964250497026,1.1562012895033556e-06,0.08935929000000001,0.30311919,9.77706783,0.005489,-0.00221,0.004618,0.0678481790542518
1757945899.7555504,-0.3162473424629035,0.528668190553544,2.111606198033452,-0.5002832636500083,0.8220765278518357,-2.273353232027833,0.28691964250497026,1.0850344316621069e-06,0.07708698000000001,0.31299785999999996,9.76209777,0.001972,0.00119,0.004824,0.06956455099924952
1757945899.7757561,-0.31652033951343006,0.5283788950192757,2.1124751016141357,-0.50067084804339,0.821411606049064,-2.273353232027833,0.28691964250497026,1.020063277037151e-06,0.06436341000000001,0.30117681,9.78335604,0.004607,-0.00082,0.005071,0.06776463523789306
1757945899.7959075,-0.32562637187726123,0.5425822829073357,2.1133252808141343,-0.500979576309579,0.820646827113282,-2.273353232027833,0.28691964250497026,9.572685919135966e-07,0.08846658,0.29503575000000004,9.77646942,0.002152,-0.000991,0.003606,0.06923033400989437
1757945899.8169465,-0.32730363583748046,0.5446166956776917,2.1141406233313482,-0.5012965915504403,0.8199487256321737,-2.273353232027833,0.28691964250497026,8.99438206305434e-07,0.0751446,0.30311919,9.76060665,0.002559,0.000589,0.004975,0.06791266772904764
1757945899.8376608,-0.33547689166985534,0.5572764927622067,2.1149368466669927,-0.5015452870772139,0.8191687536923135,-2.273353232027833,0.28691964250497026,8.439238812569372e-07,0.07619427,0.30357045,9.783208890000001,0.003872,-0.001336,0.003227,0.06898836291961788
1757945899.8576417,-0.33606057883094426,0.5575455353545348,2.1156986713059807,-0.5018189817191984,0.8184819019785096,-2.273353232027833,0.28691964250497026,7.931320679949165e-07,0.08038314,0.30686661000000004,9.76419711,0.000985,0.000891,0.003519,0.06732356698999326
1757945899.8783004,-0.34469576421384246,0.5709482126044966,2.1164442052653705,-0.5020205880922931,0.817703192084467,-2.273353232027833,0.28691964250497026,7.441951737877487e-07,0.06466752,0.2951829,9.77407578,0.003559,-0.001233,0.003736,0.06863784983234522
1757945899.8991044,-0.3451795077749806,0.5710778329381524,2.117157774705001,-0.5022514676913127,0.8170206334856445,-2.273353232027833,0.28691964250497026,6.994304705503536e-07,0.08921214,0.2894931,9.7724277,0.003976,-0.000648,0.003869,0.0669751504495557
1757945899.9201367,-0.3559190161510415,0.5878870524344161,2.1178605084000655,-0.5023822125258469,0.8161926632439158,-2.273353232027833,0.28691964250497026,6.557567249410023e-07,0.07349652000000001,0.31134978,9.771829290000001,0.005666,-0.000999,0.005009,0.06900162391773429
1757945899.9405046,-0.3551612710432659,0.5860200605697199,2.1185310186394144,-0.5025638501525773,0.8154959248611661,-2.273353232027833,0.28691964250497026,6.161511574904834e-07,0.07349652000000001,0.31134978,9.771829290000001,0.005666,-0.000999,0.005009,0.06681834313454421
1757945899.9647038,-0.36342647183191584,0.5981883506637826,2.1198137574031772,-0.5028504000085128,0.8140681652739862,-2.273353232027833,0.28691964250497026,5.435122879387928e-07,0.05972328,0.30192237,9.7493742,0.004657,-0.001019,0.004947,0.06636971817620324
1757945899.9853256,-0.36342647183191584,0.5981883506637826,2.1198137574031772,-0.5028504000085128,0.8140681652739862,-2.273353232027833,0.28691964250497026,5.435122879387928e-07,0.05972328,0.30192237,9.7493742,0.004657,-0.001019,0.004947,0.06636971817620324
1757945900.0055172,-0.3725711667636417,0.612382764793184,2.120430555967129,-0.5029308385416217,0.8132908070507935,-2.273353232027833,0.28691964250497026,5.098675590351326e-07,0.07364367000000001,0.29922462000000005,9.76269618,0.002941,0.001438,0.004541,0.06794594962124795
1757945900.0257545,-0.3789337383373437,0.6220688376834961,2.1210312442261863,-0.5029688356279498,0.8124693044436052,-2.273353232027833,0.28691964250497026,4.780005455433356e-07,0.07873506000000001,0.29847906,9.787996170000001,0.001608,0.001151,0.003011,0.06824283012967103
1757945900.0461814,-0.3820979810439541,0.6260211169510619,2.1221657720981906,-0.5031105667213955,0.8110336481631835,-2.273353232027833,0.28691964250497026,4.214713542167102e-07,0.06751242,0.30161826,9.76254903,0.002088,0.002457,0.004304,0.06582560030999761
1757945900.0673106,-0.3820979810439541,0.6260211169510619,2.1221657720981906,-0.5031105667213955,0.8110336481631835,-2.273353232027833,0.28691964250497026,4.214713542167102e-07,0.0754389,0.28934595,9.783954450000001,0.003534,-0.001279,0.004401,0.06582560030999761
1757945900.0879245,-0.390124087644802,0.6378437683357946,2.12323194453045,-0.5032167291356301,0.8096460489350267,-2.273353232027833,0.28691964250497026,3.717091205890233e-07,0.07978473,0.3005784,9.79203789,0.003826,-0.000832,0.004304,0.06548236635938984
1757945900.1137154,-0.39902184917520583,0.6516122442989997,2.123744646199187,-0.5032228280278103,0.8089083797250227,-2.273353232027833,0.28691964250497026,3.4873955658901593e-07,0.07380063,0.30625839,9.79847325,0.001567,0.001115,0.003026,0.06710319101916923
1757945900.134074,-0.39875645582832764,0.6506557175056111,2.124235730253865,-0.5032790222235863,0.8082834482731317,-2.273353232027833,0.28691964250497026,3.2778134635366087e-07,0.07679268,0.31030011,9.77721498,0.006234,8.7e-05,0.00627,0.06535866049964117
1757945900.154231,-0.40795772912211903,0.664904038414916,2.124719087085973,-0.503258634943572,0.8075480793013533,-2.273353232027833,0.28691964250497026,3.074707332410326e-07,0.07334937000000001,0.30192237,9.78515127,0.002253,-0.000569,0.003787,0.06707589349002885
1757945900.1750686,-0.40729045538173997,0.6633213753591385,2.1251816893075084,-0.5032948298459194,0.8069342538284678,-2.273353232027833,0.28691964250497026,2.88983699185259e-07,0.07065162,0.30177522,9.77946147,0.003778,-4.5e-05,0.005018,0.06518310620742004
1757945900.1959782,-0.41576164303686575,0.6763931393692203,2.125636313709377,-0.503264539802499,0.806226673500913,-2.273353232027833,0.28691964250497026,2.711391135168474e-07,0.07873506000000001,0.28500993,9.787692060000001,0.003941,0.000721,0.003235,0.06668374247213155
1757945900.2164457,-0.41605872653539466,0.6763737724007958,2.12607279019036,-0.5032781165974265,0.8056162714940853,-2.273353232027833,0.28691964250497026,2.547899190258732e-07,0.0811287,0.31285071000000003,9.79758054,0.000387,-0.000352,0.005058,0.06517387871891833
1757945900.2369761,-0.4251958078472534,0.6905052340843237,2.126502677112245,-0.503213580908994,0.8048914669325494,-2.273353232027833,0.28691964250497026,2.389516125445032e-07,0.06167547,0.30402171,9.78485697,0.004178,-0.002678,0.002194,0.06687007213675958
1757945900.2579277,-0.42455583077639203,0.689002487784922,2.126914389171672,-0.5032076214528268,0.8042871105707067,-2.273353232027833,0.28691964250497026,2.2452950969079082e-07,0.08337519,0.31344912,9.77377167,0.0035,0.001085,0.004105,0.06499870679874054
1757945900.2845354,-0.4325654882682796,0.7008643813225769,2.127707791646662,-0.5031102220485758,0.8029877172903876,-2.273353232027833,0.28691964250497026,1.9788844081396244e-07,0.06541308000000001,0.30641535000000003,9.77646942,0.003627,-0.00201,0.002849,0.06474066619659102
1757945900.305079,-0.4325654882682796,0.7008643813225769,2.127707791646662,-0.5031102220485758,0.8029877172903876,-2.273353232027833,0.28691964250497026,1.9788844081396244e-07,0.06541308000000001,0.30641535000000003,9.77646942,0.003627,-0.00201,0.002849,0.06474066619659102
1757945900.3254206,-0.4405647885351946,0.7127226618558176,2.1284562263690825,-0.5029886306525133,0.8017176124619537,-2.273353232027833,0.28691964250497026,1.7441900579302278e-07,0.08038314,0.30506157,9.76704201,0.003683,-0.000747,0.005156,0.06455700322535933
1757945900.3457923,-0.4405647885351946,0.7127226618558176,2.1284562263690825,-0.5029886306525133,0.8017176124619537,-2.273353232027833,0.28691964250497026,1.7441900579302278e-07,0.08038314,0.30506157,9.76704201,0.003683,-0.000747,0.005156,0.06455700322535933
1757945900.366675,-0.44868380619211684,0.7247837663060059,2.1291632660722355,-0.502834318282962,0.8004577216952763,-2.273353232027833,0.28691964250497026,1.5369833495115558e-07,0.06256818,0.3005784,9.75805605,0.002314,0.000281,0.006073,0.06443001182345459
1757945900.39334,-0.45699894528487983,0.7375885579196476,2.1295035930215747,-0.5027248667693248,0.7997965277918182,-2.273353232027833,0.28691964250497026,1.4417583366923854e-07,0.07454619,0.29324052,9.77946147,0.005834,-0.002221,0.00502,0.06598909790016283
1757945900.413753,-0.456852342491403,0.7369352692875972,2.1298304177080354,-0.5026677775976454,0.79923837605921,-2.273353232027833,0.28691964250497026,1.354633366148289e-07,0.08562168,0.29742939,9.78036399,0.000989,0.000316,0.003381,0.06443176400893003
1757945900.4345713,-0.46495919191117746,0.7494067816279457,2.1301520114652828,-0.5025461469086829,0.7985859784777727,-2.273353232027833,0.28691964250497026,1.2706184967283132e-07,0.06706116000000001,0.30431601,9.767934720000001,0.003301,-0.001781,0.003769,0.06591208218587136
1757945900.4549346,-0.46421013317354476,0.7478102074411039,2.1304603932660715,-0.5024850923054999,0.7980490550620659,-2.273353232027833,0.28691964250497026,1.194009812975663e-07,0.07708698000000001,0.3094074,9.78215922,0.002742,0.00065,0.003139,0.0641660085689959
1757945900.4750557,-0.4728526787433585,0.761131106691145,2.130764436696544,-0.5023514993049003,0.7974040037404917,-2.273353232027833,0.28691964250497026,1.1198497845432415e-07,0.06975891000000001,0.29893032,9.76688505,0.002256,0.001018,0.002916,0.06587309876701647
1757945900.4961267,-0.47182399888111287,0.7591048012880323,2.1310558216403486,-0.5022824553482615,0.7968797323505485,-2.273353232027833,0.28691964250497026,1.0523302782393934e-07,0.06047865000000001,0.29383893,9.7812567,0.003074,-0.000477,0.003117,0.06403675699567236
1757945900.5169845,-0.48006125215848555,0.7717813249319041,2.1313428816104008,-0.5021466007342028,0.7962564757414882,-2.273353232027833,0.28691964250497026,9.870989057315273e-08,0.06287229,0.30402171,9.768238830000001,0.000715,-0.001343,0.003588,0.06563711069224623
1757945900.5379186,-0.4795184999000882,0.7705393642522727,2.1316184610113984,-0.5020680130000859,0.7957406296360329,-2.273353232027833,0.28691964250497026,9.275004592102515e-08,0.07244685000000001,0.29907747,9.75895857,0.003553,-0.001336,0.003724,0.06400683953250028
1757945900.5641963,-0.4869330473427329,0.7815431850060415,2.1321474926401933,-0.5019008873520254,0.7947266907053548,-2.273353232027833,0.28691964250497026,8.186018986760417e-08,0.07349652000000001,0.31000581,9.76269618,0.002103,-0.000653,0.004774,0.06419754322734467
1757945900.5845578,-0.4869330473427329,0.7815431850060415,2.1321474926401933,-0.5019008873520254,0.7947266907053548,-2.273353232027833,0.28691964250497026,8.186018986760417e-08,0.07349652000000001,0.31000581,9.76269618,0.002103,-0.000653,0.004774,0.06419754322734467
1757945900.6054995,-0.49479680398814013,0.7932683105179701,2.132651643740365,-0.501639872666223,0.793600865610416,-2.273353232027833,0.28691964250497026,7.21008811845635e-08,0.05194395,0.29593827,9.768533130000002,0.000562,-0.002189,0.002716,0.06410671480382854
1757945900.6260757,-0.49479680398814013,0.7932683105179701,2.132651643740365,-0.501639872666223,0.793600865610416,-2.273353232027833,0.28691964250497026,7.21008811845635e-08,0.05194395,0.29593827,9.768533130000002,0.000562,-0.002189,0.002716,0.06410671480382854
1757945900.64629,-0.5018393055854821,0.8037056010169379,2.1331284961167007,-0.5013602269533144,0.7924856279687303,-2.273353232027833,0.28691964250497026,6.35079923612927e-08,0.06990606,0.29189655000000003,9.78005988,0.003697,-0.00123,0.002628,0.0638301273245063
1757945900.6667094,-0.5018393055854821,0.8037056010169379,2.1331284961167007,-0.5013602269533144,0.7924856279687303,-2.273353232027833,0.28691964250497026,6.35079923612927e-08,0.06990606,0.29189655000000003,9.78005988,0.003697,-0.00123,0.002628,0.0638301273245063
1757945900.687294,-0.5088744226372867,0.8141432410941486,2.133579966650302,-0.5010589095719533,0.7913735969306442,-2.273353232027833,0.28691964250497026,5.593025806234603e-08,0.07110288000000001,0.30581694000000004,9.774968490000001,0.003726,-0.001052,0.002684,0.06361037160638813
1757945900.7074194,-0.5088744226372867,0.8141432410941486,2.133579966650302,-0.5010589095719533,0.7913735969306442,-2.273353232027833,0.28691964250497026,5.593025806234603e-08,0.06720831000000001,0.30147111000000004,9.77692068,0.001661,0.000307,0.002329,0.06361037160638813
1757945900.7282872,-0.5152372848428914,0.8235321268678851,2.1340060607469624,-0.5007786383991233,0.7903323565979627,-2.273353232027833,0.28691964250497026,4.9291188140209465e-08,0.07858791000000001,0.30625839,9.77317326,0.001267,-0.003011,0.005827,0.06334665171934528
1757945900.7512608,-0.5222880714336169,0.8343356276428487,2.1342111995155495,-0.5006226612163398,0.7897986799044084,-2.273353232027833,0.28691964250497026,4.625002863848051e-08,0.07095573000000001,0.3034233,9.77452704,0.004149,-0.003098,0.003048,0.06471824771440561
1757945900.7715504,-0.5221313640937129,0.8337720448564018,2.134408662918653,-0.5005161583166411,0.7893540421345361,-2.273353232027833,0.28691964250497026,4.345763484505398e-08,0.07079877000000001,0.2977335,9.759556980000001,0.000485,0.001511,0.003985,0.06341162925283225
1757945900.7969568,-0.5319070673242465,0.8488726030026766,2.134604500710684,-0.5003114813607263,0.788757329316158,-2.273353232027833,0.28691964250497026,4.0729965135401486e-08,0.0751446,0.28769787,9.783503190000001,0.00565,-0.001512,0.004541,0.06564428014431575
1757945900.818025,-0.5299354079590833,0.8454565525210189,2.134791955635219,-0.5001855574194385,0.7882965463079945,-2.273353232027833,0.28691964250497026,3.825737827879838e-08,0.07888221,0.2951829,9.77632227,0.001066,-0.000522,0.000969,0.0635403255638864
1757945900.838199,-0.5366964527915736,0.8558064622514401,2.1349762630208273,-0.5000093420942918,0.7877614705362566,-2.273353232027833,0.28691964250497026,3.5885234379984554e-08,0.07035732,0.30985866000000006,9.76209777,0.003581,-0.000631,0.004182,0.0647841129111566
1757945900.858507,-0.5357007965126649,0.8539399636585814,2.135153285402751,-0.49989471660068535,0.7873337977502075,-2.273353232027833,0.28691964250497026,3.371804559358945e-08,0.07035732,0.30985866000000006,9.76209777,0.003581,-0.000631,0.004182,0.06319939338877889
1757945900.8788538,-0.5357007965126649,0.8539399636585814,2.135153285402751,-0.49989471660068535,0.7873337977502075,-2.273353232027833,0.28691964250497026,3.371804559358945e-08,0.07035732,0.30985866000000006,9.76209777,0.003581,-0.000631,0.004182,0.06319939338877889
1757945900.9061296,-0.552295861532547,0.8794776891509556,2.1355059684193254,-0.49921359039163965,0.7857682583174859,-2.273353232027833,0.28691964250497026,2.9483396199487562e-08,0.07589016,0.28785483,9.76464837,0.00348,-0.001895,0.004513,0.0655970533255368
1757945900.926454,-0.5478452292778735,0.871905650797782,2.1358284949912054,-0.49892073238240364,0.7848576848070218,-2.273353232027833,0.28691964250497026,2.6025065593083894e-08,0.07035732,0.29159244,9.76464837,0.00458,0.00045,0.00346,0.06187476452541557
1757945900.9524903,-0.5550267842539222,0.8829247211519885,2.135984057185067,-0.49877562713167284,0.7844139186804581,-2.273353232027833,0.28691964250497026,2.4433415164096247e-08,0.07978473,0.29593827,9.77482134,0.004982,-0.00141,0.003242,0.06369381733245986
1757945900.9729676,-0.5552239699276134,0.8829625038420493,2.136134150419881,-0.4986747257656347,0.7840475230893291,-2.273353232027833,0.28691964250497026,2.296422946455975e-08,0.07858791000000001,0.30431601,9.74698056,0.000906,0.001142,0.003995,0.06277359946921728
1757945900.9941802,-0.5619914992967341,0.8933323126664691,2.1362819415777885,-0.4985269536555745,0.7836111005985656,-2.273353232027833,0.28691964250497026,2.1549976966263317e-08,0.07139718,0.30416886,9.768533130000002,0.005394,8.6e-05,0.004062,0.06421767875472774
1757945901.0146508,-0.5606082757789793,0.8908942490603846,2.1364238611910125,-0.49844062217047796,0.7832793841846162,-2.273353232027833,0.28691964250497026,2.0257851138582383e-08,0.06287229,0.30716091,9.75326877,0.002722,-0.000899,0.004222,0.06264382679274345
1757945901.038013,-0.5698104338288139,0.9050915213252969,2.13656467654776,-0.4982661636888331,0.7828110822351243,-2.273353232027833,0.28691964250497026,1.8995229278447354e-08,0.08337519,0.31569561,9.763294590000001,0.001668,-0.000346,0.004709,0.0649058820902998
1757945901.0588,-0.5675199005063584,0.9012363409712791,2.136699508827017,-0.4981663091478144,0.7824681482040332,-2.273353232027833,0.28691964250497026,1.78494611254325e-08,0.06780672,0.30297204000000005,9.772133400000001,0.004221,-0.000446,0.004455,0.06288294236075403
1757945901.0837433,-0.5719025792853208,0.9076180239833546,2.1369593342809328,-0.49794089240284023,0.7817562542242934,-2.273353232027833,0.28691964250497026,1.57476819640564e-08,0.08128566000000001,0.31344912,9.76090095,0.004479,-0.00111,0.003627,0.062429771949323073
1757945901.1041155,-0.5719025792853208,0.9076180239833546,2.1369593342809328,-0.49794089240284023,0.7817562542242934,-2.273353232027833,0.28691964250497026,1.57476819640564e-08,0.08128566000000001,0.31344912,9.76090095,0.004479,-0.00111,0.003627,0.062429771949323073
1757945901.1242254,-0.5779495328986581,0.9166238881719987,2.137205889816487,-0.49770393490390197,0.7810453075128382,-2.273353232027833,0.28691964250497026,1.3887562462620586e-08,0.07244685000000001,0.3005784,9.77706783,0.001187,0.000795,0.003397,0.06256936762925208
1757945901.1447494,-0.5779495328986581,0.9166238881719987,2.137205889816487,-0.49770393490390197,0.7810453075128382,-2.273353232027833,0.28691964250497026,1.3887562462620586e-08,0.07244685000000001,0.3005784,9.77706783,0.001187,0.000795,0.003397,0.06256936762925208
1757945901.1654093,-0.5832807498994212,0.924517059017861,2.137439401802478,-0.49746931068195216,0.7803565424334459,-2.273353232027833,0.28691964250497026,1.2248796023765675e-08,0.08128566000000001,0.28934595,9.78036399,0.001235,0.001549,0.004506,0.06247272911077069
1757945901.186116,-0.5832807498994212,0.924517059017861,2.137439401802478,-0.49746931068195216,0.7803565424334459,-2.273353232027833,0.28691964250497026,1.2248796023765675e-08,0.08128566000000001,0.28934595,9.78036399,0.001235,0.001549,0.004506,0.06247272911077069
1757945901.2067635,-0.5890669894991565,0.9331341383165884,2.1376610162182335,-0.4972166770256984,0.7796563948035665,-2.273353232027833,0.28691964250497026,1.0799675768325064e-08,0.08128566000000001,0.31524435,9.743988510000001,0.004338,-0.000332,0.004456,0.06252335038326345
1757945901.233302,-0.5966525710882014,0.9448024958042712,2.137768272683772,-0.49705262778702275,0.7792522971993688,-2.273353232027833,0.28691964250497026,1.01306588318157e-08,0.08007903000000001,0.30192237,9.75401433,0.002788,0.002357,0.002559,0.06430748802584685
1757945901.2533453,-0.5956915021002671,0.9430746483415628,2.137871494506798,-0.4969396856214587,0.7789338393089443,-2.273353232027833,0.28691964250497026,9.517359165104912e-09,0.07603731000000001,0.29249496,9.775723860000001,0.004231,-0.001511,0.003577,0.0628742920346976
1757945901.2755928,-0.6032007931888587,0.9546250899023014,2.1379735315313724,-0.4967513785801605,0.7784990547449084,-2.273353232027833,0.28691964250497026,8.923974769066131e-09,0.07753824,0.31150674,9.77347737,0.001701,0.000862,0.003383,0.06456421544525714
1757945901.2964094,-0.6005282209202104,0.9502221904386254,2.1380712099714714,-0.49664049182118714,0.7781915594846028,-2.273353232027833,0.28691964250497026,8.38588895574485e-09,0.07603731000000001,0.30462012,9.768533130000002,0.003093,-0.000644,0.004267,0.06251985282015839
1757945901.3173661,-0.6079927106061069,0.9617049301431758,2.1381677953895304,-0.49645865536934936,0.7777746895318881,-2.273353232027833,0.28691964250497026,7.864846170169667e-09,0.06795387,0.29833191000000003,9.7954812,-5.7e-05,-0.000492,0.004289,0.06429337705952658
1757945901.3380146,-0.6054392273098478,0.9574963830727378,2.1382603098843305,-0.4963516558761007,0.7774806393117673,-2.273353232027833,0.28691964250497026,7.391670011402622e-09,0.06795387,0.29833191000000003,9.7954812,-5.7e-05,-0.000492,0.004289,0.062355566684754254
1757945901.3635385,-0.6105695676180465,0.9651238427442168,2.138439537949245,-0.49606927964161385,0.776793942881736,-2.273353232027833,0.28691964250497026,6.516097996820684e-09,0.0779895,0.30012714,9.78335604,0.00288,0.000662,0.003813,0.06234172764320328
1757945901.3844585,-0.6105695676180465,0.9651238427442168,2.138439537949245,-0.49606927964161385,0.776793942881736,-2.273353232027833,0.28691964250497026,6.516097996820684e-09,0.0779895,0.30012714,9.78335604,0.00288,0.000662,0.003813,0.06234172764320328
1757945901.4049542,-0.616328360747412,0.973744248831497,2.1386096906889307,-0.4957786486459418,0.7761072226005679,-2.273353232027833,0.28691964250497026,5.742644041912725e-09,0.08951625,0.30641535000000003,9.77856876,0.004375,-0.001667,0.003137,0.06255902616743511
1757945901.425498,-0.616328360747412,0.973744248831497,2.1386096906889307,-0.4957786486459418,0.7761072226005679,-2.273353232027833,0.28691964250497026,5.742644041912725e-09,0.08951625,0.30641535000000003,9.77856876,0.004375,-0.001667,0.003137,0.06255902616743511
1757945901.4457176,-0.6211812608418167,0.9809552581921751,2.1387712047379432,-0.4954754690950103,0.7754129739212181,-2.273353232027833,0.28691964250497026,5.060035426359121e-09,0.06706116000000001,0.29907747,9.77661657,0.002952,-0.002367,0.003333,0.06240704725019358
1757945901.4661014,-0.6211812608418167,0.9809552581921751,2.1387712047379432,-0.4954754690950103,0.7754129739212181,-2.273353232027833,0.28691964250497026,5.060035426359121e-09,0.06706116000000001,0.29907747,9.77661657,0.002952,-0.002367,0.003333,0.06240704725019358
1757945901.4875505,-0.6274741469479125,0.9904276756932403,2.1389251281297597,-0.49511809789468014,0.7746445219125001,-2.273353232027833,0.28691964250497026,4.4534852496719834e-09,0.07424208,0.30237363,9.75910572,0.004997,-0.002193,0.004449,0.06267521305247398
1757945901.5132313,-0.6326929346362319,0.9984086048145677,2.1389991007930442,-0.4949422400680523,0.774269041188944,-2.273353232027833,0.28691964250497026,4.1779933632776135e-09,0.05837931,0.30177522,9.76584519,0.002492,-0.001239,0.002736,0.06373283280260578
1757945901.5334442,-0.6304190923068372,0.9946715503795925,2.1390700698576453,-0.4948359014492242,0.774006462413422,-2.273353232027833,0.28691964250497026,3.926883193997087e-09,0.08188407,0.30565998000000005,9.73006812,0.001501,0.00096,0.003359,0.06205870561377327
1757945901.5546205,-0.6374408785750693,1.0054758960218522,2.1391402606997403,-0.4946662120246214,0.7736461205103714,-2.273353232027833,0.28691964250497026,3.683762901243776e-09,0.0782838,0.29623257000000003,9.7607538,0.00549,-0.001154,0.004041,0.06384891217461619
1757945901.575501,-0.6352302103861339,1.0018436363697507,2.139207620537034,-0.4945632803656291,0.77339401593771,-2.273353232027833,0.28691964250497026,3.462045764372355e-09,0.07693983,0.3065625,9.768238830000001,0.003529,-0.001046,0.002945,0.062167530226179206
1757945901.5960639,-0.6429053064395966,1.0136718489786845,2.1392743899484916,-0.49438259248650723,0.7730212861396716,-2.273353232027833,0.28691964250497026,3.2465593416045293e-09,0.07933347,0.30266793,9.747431820000001,0.004476,0.000655,0.004782,0.06414937338111965
1757945901.6164298,-0.6402883149838856,1.0094099189212895,2.139338380791374,-0.4942744776976305,0.7727657559022354,-2.273353232027833,0.28691964250497026,3.050617681770706e-09,0.08128566000000001,0.29907747,9.764795520000002,0.004457,-0.001341,0.003369,0.06227335188864196
1757945901.6368778,-0.6463393654244419,1.0187016384585033,2.1394014947119757,-0.49411352111093837,0.7724289893252224,-2.273353232027833,0.28691964250497026,2.8620331294168955e-09,0.07289811,0.29847906,9.76284333,0.000843,0.000887,0.003743,0.06370847462074916
1757945901.6577482,-0.6449304594091704,1.0163339845375376,2.1394622351261923,-0.49400631180898535,0.7721794601686931,-2.273353232027833,0.28691964250497026,2.6890892030029258e-09,0.06601149,0.30611124,9.76419711,0.004339,-0.001839,0.00513,0.062341656314885335
1757945901.6788452,-0.6526575397209037,1.028247719929246,2.139522471428487,-0.4938150946614075,0.7717993919403224,-2.273353232027833,0.28691964250497026,2.520989165789655e-09,0.06960195,0.30506157,9.751169430000001,0.002676,0.000818,0.004584,0.06431900161988098
1757945901.6991491,-0.6495893317369299,1.0232917880698469,2.1395801217216643,-0.4937031058502235,0.7715466117833601,-2.273353232027833,0.28691964250497026,2.3685619331428496e-09,0.06960195,0.30506157,9.751169430000001,0.002676,0.000818,0.004584,0.06227475909157364
1757945901.7229795,-0.6528152771941352,1.0280188103567982,2.139691323299755,-0.49346213790440424,0.771020480064682,-2.273353232027833,0.28691964250497026,2.089150869392709e-09,0.07289811,0.29788065,9.759252870000001,0.001995,-0.000136,0.003643,0.06198639885753117
1757945901.743429,-0.6528152771941352,1.0280188103567982,2.139691323299755,-0.49346213790440424,0.771020480064682,-2.273353232027833,0.28691964250497026,2.089150869392709e-09,0.07289811,0.29788065,9.759252870000001,0.001995,-0.000136,0.003643,0.06198639885753117
1757945901.7660246,-0.6586052349466394,1.036758979930235,2.1397976036984723,-0.49315141410419616,0.7703921328384029,-2.273353232027833,0.28691964250497026,1.8394276806324374e-09,0.07873506000000001,0.29818476,9.763294590000001,0.002114,0.000624,0.003575,0.06236824916525018
1757945901.7932067,-0.6641674256496719,1.0452977458166488,2.1398488102909345,-0.49298688707772753,0.7700663816544105,-2.273353232027833,0.28691964250497026,1.7254700050469451e-09,0.06975891000000001,0.30790647,9.78021684,0.002078,0.000879,0.004171,0.06366580623287936
1757945901.8137822,-0.662232085270334,1.0421274646502592,2.1398980240007663,-0.49288252345669603,0.7698373137690447,-2.273353232027833,0.28691964250497026,1.621220616334668e-09,0.07679268,0.30446316,9.763451550000001,0.003813,0.000752,0.004087,0.06217345507672625
1757945901.8342566,-0.6682821136827473,1.0514309511334894,2.1399466116252537,-0.49272169100112245,0.7695210323700242,-2.273353232027833,0.28691964250497026,1.5207681040010767e-09,0.07020036,0.31045707000000006,9.76044969,0.001205,0.000813,0.003415,0.06368240911822236
1757945901.8547542,-0.6659129370992758,1.047587905278564,2.139993245293814,-0.4926260323944437,0.7693091607719902,-2.273353232027833,0.28691964250497026,1.4290951179381751e-09,0.08172711,0.30955455000000004,9.78290478,0.002975,-0.000423,0.003388,0.062044892343871116
1757945901.8749263,-0.6731755983963528,1.0587874770427677,2.140039480309044,-0.49245338331260224,0.7689776986134068,-2.273353232027833,0.28691964250497026,1.3400679435255278e-09,0.07065162,0.29982303,9.74803023,0.003478,2.3e-05,0.004222,0.06399004424857005
1757945901.8949955,-0.6699168916333714,1.0535600527521312,2.1400837225480416,-0.49235868011045036,0.7687705957229275,-2.273353232027833,0.28691964250497026,1.2592996238726238e-09,0.08756406,0.31943322,9.7897914,0.002602,0.001593,0.003563,0.061993843827882394
1757945901.9149826,-0.6767306940445723,1.0640611225193655,2.14012753257985,-0.49219455117153715,0.7684558022352781,-2.273353232027833,0.28691964250497026,1.1810461241203023e-09,0.07454619,0.29697813,9.7812567,0.003833,-0.001557,0.003634,0.06381489889206156
1757945901.9351566,-0.6756041543107367,1.0621669229616608,2.140169756357974,-0.4920766824002055,0.7682153417640509,-2.273353232027833,0.28691964250497026,1.1090881477391847e-09,0.0663156,0.31479309,9.7695828,0.003246,-0.000856,0.005157,0.06258384470368747
1757945901.956153,-0.680399852332933,1.0695197555607345,2.1402112824905153,-0.49191626340380795,0.7679094607832113,-2.273353232027833,0.28691964250497026,1.040313687255769e-09,0.0754389,0.30237363,9.787093650000001,0.00374,-0.000497,0.003825,0.06361536964538367
1757945901.9763203,-0.6774539327833711,1.0647899203178326,2.1402510695524812,-0.49182819556826346,0.7677188686931394,-2.273353232027833,0.28691964250497026,9.77731598103895e-10,0.07918631999999999,0.29922462000000005,9.76374585,0.003777,-0.001653,0.004964,0.06182955366380514
1757945901.9967053,-0.6836117581547407,1.0742718383093628,2.140290402226139,-0.4916825058046294,0.7674390941486504,-2.273353232027833,0.28691964250497026,9.172793740297348e-10,0.07858791000000001,0.31165389,9.75671208,0.002503,6.8e-05,0.004985,0.06349192648278912
1757945902.016931,-0.6815365062709453,1.0709052493831452,2.1403282023177557,-0.4915949763591656,0.767252138711349,-2.273353232027833,0.28691964250497026,8.61943901049942e-10,0.07304526,0.29697813,9.76898439,0.004586,-0.003595,0.00292,0.062026827547250425
1757945902.0377183,-0.6886880064990419,1.0819401487938685,2.140365695625732,-0.4914282406646664,0.7669420238119687,-2.273353232027833,0.28691964250497026,8.081936488803698e-10,0.08098155,0.30402171,9.75910572,0.000248,-0.000597,0.00405,0.0639758868501619
1757945902.0585506,-0.6854405975402733,1.0767482181372579,2.14040157998049,-0.49133711687891474,0.7667520297289336,-2.273353232027833,0.28691964250497026,7.593884573602042e-10,0.06975891000000001,0.30311919,9.756564930000001,0.003088,-0.000458,0.002555,0.0620199065291318
1757945902.078606,-0.692808704936667,1.0881232064806756,2.140437204637271,-0.49116226113835104,0.7664317821938654,-2.273353232027833,0.28691964250497026,7.119183199900722e-10,0.08067744,0.31554846000000003,9.759409830000001,0.003356,-0.000784,0.004655,0.06405893891792896
1757945902.0995858,-0.6894527857039031,1.0827659907116702,2.140471287127638,-0.4910654172722717,0.7662353086957577,-2.273353232027833,0.28691964250497026,6.688475979856797e-10,0.053140770000000004,0.30521853,9.76568823,0.000623,0.000717,0.003266,0.062062641003783114
1757945902.1235003,-0.6919289942159466,1.0863937448574685,2.140537035075706,-0.4908569454915345,0.7658228186538107,-2.273353232027833,0.28691964250497026,5.898994532484753e-10,0.06870924,0.28979721,9.76284333,0.001753,-0.000373,0.003571,0.06180878136365637
1757945902.1438715,-0.6919289942159466,1.0863937448574685,2.140537035075706,-0.4908569454915345,0.7658228186538107,-2.273353232027833,0.28691964250497026,5.898994532484753e-10,0.06870924,0.28979721,9.76284333,0.001753,-0.000373,0.003571,0.06180878136365637
1757945902.1641643,-0.6919289942159466,1.0863937448574685,2.140537035075706,-0.4908569454915345,0.7658228186538107,-2.273353232027833,0.28691964250497026,5.898994532484753e-10,0.06870924,0.28979721,9.76284333,0.001753,-0.000373,0.003571,0.06180878136365637
1757945902.1874762,-0.7147630238570467,1.121899507317684,2.1405706995865685,-0.4903412375952055,0.7649726365961221,-2.273353232027833,0.28691964250497026,5.497973116820916e-10,0.07439904,0.28709946000000003,9.76164651,0.002018,-0.000674,0.004241,0.06891160330043905
1757945902.2147744,-0.7032556808048979,1.103606343733288,2.1406626329524503,-0.4895472534352852,0.7636105001455644,-2.273353232027833,0.28691964250497026,4.52369153481055e-10,0.08007903000000001,0.30536568000000003,9.7610481,0.004717,-0.001439,0.004717,0.06152567615773945
1757945902.235131,-0.703646752136298,1.1041068497845328,2.1406910069280443,-0.4894344099144763,0.7633970706490278,-2.273353232027833,0.28691964250497026,4.250618034499766e-10,0.06421626,0.30072555,9.77108373,0.002634,0.000827,0.003796,0.06148913357992822
1757945902.2560673,-0.7016411174036606,1.1008712256131692,2.1407183083540557,-0.4893883217099197,0.7632894043065596,-2.273353232027833,0.28691964250497026,3.999251219427312e-10,0.06795387,0.31045707000000006,9.764942670000002,0.002186,0.000358,0.003887,0.06060284319012935
1757945902.277048,-0.7093308514940283,1.1127579741230433,2.1407454927971354,-0.4892845366687861,0.7630921892280018,-2.273353232027833,0.28691964250497026,3.752872675999225e-10,0.07484049000000001,0.30581694000000004,9.76898439,0.005339,-0.003142,0.003341,0.06316853684121215
1757945902.2981083,-0.7057855219347176,1.107124211566289,2.1407714928406607,-0.48925489027569913,0.7630120420010246,-2.273353232027833,0.28691964250497026,3.5288406844450925e-10,0.07364367000000001,0.28965006000000004,9.78261048,0.001861,0.001043,0.005507,0.06136039338930405
1757945902.3230202,-0.7073098782746546,1.1092970383990377,2.1408216606338346,-0.4891963453966884,0.7628554189656398,-2.273353232027833,0.28691964250497026,3.116877328747579e-10,0.07244685000000001,0.31658832000000003,9.755662410000001,0.001913,0.001093,0.002862,0.06112560642598862
1757945902.3435488,-0.7073098782746546,1.1092970383990377,2.1408216606338346,-0.4891963453966884,0.7628554189656398,-2.273353232027833,0.28691964250497026,3.116877328747579e-10,0.07244685000000001,0.31658832000000003,9.755662410000001,0.001913,0.001093,0.002862,0.06112560642598862
1757945902.3640728,-0.7105107143638667,1.1140896804952638,2.1408693329248116,-0.4891374064779068,0.7627013652253751,-2.273353232027833,0.28691964250497026,2.751137969406759e-10,0.08143281,0.29637972,9.75372003,0.00444,-0.002718,0.004012,0.06137614376063763
1757945902.3845086,-0.7105107143638667,1.1140896804952638,2.1408693329248116,-0.4891374064779068,0.7627013652253751,-2.273353232027833,0.28691964250497026,2.751137969406759e-10,0.08143281,0.29637972,9.75372003,0.00444,-0.002718,0.004012,0.06137614376063763
1757945902.405462,-0.7142001662725821,1.1196492359433015,2.1409146466065128,-0.4890534903831816,0.7625112954893978,-2.273353232027833,0.28691964250497026,2.4266534457212304e-10,0.08532738,0.3065625,9.743390100000001,0.004101,-0.001882,0.00442,0.06169034284902766
1757945902.4259014,-0.7142001662725821,1.1196492359433015,2.1409146466065128,-0.4890534903831816,0.7625112954893978,-2.273353232027833,0.28691964250497026,2.4266534457212304e-10,0.08532738,0.3065625,9.743390100000001,0.004101,-0.001882,0.00442,0.06169034284902766
1757945902.4463637,-0.7170970654844376,1.1239780286215306,2.140957660469038,-0.48894183668411384,0.7622808664842841,-2.273353232027833,0.28691964250497026,2.139758428719595e-10,0.07229970000000001,0.29608542000000004,9.732010500000001,0.002688,-0.00058,0.004561,0.06165241984956507
1757945902.4667761,-0.7170970654844376,1.1239780286215306,2.140957660469038,-0.48894183668411384,0.7622808664842841,-2.273353232027833,0.28691964250497026,2.139758428719595e-10,0.07229970000000001,0.29608542000000004,9.732010500000001,0.002688,-0.00058,0.004561,0.06165241984956507
1757945902.4873676,-0.7204505154633054,1.1290234087087991,2.140998520658913,-0.4887960995864024,0.7620000902220251,-2.273353232027833,0.28691964250497026,1.885915544944611e-10,0.07035732,0.30371760000000003,9.74324295,0.001627,6.6e-05,0.002166,0.06177024034663592
1757945902.5120635,-0.7252624142409608,1.1364351725061663,2.1410182059489404,-0.4887103919942497,0.7618407291030102,-2.273353232027833,0.28691964250497026,1.7698837673699264e-10,0.0868185,0.30790647,9.74069235,0.002744,0.000114,0.004106,0.06311411460844651
1757945902.5325754,-0.72223210571541,1.131623455303091,2.1410370684155087,-0.4886845420306611,0.7617757630654757,-2.273353232027833,0.28691964250497026,1.6639384088477412e-10,0.07574301000000001,0.29144529,9.76584519,0.003033,-0.000652,0.003304,0.06151115580226943
1757945902.5537226,-0.7288446651878147,1.1418440613926755,2.1410557949657374,-0.4885820520630323,0.7615915410140931,-2.273353232027833,0.28691964250497026,1.560905665941281e-10,0.07349652000000001,0.30117681,9.7582032,0.001081,0.000333,0.00403,0.06351288415526257
1757945902.5747116,-0.7251254794608669,1.1359612817537597,2.141073689981315,-0.48854928025055466,0.7615170624972523,-2.273353232027833,0.28691964250497026,1.467296114741024e-10,0.07215255000000001,0.29278926000000005,9.76149936,0.00402,-0.000285,0.003808,0.06159069948299976
1757945902.5952544,-0.7309461263275543,1.1449493823802943,2.1410914075320866,-0.4884515850115518,0.7613416622848302,-2.273353232027833,0.28691964250497026,1.376706994140249e-10,0.08457201,0.30775932,9.752523210000001,1e-05,0.003353,0.005272,0.06331696612750351
1757945902.6153686,-0.7297689850103934,1.1430313569850439,2.1411084955612827,-0.48838712100753895,0.7612188614360009,-2.273353232027833,0.28691964250497026,1.2930644434462865e-10,0.07155414,0.3005784,9.751473540000001,0.003457,-0.001026,0.003722,0.06230577937473345
1757945902.635969,-0.7346698363654507,1.1505875273641097,2.141125351416232,-0.4882635911088703,0.7610042835303988,-2.273353232027833,0.28691964250497026,1.2127419502521509e-10,0.07708698000000001,0.29189655000000003,9.7610481,0.00378,0.001447,0.00218,0.06357272949325296
1757945902.6563492,-0.7308921485813618,1.1446189059937641,2.1411414520303858,-0.4882133856787967,0.7609049859862718,-2.273353232027833,0.28691964250497026,1.1397987316488742e-10,0.0779895,0.30521853,9.75865446,0.000809,0.00076,0.004018,0.06164061819655764
1757945902.676641,-0.7376545586563247,1.1550782374033388,2.1411574499636084,-0.4880810626885518,0.7606778736218799,-2.273353232027833,0.28691964250497026,1.0688259135809777e-10,0.07229970000000001,0.30581694000000004,9.76988691,0.005119,-0.000147,0.00519,0.06369545548109015
1757945902.6972623,-0.7338605159549462,1.1490866567672537,2.141172727742621,-0.488023225001747,0.7605677887499495,-2.273353232027833,0.28691964250497026,1.0043898288578071e-10,0.08157996,0.30161826,9.7547697,0.002706,-0.000107,0.004237,0.06173862300662922
1757945902.7235076,-0.7360522142561989,1.152348266481473,2.1412023006300887,-0.48785105992541117,0.7602609712909089,-2.273353232027833,0.28691964250497026,8.854620407873295e-11,0.0691605,0.31749084,9.77347737,0.004502,-0.002003,0.003188,0.06164339563702976
1757945902.7439044,-0.7360522142561989,1.152348266481473,2.1412023006300887,-0.48785105992541117,0.7602609712909089,-2.273353232027833,0.28691964250497026,8.854620407873295e-11,0.0691605,0.31749084,9.77347737,0.004502,-0.002003,0.003188,0.06164339563702976
1757945902.7653847,-0.7477567611314248,1.1705121233159628,2.1412169288234395,-0.4876175018771976,0.7598777989675017,-2.273353232027833,0.28691964250497026,8.286688603418123e-11,0.0691605,0.30371760000000003,9.77048532,0.001077,-0.001003,0.004922,0.06534808189776013
1757945902.786334,-0.7436285315201612,1.1640041633217033,2.1412308682627677,-0.48747532333391713,0.7596379325287141,-2.273353232027833,0.28691964250497026,7.773922029970467e-11,0.07349652000000001,0.29608542000000004,9.76809168,0.003728,-0.001182,0.00393,0.06294715641755175
1757945902.8133311,-0.7455058178646593,1.1667832421900564,2.1412575857428884,-0.48721957555377793,0.7592045849951332,-2.273353232027833,0.28691964250497026,6.844966600123981e-11,0.06751242,0.30042144,9.76135221,0.004394,-0.000154,0.004551,0.06273144700479041
1757945902.8336189,-0.7457756355732571,1.1671321736925964,2.141270355737615,-0.4871169253018519,0.7590280882640235,-2.273353232027833,0.28691964250497026,6.425912226872882e-11,0.07050447,0.31629402,9.756113670000001,0.003202,-0.000517,0.002696,0.062430220528421294
1757945902.8536596,-0.7428631267474523,1.1625237682892855,2.141282591920188,-0.4870790597416728,0.7589532959922417,-2.273353232027833,0.28691964250497026,6.042190804039474e-11,0.07499745000000001,0.30177522,9.77273181,0.002137,-0.000333,0.001969,0.061103359645713624
1757945902.8738337,-0.7467545940024404,1.168517963429237,2.1412946324233744,-0.4870172098817671,0.7588414987678305,-2.273353232027833,0.28691964250497026,5.6743499210610446e-11,0.07364367000000001,0.29114118,9.76030254,0.00337,-0.001108,0.003939,0.06236895464405516
1757945902.8948748,-0.7453591160686243,1.1662754326870803,2.1413062362194797,-0.48699422749137083,0.7587908230183785,-2.273353232027833,0.28691964250497026,5.334048210849476e-11,0.07813665,0.30206952000000004,9.75880161,0.001315,0.000221,0.004382,0.06154776320816281
1757945902.9155915,-0.7520364275000615,1.1766116979105694,2.1413177724480406,-0.4868903907106547,0.7586142038941582,-2.273353232027833,0.28691964250497026,5.0025500044666074e-11,0.07424208,0.30117681,9.76943565,0.003115,-0.000825,0.003991,0.06362964929599971
1757945902.9412332,-0.7561814610329927,1.183002927066207,2.14132911647434,-0.486722590136042,0.7583379985624547,-2.273353232027833,0.28691964250497026,4.686495019355883e-11,0.0811287,0.29383893,9.75850731,0.003833,-0.001406,0.004289,0.06439379658763081
1757945902.9626353,-0.7495381832603905,1.1725222246393898,2.141350349530544,-0.48658304267345315,0.7580930237857338,-2.273353232027833,0.28691964250497026,4.135326593236652e-11,0.08203122,0.30297204000000005,9.77706783,0.004165,-0.000933,0.003522,0.06100359051904742
1757945902.9832034,-0.7495381832603905,1.1725222246393898,2.141350349530544,-0.48658304267345315,0.7580930237857338,-2.273353232027833,0.28691964250497026,4.135326593236652e-11,0.08203122,0.30297204000000005,9.77706783,0.004165,-0.000933,0.003522,0.06100359051904742
1757945903.0031838,-0.7515115935754603,1.1754702982583232,2.141370426248372,-0.4864840063179703,0.7579129964377763,-2.273353232027833,0.28691964250497026,3.649033988063755e-11,0.07065162,0.31270356000000005,9.74877579,0.002186,-0.001068,0.003787,0.0612291813755928
1757945903.023514,-0.7515115935754603,1.1754702982583232,2.141370426248372,-0.4864840063179703,0.7579129964377763,-2.273353232027833,0.28691964250497026,3.649033988063755e-11,0.07065162,0.31270356000000005,9.74877579,0.002186,-0.001068,0.003787,0.0612291813755928
1757945903.04408,-0.7515115935754603,1.1754702982583232,2.141370426248372,-0.4864840063179703,0.7579129964377763,-2.273353232027833,0.28691964250497026,3.649033988063755e-11,0.07065162,0.31270356000000005,9.74877579,0.002186,-0.001068,0.003787,0.0612291813755928
1757945903.0689082,-0.7575703875479469,1.184724996700857,2.1413991504410577,-0.4859894735621738,0.7571050844933115,-2.273353232027833,0.28691964250497026,3.004813070066552e-11,0.07394778,0.3034233,9.75716334,0.004963,-0.001282,0.003835,0.061523292189164504
1757945903.0894866,-0.7558715514220916,1.182019148039947,2.1414079099004173,-0.4859675131779031,0.7570596663896385,-2.273353232027833,0.28691964250497026,2.8258325052895677e-11,0.07005321,0.31015296,9.75880161,0.002066,-5.5e-05,0.003718,0.060868741522796116
1757945903.1103415,-0.7558715514220916,1.182019148039947,2.1414079099004173,-0.4859675131779031,0.7570596663896385,-2.273353232027833,0.28691964250497026,2.8258325052895677e-11,0.07005321,0.31015296,9.75880161,0.002066,-5.5e-05,0.003718,0.060868741522796116
1757945903.1310604,-0.7596843321659387,1.1878421548748492,2.1414250177305334,-0.4858195249203377,0.7568073587480518,-2.273353232027833,0.28691964250497026,2.4898205154138684e-11,0.08203122,0.30670965,9.75416148,0.006752,-0.000585,0.002306,0.06163686931683776
1757945903.1512036,-0.7627503530427696,1.1925612464774469,2.141433198605906,-0.4857632615061044,0.7567093469007652,-2.273353232027833,0.28691964250497026,2.337500511488199e-11,0.06496182,0.3034233,9.77032836,0.001009,0.000491,0.004846,0.06256279271045914
1757945903.171764,-0.7594171513790718,1.1873128265104933,2.1414410141680005,-0.48576849918716225,0.756707610995031,-2.273353232027833,0.28691964250497026,2.1982171428795328e-11,0.07888221,0.29862621,9.77108373,0.003239,-0.000605,0.003144,0.061095057798871304
1757945903.195341,-0.7663917328107057,1.198121821059051,2.1414488032669734,-0.4856925414164344,0.756579427703012,-2.273353232027833,0.28691964250497026,2.061965741710363e-11,0.08308089000000002,0.30161826,9.75850731,0.002209,-2.8e-05,0.005285,0.0634433075331422
1757945903.2154527,-0.7625317672775522,1.192054436249184,2.141456224139093,-0.48568316762744923,0.7565554029749575,-2.273353232027833,0.28691964250497026,1.9379921102977092e-11,0.07334937000000001,0.3065625,9.75836016,0.000708,-0.000259,0.005075,0.06159917280589138
1757945903.235712,-0.7679483172985995,1.20043773633657,2.1414635720913635,-0.4856088153581712,0.7564302468947616,-2.273353232027833,0.28691964250497026,1.8180382246897415e-11,0.06825798,0.29818476,9.77482134,0.002606,-0.001591,0.003411,0.06331645223037279
1757945903.2563376,-0.7640318469949607,1.1942840013277216,2.141470569798564,-0.4856016663519597,0.756410212272322,-2.273353232027833,0.28691964250497026,1.7089004178446096e-11,0.06780672,0.31134978,9.73635633,0.003468,5.6e-05,0.003336,0.06148876362547384
1757945903.2825105,-0.7655018427091987,1.1964698636802422,2.141483970557916,-0.48561138475388416,0.7564084698116283,-2.273353232027833,0.28691964250497026,1.5097398279371032e-11,0.07184844,0.30985866000000006,9.775419750000001,0.003196,-0.000625,0.004442,0.06176838319726821
1757945903.3029397,-0.7655018427091987,1.1964698636802422,2.141483970557916,-0.48561138475388416,0.7564084698116283,-2.273353232027833,0.28691964250497026,1.5097398279371032e-11,0.07184844,0.30985866000000006,9.775419750000001,0.003196,-0.000625,0.004442,0.06176838319726821
1757945903.323508,-0.7673269347904035,1.1992113869461434,2.141496761463542,-0.4855256544921869,0.7562586692352598,-2.273353232027833,0.28691964250497026,1.3307574785595417e-11,0.07888221,0.30027429,9.76508982,0.003853,-0.001184,0.004925,0.061624140634929624
1757945903.3438551,-0.7673269347904035,1.1992113869461434,2.141496761463542,-0.4855256544921869,0.7562586692352598,-2.273353232027833,0.28691964250497026,1.3307574785595417e-11,0.07888221,0.30027429,9.76508982,0.003853,-0.001184,0.004925,0.061624140634929624
1757945903.3659627,-0.7792424083295656,1.2177208363054257,2.1415030998979994,-0.4853167344072766,0.7559250003263974,-2.273353232027833,0.28691964250497026,1.245147420105436e-11,0.07469334000000001,0.30101985000000003,9.759556980000001,0.000709,-0.000994,0.003409,0.06550074014468989
1757945903.3910232,-0.7738625030006819,1.2092435543869837,2.1415149108990006,-0.48510439879510464,0.7555790074249367,-2.273353232027833,0.28691964250497026,1.0962098139081863e-11,0.07409493,0.29878317000000004,9.76240188,0.003801,-0.001724,0.002949,0.062347406487115564
1757945903.411084,-0.7707216040895573,1.2043038978890581,2.1415204428211307,-0.48507915655156475,0.7555326697166055,-2.273353232027833,0.28691964250497026,1.0306370317331871e-11,0.08232552,0.31045707000000006,9.74638215,0.002112,0.001157,0.00319,0.06105352632010818
1757945903.4314094,-0.7707216040895573,1.2043038978890581,2.1415204428211307,-0.48507915655156475,0.7555326697166055,-2.273353232027833,0.28691964250497026,1.0306370317331871e-11,0.08232552,0.31045707000000006,9.74638215,0.002112,0.001157,0.00319,0.06105352632010818
1757945903.4586246,-0.7885797052694791,1.2320708166912553,2.141526214184103,-0.48473076113194125,0.7549824241091935,-2.273353232027833,0.28691964250497026,9.623332248437255e-12,0.07439904,0.30042144,9.75057102,0.003491,-0.001579,0.004204,0.06707159765320272
1757945903.4795084,-0.7794412713058312,1.2177445838442553,2.141536858282408,-0.484360005187724,0.7543911127884309,-2.273353232027833,0.28691964250497026,8.454789462590286e-12,0.08188407,0.28845324,9.75731049,0.002896,-0.001042,0.003074,0.06215143398019428
1757945903.4998739,-0.7751401167284058,1.211000441776572,2.1415417744055834,-0.4843150223735709,0.7543148293438621,-2.273353232027833,0.28691964250497026,7.95048759819418e-12,0.08188407,0.28845324,9.75731049,0.002896,-0.001042,0.003074,0.06057014582843171
1757945903.5252142,-0.7762568031541758,1.212651160908707,2.141551275243433,-0.48422671685357604,0.7541656227030725,-2.273353232027833,0.28691964250497026,7.015769970195193e-12,0.07320222,0.29593827,9.76554108,0.004157,0.000386,0.004247,0.0608991221606968
1757945903.5463257,-0.7762568031541758,1.212651160908707,2.141551275243433,-0.48422671685357604,0.7541656227030725,-2.273353232027833,0.28691964250497026,7.015769970195193e-12,0.07320222,0.29593827,9.76554108,0.004157,0.000386,0.004247,0.0608991221606968
1757945903.5670877,-0.7767083229686078,1.2132683933464912,2.141560178197876,-0.4842137395393446,0.7541345720651579,-2.273353232027833,0.28691964250497026,6.1941917349518605e-12,0.07574301000000001,0.30177522,9.755064,0.003018,0.000123,0.004223,0.06086849797426784
1757945903.5929055,-0.7823408043881561,1.2219984046200651,2.1415644747900693,-0.48418876987147214,0.7540904576046356,-2.273353232027833,0.28691964250497026,5.813873299795859e-12,0.07724394000000001,0.28740357,9.76300029,0.00413,-0.001647,0.004069,0.06288899408502205
1757945903.6138754,-0.7784288510741075,1.2158643550464088,2.1415685529667474,-0.484225822368268,0.7541431754227187,-2.273353232027833,0.28691964250497026,5.4670696724367255e-12,0.062273880000000004,0.29159244,9.755662410000001,0.001168,0.000629,0.004429,0.06120224121641243
1757945903.6360013,-0.7853563045240142,1.226612130344795,2.141572621650786,-0.4841746902040122,0.7540585215160812,-2.273353232027833,0.28691964250497026,5.127482302399127e-12,0.08696565,0.29788065,9.7519248,0.004262,-0.000685,0.004202,0.06357451557248091
1757945903.6567962,-0.7813480872814316,1.2203292855248538,2.14157647910398,-0.484186866995148,0.7540727045932587,-2.273353232027833,0.28691964250497026,4.818466318706878e-12,0.07424208,0.30402171,9.76135221,0.002975,-0.000531,0.004384,0.06171125782800574
1757945903.6768744,-0.7817994247356306,1.220992352952588,2.1415802151083607,-0.48420593884609503,0.7540978130088536,-2.273353232027833,0.28691964250497026,4.528102861138487e-12,0.08547453,0.30147111000000004,9.76404996,0.003,0.00098,0.005164,0.061788096221325625
1757945903.6973612,-0.7826286197140149,1.2222444233517349,2.141583838994154,-0.48422418717494,0.7541217895307465,-2.273353232027833,0.28691964250497026,4.2546239244636e-12,0.08023599000000001,0.29414304,9.77437008,0.00457,-0.00283,0.003451,0.06196688130570346
1757945903.7188034,-0.788432798773459,1.231244798796202,2.1415873453369283,-0.4841555298244902,0.7540104804666493,-2.273353232027833,0.28691964250497026,3.989246372596083e-12,0.0634707,0.30117681,9.74967831,0.000439,0.000337,0.003472,0.0638720210865391
1757945903.7394793,-0.7870904267380553,1.2291157617201927,2.141590882567572,-0.484109248328086,0.7539339676537526,-2.273353232027833,0.28691964250497026,3.743898843936929e-12,0.0836793,0.31658832000000003,9.76733631,0.003809,-0.000314,0.005074,0.06279095236178145
1757945903.760776,-0.7882839088227592,1.2309365372484982,2.1415942297363433,-0.484050222123307,0.7538378434007724,-2.273353232027833,0.28691964250497026,3.513031642672306e-12,0.07589016,0.31075136999999997,9.75386718,0.00249,0.0016,0.004452,0.06290234865928059
1757945903.7808208,-0.7863100041804567,1.2278251771786985,2.141597429958118,-0.48402945108597867,0.7538015106945798,-2.273353232027833,0.28691964250497026,3.3000226744379827e-12,0.07589016,0.31075136999999997,9.75386718,0.00249,0.0016,0.004452,0.06191663882668
1757945903.801927,-0.7907242065241383,1.2346626719686191,2.14160058546945,-0.4839509974308975,0.7536754058284889,-2.273353232027833,0.28691964250497026,3.095132244442245e-12,0.06751242,0.29907747,9.752219100000001,0.002594,0.00118,0.004618,0.06332182197278739
1757945903.8221467,-0.7882438134359345,1.2307635338789178,2.141603592701239,-0.48391822285540853,0.7536206344475713,-2.273353232027833,0.28691964250497026,2.9068451257758662e-12,0.06751242,0.29907747,9.752219100000001,0.002594,0.00118,0.004618,0.06207382520178591
1757945903.8437223,-0.7929221905925964,1.2380133079736977,2.1416065611075634,-0.483821388335664,0.7534661394218134,-2.273353232027833,0.28691964250497026,2.725534959856171e-12,0.06556023,0.30101985000000003,9.76628664,0.004235,-0.001038,0.002349,0.06354178824304225
1757945903.8651657,-0.7885759242414059,1.2311745356523327,2.141612091734247,-0.4837598154561225,0.7533634350291287,-2.273353232027833,0.28691964250497026,2.404854465755561e-12,0.07933347,0.29623257000000003,9.75836016,0.002217,0.002791,0.005095,0.061456850050322996
1757945903.8852336,-0.7881344239841016,1.2304526567558993,2.141614691779175,-0.48377470295318564,0.7533834954806294,-2.273353232027833,0.28691964250497026,2.260867355287518e-12,0.07813665,0.30282489,9.76374585,0.00456,0.00015,0.004182,0.06131833494595537
1757945903.9060042,-0.789889103644357,1.2331513168125479,2.141617221705764,-0.48378153092483006,0.7533911145341649,-2.273353232027833,0.28691964250497026,2.124261626234916e-12,0.07439904,0.30746502000000003,9.74698056,0.0007,0.00371,0.004886,0.061944477639715056
1757945903.9265373,-0.7892575072557604,1.2321343259013633,2.141619652043346,-0.4838067629818535,0.7534275132966001,-2.273353232027833,0.28691964250497026,1.996752244221747e-12,0.07035732,0.3034233,9.75027672,0.003266,0.000545,0.001857,0.061606128986786225
1757945903.9469116,-0.7892575072557604,1.2321343259013633,2.141619652043346,-0.4838067629818535,0.7534275132966001,-2.273353232027833,0.28691964250497026,1.996752244221747e-12,0.07035732,0.3034233,9.75027672,0.003266,0.000545,0.001857,0.061606128986786225
1757945903.9745305,-0.8051643367374711,1.2568723246539633,2.141622187987413,-0.4835257781418072,0.7529865707098068,-2.273353232027833,0.28691964250497026,1.865312547590081e-12,0.08143281,0.30536568000000003,9.75776175,0.003005,0.000299,0.003389,0.0668639462190243
1757945903.994844,-0.7957610233484816,1.242163511033814,2.141626805114483,-0.4832574660123347,0.7525627620222206,-2.273353232027833,0.28691964250497026,1.6401114861915596e-12,0.07215255000000001,0.30850488,9.767787570000001,0.004946,-0.001123,0.002255,0.061996801917695674
1757945904.0154495,-0.7925993462798817,1.2372081773459447,2.1416289235424806,-0.48323589843569525,0.7525265799842272,-2.273353232027833,0.28691964250497026,1.5419702668778704e-12,0.0779895,0.30625839,9.772133400000001,0.002189,0.001621,0.004397,0.06087638809028683
1757945904.0357304,-0.7970975844491069,1.2441816729262969,2.14163101459315,-0.48317747331358973,0.7524331334293077,-2.273353232027833,0.28691964250497026,1.4472233609103324e-12,0.07529175,0.30237363,9.775419750000001,0.001991,-5.8e-05,0.003045,0.06260794088275606
1757945904.0621,-0.7932448130529007,1.2381205594873452,2.1416348746201592,-0.48322456080581777,0.7525020054124731,-2.273353232027833,0.28691964250497026,1.2796939125790608e-12,0.08262963000000001,0.31644117000000005,9.75356307,0.00271,0.000629,0.005036,0.061225407479795595
1757945904.0821555,-0.7938677898508203,1.239060630758935,2.141636704117424,-0.4832647999846025,0.752562604383692,-2.273353232027833,0.28691964250497026,1.2030568643471605e-12,0.06840513000000001,0.29952873,9.79053696,0.004143,-7.5e-05,0.004676,0.061498155301476544
1757945904.1027355,-0.7938677898508203,1.239060630758935,2.141636704117424,-0.4832647999846025,0.752562604383692,-2.273353232027833,0.28691964250497026,1.2030568643471605e-12,0.06840513000000001,0.29952873,9.79053696,0.004143,-7.5e-05,0.004676,0.061498155301476544
1757945904.1232338,-0.7950337121647489,1.2408171932328411,2.141640210602481,-0.4832712753642366,0.7525686084323133,-2.273353232027833,0.28691964250497026,1.0611395087323482e-12,0.07484049000000001,0.30670965,9.75685923,0.002579,-0.000785,0.003565,0.06149589917255475
1757945904.1435525,-0.7950337121647489,1.2408171932328411,2.141640210602481,-0.4832712753642366,0.7525686084323133,-2.273353232027833,0.28691964250497026,1.0611395087323482e-12,0.07484049000000001,0.30670965,9.75685923,0.002579,-0.000785,0.003565,0.06149589917255475
1757945904.1645548,-0.7973942191513318,1.2444354265609956,2.1416434937478366,-0.48319945829696537,0.7524528283108992,-2.273353232027833,0.28691964250497026,9.346685174687302e-13,0.0751446,0.29938158000000004,9.77797035,3.2e-05,0.001783,0.003569,0.06177207069208415
1757945904.1855707,-0.7973942191513318,1.2444354265609956,2.1416434937478366,-0.48319945829696537,0.7524528283108992,-2.273353232027833,0.28691964250497026,9.346685174687302e-13,0.0751446,0.29938158000000004,9.77797035,3.2e-05,0.001783,0.003569,0.06177207069208415
1757945904.2064314,-0.7973231200012859,1.2442686179202178,2.141646515231228,-0.48314547945477576,0.7523651594109795,-2.273353232027833,0.28691964250497026,8.240547692331165e-13,0.07035732,0.30117681,9.76269618,0.003044,0.000845,0.004003,0.06132506952142374
1757945904.227009,-0.7973231200012859,1.2442686179202178,2.141646515231228,-0.48314547945477576,0.7523651594109795,-2.273353232027833,0.28691964250497026,8.240547692331165e-13,0.07035732,0.30117681,9.76269618,0.003044,0.000845,0.004003,0.06132506952142374
1757945904.2474926,-0.8008662085709229,1.2497311993140068,2.1416493509254915,-0.4829981889346002,0.7521323745098122,-2.273353232027833,0.28691964250497026,7.251285781866753e-13,0.08876088000000001,0.30985866000000006,9.75386718,0.005579,-0.000233,0.006154,0.06202584752827872
1757945904.2683048,-0.798855525102643,1.2465733978144105,2.141650644100027,-0.4830056064172065,0.7521424239506284,-2.273353232027833,0.28691964250497026,6.816448910851478e-13,0.07634142000000001,0.30371760000000003,9.75880161,0.00213,0.000882,0.003372,0.06126841305161354
1757945904.2940342,-0.805167600169654,1.25637609480239,2.1416519328175543,-0.48292892257277115,0.7520215127584338,-2.273353232027833,0.28691964250497026,6.392087636214955e-13,0.07170129,0.30012714,9.74458692,0.005309,-0.002949,0.003042,0.06350363906114755
1757945904.3141568,-0.8050393466178295,1.2561501857261774,2.1416531638715384,-0.4828558726566417,0.7519063054571308,-2.273353232027833,0.28691964250497026,5.996288116412442e-13,0.08098155,0.30386475,9.74803023,0.002437,-0.000176,0.003161,0.06305375517967096
1757945904.3348558,-0.8009471773358297,1.2497520986453732,2.1416543095990477,-0.4828517221018248,0.7518985158977112,-2.273353232027833,0.28691964250497026,5.635684647555804e-13,0.06885639,0.29713509,9.74563659,0.00167,0.001513,0.004465,0.0613620138455747
1757945904.3552444,-0.8065282964161984,1.258417502777241,2.1416554461592563,-0.48277592173622635,0.751779174152211,-2.273353232027833,0.28691964250497026,5.285447273984183e-13,0.07155414,0.30670965,9.74099646,0.004282,3.4e-05,0.003812,0.06334542900781853
1757945904.3758378,-0.8019728478432602,1.2512986726756252,2.1416564980028028,-0.4827745424553076,0.7517758307088396,-2.273353232027833,0.28691964250497026,4.967409277306188e-13,0.07753824,0.30895614000000005,9.755211150000001,0.00198,0.00155,0.003444,0.06142595039686297
1757945904.3964944,-0.8073716464575337,1.2596807914125567,2.141657539891315,-0.4827032306630859,0.7516636020015294,-2.273353232027833,0.28691964250497026,4.658864933624784e-13,0.06765957,0.29338767,9.7547697,0.004213,-0.000184,0.004542,0.06333262602102958
1757945904.4167562,-0.8043294027778088,1.254918941811718,2.141658511912837,-0.48268384548305926,0.7516323183566168,-2.273353232027833,0.28691964250497026,4.376008236368342e-13,0.06870924,0.30042144,9.747431820000001,0.003241,0.001018,0.004495,0.06193823958082799
1757945904.4423761,-0.8035682492847215,1.2536856115669777,2.1416603408528854,-0.4826144214538214,0.751522153548441,-2.273353232027833,0.28691964250497026,3.857789150246284e-13,0.07439904,0.31090833,9.76149936,0.005498,-0.000663,0.004499,0.06129439348825785
1757945904.463065,-0.8038041087662967,1.2540293796481932,2.1416611756544954,-0.48263238319597684,0.7515492409916439,-2.273353232027833,0.28691964250497026,3.626030149658196e-13,0.06331374,0.30491442,9.76120506,0.001752,0.002966,0.00343,0.06147491382208152
1757945904.484073,-0.8043907459039235,1.2549196727996326,2.1416619723444184,-0.48265493289530487,0.7515835335547927,-2.273353232027833,0.28691964250497026,3.4076284281452495e-13,0.07334937000000001,0.30282489,9.768690090000002,0.004183,-0.00179,0.003451,0.061718266177388376
1757945904.5045815,-0.8043907459039235,1.2549196727996326,2.1416619723444184,-0.48265493289530487,0.7515835335547927,-2.273353232027833,0.28691964250497026,3.4076284281452495e-13,0.07334937000000001,0.30282489,9.768690090000002,0.004183,-0.00179,0.003451,0.061718266177388376
1757945904.5245965,-0.8055451166267801,1.2566715711527763,2.141663485064023,-0.48259431283172644,0.7514874704959373,-2.273353232027833,0.28691964250497026,3.002366533045979e-13,0.07380063,0.29173959000000005,9.75401433,0.00278,-0.00047,0.004372,0.06162498756764332
1757945904.545097,-0.8055451166267801,1.2566715711527763,2.141663485064023,-0.48259431283172644,0.7514874704959373,-2.273353232027833,0.28691964250497026,3.002366533045979e-13,0.07380063,0.29173959000000005,9.75401433,0.00278,-0.00047,0.004372,0.06162498756764332
1757945904.5656316,-0.8064879635238801,1.2580952203421016,2.1416648512094003,-0.48251677207482974,0.7513652088479044,-2.273353232027833,0.28691964250497026,2.6453537717240596e-13,0.06675705000000001,0.31030011,9.763598700000001,0.002345,0.001931,0.004382,0.0615483890696362
1757945904.5909314,-0.8109425129371726,1.2650098707162285,2.141665489584181,-0.4824582607907871,0.751273406939435,-2.273353232027833,0.28691964250497026,2.48163303418715e-13,0.07260381,0.30221667,9.75431844,0.002884,0.000856,0.003064,0.06311933359159275
1757945904.6113658,-0.8070082753341736,1.2588620453654693,2.141666070872404,-0.48246305698007624,0.7512802661559213,-2.273353232027833,0.28691964250497026,2.3322619047556786e-13,0.08217837000000001,0.30790647,9.76374585,0.003882,-0.000946,0.005388,0.06147300888840897
1757945904.6362724,-0.8142132069244766,1.270060006702294,2.1416666551096455,-0.4823597219896421,0.75111871407117,-2.273353232027833,0.28691964250497026,2.1857371795368182e-13,0.07948062,0.30506157,9.75895857,0.001973,0.002582,0.003822,0.06398820494606641
1757945904.662067,-0.8086151260067713,1.261301063041169,2.141667669663417,-0.48233479702184223,0.7510788608606574,-2.273353232027833,0.28691964250497026,1.9291564801912827e-13,0.06811083000000001,0.30402171,9.755368110000001,0.002001,0.000738,0.004901,0.06158306362922724
1757945904.6828604,-0.8088414318168639,1.2616329940811497,2.1416681287402275,-0.48234475344348676,0.7510939471599334,-2.273353232027833,0.28691964250497026,1.812775515507629e-13,0.08277678,0.29697813,9.76568823,0.002169,0.001692,0.005598,0.061705686016389934
1757945904.703186,-0.8088414318168639,1.2616329940811497,2.1416681287402275,-0.48234475344348676,0.7510939471599334,-2.273353232027833,0.28691964250497026,1.812775515507629e-13,0.08277678,0.29697813,9.76568823,0.002169,0.001692,0.005598,0.061705686016389934
1757945904.7234657,-0.8088414318168639,1.2616329940811497,2.1416681287402275,-0.48234475344348676,0.7510939471599334,-2.273353232027833,0.28691964250497026,1.812775515507629e-13,0.08277678,0.29697813,9.76568823,0.002169,0.001692,0.005598,0.061705686016389934
1757945904.7438388,-0.8288750871767335,1.2928082097844829,2.1416686502304065,-0.48191724605959757,0.7504273987323136,-2.273353232027833,0.28691964250497026,1.6899929337477268e-13,0.0754389,0.30611124,9.75880161,0.004126,0.000348,0.002054,0.0683770436385388
1757945904.7641954,-0.8187349920888022,1.2769781477830284,2.1416695264066252,-0.4814367660301453,0.749677993764033,-2.273353232027833,0.28691964250497026,1.4810234680399253e-13,0.07065162,0.30551283,9.755064,0.002217,0.001848,0.003358,0.06287491323770392
1757945904.7851765,-0.8138240880824376,1.269311460710788,2.141669888470428,-0.48135636353802913,0.7495524105370663,-2.273353232027833,0.28691964250497026,1.3912929364584845e-13,0.07065162,0.30551283,9.755064,0.002217,0.001848,0.003358,0.06109098385690409
1757945904.8051965,-0.810393820665758,1.2639315807036346,2.1416705259438853,-0.4813176242348515,0.7494916709933429,-2.273353232027833,0.28691964250497026,1.2291003207627017e-13,0.07574301000000001,0.29668383,9.7784118,0.003536,0.001884,0.004062,0.06026057006687567
1757945904.825625,-0.810393820665758,1.2639315807036346,2.1416705259438853,-0.4813176242348515,0.7494916709933429,-2.273353232027833,0.28691964250497026,1.2291003207627017e-13,0.07574301000000001,0.29668383,9.7784118,0.003536,0.001884,0.004062,0.06026057006687567
1757945904.8517103,-0.8246868243753822,1.2861691236732953,2.1416708535887423,-0.48113436318555297,0.749206056282223,-2.273353232027833,0.28691964250497026,1.149696363176923e-13,0.07963758,0.29578131,9.74832453,0.002059,0.002501,0.002699,0.06551496017581378
1757945904.8720737,-0.814796719291743,1.2707314720492906,2.141671370221646,-0.48104156699822137,0.7490612004100384,-2.273353232027833,0.28691964250497026,1.0130837390865067e-13,0.0751446,0.31045707000000006,9.76809168,0.002642,0.001136,0.002223,0.061198273655850344
1757945904.8927064,-0.8114506012168107,1.2655029050453686,2.141671571292372,-0.4811038033539261,0.7491580567454041,-2.273353232027833,0.28691964250497026,9.533182821601079e-14,0.07724394000000001,0.30551283,9.77452704,0.002471,0.000935,0.003791,0.060254369263677554
1757945904.9131277,-0.817040200570217,1.2741888668516788,2.1416717696619028,-0.4811222348360044,0.7491867461627107,-2.273353232027833,0.28691964250497026,8.949716222022416e-14,0.06526593,0.30985866000000006,9.771976440000001,0.004663,-0.000379,0.002513,0.06257243122738201
1757945904.9340212,-0.8122469027652585,1.2667072474859231,2.1416719283860104,-0.48120920409124407,0.7493221838647409,-2.273353232027833,0.28691964250497026,8.419014400218391e-14,0.08532738,0.29069973,9.76568823,0.001464,-0.000903,0.004586,0.06078848307389254
1757945904.9545372,-0.8178955514667865,1.275485596864844,2.141672084027853,-0.48123414931973957,0.7493610341144386,-2.273353232027833,0.28691964250497026,7.901281082762306e-14,0.07963758,0.29833191000000003,9.75057102,0.003654,-0.001653,0.003234,0.06297605913044502
1757945904.9751387,-0.8134684421868679,1.2685746162299851,2.1416722034847684,-0.48131897422794634,0.7494931482349936,-2.273353232027833,0.28691964250497026,7.429595602884874e-14,0.07993188000000001,0.30431601,9.771525180000001,0.003489,-0.000663,0.003026,0.06121999766628339
1757945904.995345,-0.8187871856315342,1.2768396710176817,2.1416723189862426,-0.4813343449753746,0.749517094224382,-2.273353232027833,0.28691964250497026,6.970970250364068e-14,0.08053028999999999,0.30551283,9.767787570000001,0.0011,0.001381,0.003483,0.0631912256624434
1757945905.0161614,-0.8141866583917925,1.269659065724578,2.1416724001021503,-0.4814112581885116,0.749636903347365,-2.273353232027833,0.28691964250497026,6.553808593949551e-14,0.06137136000000001,0.30221667,9.76269618,0.004916,-0.000363,0.002222,0.06132968634733693
1757945905.0362463,-0.8199337463734991,1.2785915287537897,2.141672479011694,-0.4814068455496076,0.7496300574281497,-2.273353232027833,0.28691964250497026,6.147341011996137e-14,0.07574301000000001,0.30237363,9.775272600000001,0.002213,0.000773,0.0035,0.06342364238181333
1757945905.0571165,-0.8152699467445672,1.2713127942999534,2.141672525492919,-0.4814662815847811,0.7497226722235553,-2.273353232027833,0.28691964250497026,5.777994182198281e-14,0.06720831000000001,0.30266793,9.756113670000001,0.004568,-0.000654,0.003515,0.06149530589390505
1757945905.0815716,-0.8146955744128848,1.270386111641117,2.141672573668089,-0.48155132539707285,0.749855293413614,-2.273353232027833,0.28691964250497026,5.099495596183463e-14,0.07619427,0.30506157,9.74997261,0.001213,0.000444,0.004608,0.06121454622129418
1757945905.1020858,-0.8146955744128848,1.270386111641117,2.141672573668089,-0.48155132539707285,0.749855293413614,-2.273353232027833,0.28691964250497026,5.099495596183463e-14,0.07619427,0.30506157,9.74997261,0.001213,0.000444,0.004608,0.06121454622129418
1757945905.124578,-0.8167732905182674,1.2735898846880684,2.141672567394119,-0.4815550774171576,0.749861354129506,-2.273353232027833,0.28691964250497026,4.493022588935264e-14,0.07603731000000001,0.31479309,9.7490799,-0.000336,0.001354,0.003855,0.0616738714202808
1757945905.1454527,-0.8167732905182674,1.2735898846880684,2.141672567394119,-0.4815550774171576,0.749861354129506,-2.273353232027833,0.28691964250497026,4.493022588935264e-14,0.07603731000000001,0.31479309,9.7490799,-0.000336,0.001354,0.003855,0.0616738714202808
1757945905.170918,-0.8202586480598149,1.2789863070511274,2.1416725061090816,-0.4815036462789053,0.7497815391917302,-2.273353232027833,0.28691964250497026,3.955315393596024e-14,0.0754389,0.30581694000000004,9.74607804,0.003732,0.002368,0.004122,0.06263369100155959
1757945905.1929417,-0.8215657797537129,1.2810065685244254,2.141672454792454,-0.4814652797830672,0.7497219557272624,-2.273353232027833,0.28691964250497026,3.710918542936034e-14,0.08337519,0.2951829,9.76913154,0.000208,0.000772,0.002504,0.06295234494601096
1757945905.2131653,-0.8168622865552214,1.2736675287394121,2.1416723786036798,-0.4814983978023586,0.7497737319714177,-2.273353232027833,0.28691964250497026,3.488761409808876e-14,0.0782838,0.31165389,9.743390100000001,0.004654,0.00389,0.002513,0.06113793269407513
1757945905.233598,-0.821842875759996,1.2814083433459909,2.141672300052628,-0.48146898054427034,0.749728145515249,-2.273353232027833,0.28691964250497026,3.2732937776909825e-14,0.05837931,0.31015296,9.76254903,0.002405,0.001175,0.001781,0.06304008828442362
1757945905.2532349,-0.8171266145805107,1.2740497733919043,2.1416721979564226,-0.48150926809931094,0.7497911327337787,-2.273353232027833,0.28691964250497026,3.0774388310743156e-14,0.0751446,0.30237363,9.76943565,0.003005,0.001965,0.005352,0.061188710248547135
1757945905.2751658,-0.8179915562783641,1.2753822425581232,2.141672085115516,-0.481550133130005,0.749855054759954,-2.273353232027833,0.28691964250497026,2.8922213629883235e-14,0.05867361000000001,0.30446316,9.74219328,0.002966,0.005099,0.002804,0.06165890778055029
1757945905.2954757,-0.8179321855173756,1.275275577216179,2.1416719597130047,-0.48159795321124815,0.7499298241236223,-2.273353232027833,0.28691964250497026,2.7182435370214696e-14,0.05867361000000001,0.30446316,9.74219328,0.002966,0.005099,0.002804,0.06169168497084233
1757945905.3215253,-0.8184748197962244,1.2760925554289941,2.1416716837551153,-0.4815992592052845,0.7499324227285978,-2.273353232027833,0.28691964250497026,2.3961339216899955e-14,0.06107706,0.3005784,9.791292330000001,0.002466,0.001076,0.005185,0.061556014674531846
1757945905.341914,-0.8184748197962244,1.2760925554289941,2.1416716837551153,-0.4815992592052845,0.7499324227285978,-2.273353232027833,0.28691964250497026,2.3961339216899955e-14,0.06107706,0.3005784,9.791292330000001,0.002466,0.001076,0.005185,0.061556014674531846
1757945905.3654635,-0.8208299985908034,1.279732572564844,2.1416713720901797,-0.4815063171080499,0.7497882434805404,-2.273353232027833,0.28691964250497026,2.109012470488036e-14,0.07349652000000001,0.29637972,9.792783450000002,0.002869,-0.00072,0.003641,0.061961543587493305
1757945905.3862593,-0.8208299985908034,1.279732572564844,2.1416713720901797,-0.4815063171080499,0.7497882434805404,-2.273353232027833,0.28691964250497026,2.109012470488036e-14,0.07349652000000001,0.29637972,9.792783450000002,0.002869,-0.00072,0.003641,0.061961543587493305
1757945905.4063609,-0.8202913440523766,1.2788670488655454,2.1416710176805562,-0.4814341534894525,0.7496764935752362,-2.273353232027833,0.28691964250497026,1.858286439027642e-14,0.08322804,0.30611124,9.76090095,0.005092,0.001011,0.006642,0.061483375501635004
1757945905.4267077,-0.8202913440523766,1.2788670488655454,2.1416710176805562,-0.4814341534894525,0.7496764935752362,-2.273353232027833,0.28691964250497026,1.858286439027642e-14,0.08322804,0.30611124,9.76090095,0.005092,0.001011,0.006642,0.061483375501635004
1757945905.4471571,-0.8264674785337134,1.2884711826314097,2.141670832216132,-0.48134558529698707,0.7495389019090505,-2.273353232027833,0.28691964250497026,1.7419348416897294e-14,0.07424208,0.2977335,9.763451550000001,0.003414,0.001193,0.002656,0.06372299083446405
1757945905.4688046,-0.8236516285571698,1.2840605096716138,2.1416704330525125,-0.4811652497984872,0.7492587305286112,-2.273353232027833,0.28691964250497026,1.53221272664275e-14,0.07170129,0.31928607000000003,9.76613949,0.004402,-0.000452,0.005296,0.0619706409050372
1757945905.489885,-0.8203344382073573,1.278882403474141,2.141670212031702,-0.481179854840568,0.7492818635596327,-2.273353232027833,0.28691964250497026,1.4406865795821512e-14,0.08128566000000001,0.30625839,9.763294590000001,0.00141,0.001106,0.005225,0.06088213056596308
1757945905.5147672,-0.8270045628459771,1.2892563822600536,2.1416699925828384,-0.48111088598359725,0.749174866205465,-2.273353232027833,0.28691964250497026,1.3509396799486622e-14,0.07574301000000001,0.30402171,9.775419750000001,0.003943,0.001131,0.00418,0.0634423165202249
1757945905.5357413,-0.8221476415761576,1.2816809122292727,2.141669758062142,-0.4811189925628186,0.7491879046417839,-2.273353232027833,0.28691964250497026,1.269501687555119e-14,0.06706116000000001,0.3065625,9.755368110000001,0.003486,0.001907,0.00412,0.061479902109946756
1757945905.561673,-0.8216522457108622,1.2808851517971973,2.141669267371058,-0.48115898091690806,0.7492510637051095,-2.273353232027833,0.28691964250497026,1.1207409846435226e-14,0.07529175,0.31210515000000005,9.76972995,0.004348,0.000899,0.003847,0.06144798446965599
1757945905.5821953,-0.8216522457108622,1.2808851517971973,2.141669267371058,-0.48115898091690806,0.7492510637051095,-2.273353232027833,0.28691964250497026,1.1207409846435226e-14,0.07529175,0.31210515000000005,9.76972995,0.004348,0.000899,0.003847,0.06144798446965599
1757945905.6053843,-0.8329013786722098,1.298390005473858,2.1416690237758083,-0.480998725536229,0.7490018785395384,-2.273353232027833,0.28691964250497026,1.0486790348437955e-14,0.07753824,0.3034233,9.73246176,0.002281,0.002627,0.004593,0.06538001934763427
1757945905.625952,-0.8280562160414958,1.2908333289462754,2.1416687671418444,-0.4809224197598554,0.7488834397395544,-2.273353232027833,0.28691964250497026,9.835514051702965e-15,0.05852646,0.30446316,9.79697232,0.004601,0.000583,0.004099,0.06300287437065318
1757945905.6464262,-0.8225421181927263,1.2822235734502567,2.1416682283624997,-0.48088181794562807,0.7488210732652962,-2.273353232027833,0.28691964250497026,8.676945478413279e-15,0.0751446,0.29668383,9.756260820000001,0.003392,0.001688,0.004906,0.06086723657365974
1757945905.6664162,-0.8233653479436014,1.2834940625073228,2.141667948187534,-0.4809124710235551,0.7488692958463684,-2.273353232027833,0.28691964250497026,8.155218290981912e-15,0.07275096,0.29474145,9.78515127,0.005222,0.000648,0.004938,0.06144491988957156
1757945905.6865635,-0.822711337016864,1.2824643562285,2.141667661321705,-0.48096458065109743,0.748950947452218,-2.273353232027833,0.28691964250497026,7.666653148385557e-15,0.06706116000000001,0.29862621,9.771378030000001,0.001146,0.001583,0.004198,0.06136144417911599
1757945905.7120275,-0.828037922176737,1.2907476255901955,2.14166737376493,-0.4809433632436631,0.7489183923360435,-2.273353232027833,0.28691964250497026,7.191667223213936e-15,0.07439904,0.29697813,9.779314320000001,0.003921,3.8e-05,0.002718,0.0633277295023765
1757945905.7325366,-0.8234452948660513,1.2835850090113476,2.1416670760304033,-0.480987759766466,0.7489880144611559,-2.273353232027833,0.28691964250497026,6.759597712674907e-15,0.07603731000000001,0.31285071000000003,9.74234043,0.003312,-0.000719,0.004239,0.06146535479284372
1757945905.7547846,-0.8297712496285837,1.2934247320586931,2.1416667789041144,-0.4809365701773924,0.7489087675919494,-2.273353232027833,0.28691964250497026,6.337228663648624e-15,0.07933347,0.31134978,9.77048532,0.001823,0.002351,0.003933,0.06375505149776059
1757945905.7748177,-0.8249705316913446,1.2859383045214103,2.1416664723526972,-0.48095655442557295,0.7489403637639526,-2.273353232027833,0.28691964250497026,5.953937110731979e-15,0.06675705000000001,0.31045707000000006,9.77661657,0.003966,-0.000374,0.002862,0.0617401044368369
1757945905.7949169,-0.8279227058981742,1.2905246887777668,2.141666163767475,-0.48093771402380325,0.7489115093765022,-2.273353232027833,0.28691964250497026,5.587258772112566e-15,0.07813665,0.3034233,9.75312162,0.00174,0.000478,0.005367,0.0628393344387492
1757945905.8157113,-0.8244102312225738,1.2850445397969474,2.141665847710846,-0.48097161543916744,0.7489647982656377,-2.273353232027833,0.28691964250497026,5.251159565704512e-15,0.08007903000000001,0.31464594,9.767934720000001,0.004727,-0.000364,0.00331,0.061472457534672446
1757945905.8363404,-0.8308020375350417,1.2949873098886997,2.141665532516998,-0.48090837524146335,0.7488668011888758,-2.273353232027833,0.28691964250497026,4.9225409850454955e-15,0.08471916,0.31120263000000004,9.75446559,0.004643,-0.00033,0.003783,0.0637931588146232
1757945905.8616052,-0.8249624333057268,1.2858733749566205,2.1416648818357853,-0.48095070539560264,0.7489337262968812,-2.273353232027833,0.28691964250497026,4.34607668564729e-15,0.08322804,0.31090833,9.755966520000001,0.00537,0.000487,0.004886,0.061502580239843764
1757945905.8818073,-0.825296378016034,1.2863832947895304,2.141664550702874,-0.4809882318218572,0.7489926937661382,-2.273353232027833,0.28691964250497026,4.083927558362379e-15,0.0666099,0.31390038,9.751169430000001,0.00177,0.001642,0.004117,0.06174701235762218
1757945905.9022312,-0.825296378016034,1.2863832947895304,2.141664550702874,-0.4809882318218572,0.7489926937661382,-2.273353232027833,0.28691964250497026,4.083927558362379e-15,0.0666099,0.31390038,9.751169430000001,0.00177,0.001642,0.004117,0.06174701235762218
1757945905.923967,-0.8267639963614133,1.2886487335255712,2.141663882982174,-0.4809295022120547,0.7489022419814645,-2.273353232027833,0.28691964250497026,3.595619040531704e-15,0.07394778,0.29623257000000003,9.755064,0.006006,-0.000187,0.003737,0.06188404405785702
1757945905.944522,-0.8267639963614133,1.2886487335255712,2.141663882982174,-0.4809295022120547,0.7489022419814645,-2.273353232027833,0.28691964250497026,3.595619040531704e-15,0.07394778,0.29623257000000003,9.755064,0.006006,-0.000187,0.003737,0.06188404405785702
1757945905.9646661,-0.8264370968168098,1.288120199789498,2.141663202467196,-0.4808818546049454,0.7488290604210052,-2.273353232027833,0.28691964250497026,3.168138758621981e-15,0.0751446,0.29593827,9.75671208,0.003835,0.000543,0.003777,0.061540300920868714
1757945905.9850693,-0.8264370968168098,1.288120199789498,2.141663202467196,-0.4808818546049454,0.7488290604210052,-2.273353232027833,0.28691964250497026,3.168138758621981e-15,0.0751446,0.29593827,9.75671208,0.003835,0.000543,0.003777,0.061540300920868714
1757945906.0054502,-0.8264370968168098,1.288120199789498,2.141663202467196,-0.4808818546049454,0.7488290604210052,-2.273353232027833,0.28691964250497026,3.168138758621981e-15,0.0751446,0.29593827,9.75671208,0.003835,0.000543,0.003777,0.061540300920868714
1757945906.0283139,-0.8385176368766485,1.306912723892602,2.141662527773436,-0.480301815991714,0.7479266177558285,-2.273353232027833,0.28691964250497026,2.766274536079544e-15,0.07065162,0.30266793,9.760008240000001,0.003107,-6.2e-05,0.004479,0.06455770203928854
1757945906.04941,-0.8335015723639725,1.2990922744607685,2.1416621832159786,-0.48017549757498257,0.747730382573793,-2.273353232027833,0.28691964250497026,2.5946025531204335e-15,0.056878380000000006,0.30402171,9.76554108,0.005602,-0.000621,0.00362,0.062428837927846634
1757945906.0767784,-0.8383141168012395,1.3065770147839844,2.14166184040514,-0.47998333832898027,0.7474316513701542,-2.273353232027833,0.28691964250497026,2.4291867325715593e-15,0.0663156,0.31270356000000005,9.749227050000002,0.005226,-0.00084,0.003557,0.06415086378726433
1757945906.0908334,-0.8282143880889099,1.290831366935174,2.1416611405394974,-0.47989703685983387,0.7472983361278035,-2.273353232027833,0.28691964250497026,2.1437892549962105e-15,0.06780672,0.30221667,9.755211150000001,0.002708,0.002421,0.003395,0.06048449150389435
1757945906.1142552,-0.8318538052401515,1.2964896770013963,2.1416607883204115,-0.4798861241202294,0.7472819358803058,-2.273353232027833,0.28691964250497026,2.012747428908832e-15,0.07275096,0.30161826,9.77092677,0.001168,0.001109,0.003467,0.06219643389564552
1757945906.1348648,-0.8270515403281699,1.2890026800688559,2.141660431592963,-0.47995165948381857,0.7473845797224413,-2.273353232027833,0.28691964250497026,1.8934013114289794e-15,0.07753824,0.32347494000000004,9.7408395,0.004915,0.002061,0.004004,0.060579996448835174
1757945906.1550686,-0.8329012281291578,1.2981030425897928,2.141660075042328,-0.4799605284628272,0.747398984486981,-2.273353232027833,0.28691964250497026,1.7766751828365884e-15,0.0666099,0.31060422000000004,9.756564930000001,0.00272,0.004134,0.005165,0.06297682294642482
1757945906.1756546,-0.8290496181053162,1.2920965840861491,2.141659714700414,-0.48002567020428416,0.7475010049943863,-2.273353232027833,0.28691964250497026,1.6698562889483261e-15,0.07244685000000001,0.29024847,9.78335604,0.006118,0.00086,0.004584,0.061498100374460574
1757945906.1966164,-0.8321119304395451,1.296856628190181,2.14165935345026,-0.4800567380332051,0.7475499573571159,-2.273353232027833,0.28691964250497026,1.5674193002604376e-15,0.08816247,0.30641535000000003,9.767493270000001,0.001818,0.002444,0.002996,0.0627239880705861
1757945906.2169454,-0.8275965633650145,1.2898167492829595,2.1416589887667348,-0.48014934254721714,0.7476947319451485,-2.273353232027833,0.28691964250497026,1.474010857278589e-15,0.08816247,0.30641535000000003,9.767493270000001,0.001818,0.002444,0.002996,0.06106329589668187
1757945906.2373772,-0.8338728554158166,1.2995818265940078,2.141658624293415,-0.48015773399733575,0.7477083533598315,-2.273353232027833,0.28691964250497026,1.3825181786044914e-15,0.06511878,0.30506157,9.75731049,0.006146,-0.001223,0.003552,0.06346970767758128
1757945906.2627692,-0.8278820232175219,1.2902362697380123,2.1416578877384094,-0.48032341961604247,0.7479674769569142,-2.273353232027833,0.28691964250497026,1.2216985866384686e-15,0.06900354,0.31285071000000003,9.77826465,0.004538,4e-05,0.002868,0.06128339515983515
1757945906.2836313,-0.8270540686701942,1.2889388372379575,2.1416575170328684,-0.4804345020135486,0.7481410286815482,-2.273353232027833,0.28691964250497026,1.1489707126248825e-15,0.07139718,0.30192237,9.76733631,0.003036,-0.000279,0.003807,0.06119033383043718
1757945906.3040242,-0.8270540686701942,1.2889388372379575,2.1416575170328684,-0.4804345020135486,0.7481410286815482,-2.273353232027833,0.28691964250497026,1.1489707126248825e-15,0.07139718,0.30192237,9.76733631,0.003036,-0.000279,0.003807,0.06119033383043718
1757945906.3243182,-0.8287498313287106,1.2915634547477166,2.1416567737262504,-0.4805185035067455,0.7482729247796802,-2.273353232027833,0.28691964250497026,1.0127578539109833e-15,0.07125003,0.3122523,9.79053696,0.004251,0.000666,0.004312,0.061615300704226335
1757945906.345002,-0.8287498313287106,1.2915634547477166,2.1416567737262504,-0.4805185035067455,0.7482729247796802,-2.273353232027833,0.28691964250497026,1.0127578539109833e-15,0.07125003,0.3122523,9.79053696,0.004251,0.000666,0.004312,0.061615300704226335
1757945906.3659835,-0.8293194447595743,1.2924347453075804,2.141656027529012,-0.4805537152077979,0.748328820584626,-2.273353232027833,0.28691964250497026,8.924527294290539e-16,0.08203122,0.30611124,9.748922940000002,0.003308,0.002329,0.004602,0.06160156642396718
1757945906.386815,-0.8293194447595743,1.2924347453075804,2.141656027529012,-0.4805537152077979,0.748328820584626,-2.273353232027833,0.28691964250497026,8.924527294290539e-16,0.08203122,0.30611124,9.748922940000002,0.003308,0.002329,0.004602,0.06160156642396718
1757945906.4075828,-0.8298478048110589,1.2932421215921788,2.141655279801178,-0.48055860480499135,0.7483375008284479,-2.273353232027833,0.28691964250497026,7.863696890149818e-16,0.0606258,0.31749084,9.759409830000001,0.001206,0.002554,0.003974,0.06162263287811025
1757945906.427981,-0.8317695370831523,1.2962271187977017,2.1416549054545584,-0.4805719917697357,0.748358894580725,-2.273353232027833,0.28691964250497026,7.383265722072875e-16,0.06811083000000001,0.30775932,9.75850731,0.005092,0.002021,0.004238,0.062424196048979856
1757945906.4485123,-0.8286573009134127,1.2913731932735988,2.1416545304265764,-0.48063010184023536,0.7484499389778599,-2.273353232027833,0.28691964250497026,6.941122670546106e-16,0.08203122,0.30416886,9.768690090000002,0.001717,0.00124,0.002117,0.06130579103436605
1757945906.469019,-0.8290915558788914,1.2920420322527664,2.1416541551630317,-0.4806898357747455,0.7485435221473543,-2.273353232027833,0.28691964250497026,6.523816671042559e-16,0.07244685000000001,0.31390038,9.75176784,0.004717,0.001724,0.005207,0.061644677761097784
1757945906.4895895,-0.8291020770761676,1.2920511008946827,2.1416537795801833,-0.48075205503550344,0.7486409760349225,-2.273353232027833,0.28691964250497026,6.131266582043815e-16,0.08667135000000001,0.3122523,9.78574968,0.003816,0.000965,0.005477,0.06174796911384055
1757945906.5098655,-0.829528457004898,1.2927078323675723,2.141653403763452,-0.4808083795547763,0.7487292466777822,-2.273353232027833,0.28691964250497026,5.761112390753184e-16,0.06017454,0.31194819,9.76972995,0.000948,0.003004,0.002952,0.061962424250781516
1757945906.5301857,-0.8294053404271284,1.292508949274139,2.1416530277792702,-0.4808642524892166,0.7488168094637555,-2.273353232027833,0.28691964250497026,5.413468824384147e-16,0.07170129,0.30206952000000004,9.76883724,0.005773,-0.001545,0.002933,0.06193588930101218
1757945906.5509586,-0.8324479187810252,1.2972398431940069,2.1416526519439962,-0.4808681281283072,0.7488233849692569,-2.273353232027833,0.28691964250497026,5.080509485762187e-16,0.06856209,0.30775932,9.77751909,0.001627,0.001411,0.002876,0.06299481527406511
1757945906.5712879,-0.8298537293237088,1.2931930713870434,2.1416522762127324,-0.4809040959258924,0.7488799338523,-2.273353232027833,0.28691964250497026,4.77344905129501e-16,0.09026181000000001,0.31060422000000004,9.763451550000001,0.002695,0.001162,0.004732,0.06189772767072132
1757945906.5938568,-0.8362436767028504,1.303136731714878,2.1416519011787143,-0.480826281003552,0.7487592714529009,-2.273353232027833,0.28691964250497026,4.473444985929863e-16,0.06706116000000001,0.3034233,9.780962400000002,0.003998,-0.000628,0.00319,0.06411250242133891
1757945906.6204047,-0.832543211100228,1.2973673504735972,2.141651526689037,-0.4808025932007581,0.7487229018534329,-2.273353232027833,0.28691964250497026,4.199482294844501e-16,0.07364367000000001,0.31120263000000004,9.771829290000001,0.004165,-0.000356,0.005615,0.06241207994761917
1757945906.640327,-0.830343863905854,1.293928909496705,2.14165077965436,-0.4808360517370512,0.7487760808191272,-2.273353232027833,0.28691964250497026,3.707909655084679e-16,0.07933347,0.31134978,9.78185511,0.003469,0.001549,0.00267,0.06174893975793744
1757945906.6609132,-0.8308526449477857,1.2947145360221715,2.1416504070012365,-0.48085334567375126,0.7488035590812053,-2.273353232027833,0.28691964250497026,3.4832486568340575e-16,0.07035732,0.30821058,9.775871010000001,0.002406,0.001885,0.003858,0.06200614134820635
1757945906.681539,-0.8308401264556273,1.2946884444760998,2.1416500349023417,-0.4808727661283623,0.7488343473646141,-2.273353232027833,0.28691964250497026,3.2722281239233247e-16,0.06751242,0.2951829,9.77960862,0.004428,0.000389,0.005604,0.06201980760940163
1757945906.701855,-0.8308401264556273,1.2946884444760998,2.1416500349023417,-0.4808727661283623,0.7488343473646141,-2.273353232027833,0.28691964250497026,3.2722281239233247e-16,0.06751242,0.2951829,9.77960862,0.004428,0.000389,0.005604,0.06201980760940163
1757945906.7227976,-0.8323269011091544,1.2969906668819233,2.141649293082228,-0.48075607250086627,0.7486536602000371,-2.273353232027833,0.28691964250497026,2.8792229704713915e-16,0.07693983,0.30910329000000003,9.77692068,0.004591,0.000264,0.001981,0.06205644715785829
1757945906.7435791,-0.8312878543484471,1.2953662180107886,2.1416489237365823,-0.4807593185737867,0.7486592453590628,-2.273353232027833,0.28691964250497026,2.7050780719270923e-16,0.07065162,0.29398608000000004,9.783807300000001,0.002939,0.000117,0.003299,0.061738065378728335
1757945906.7641392,-0.8313430906525966,1.2954458988485595,2.1416485553003195,-0.48076941965303555,0.748675513121333,-2.273353232027833,0.28691964250497026,2.541380020287378e-16,0.06706116000000001,0.30551283,9.7692885,0.001765,0.002404,0.003981,0.061854361062549185
1757945906.7845545,-0.8313430906525966,1.2954458988485595,2.1416485553003195,-0.48076941965303555,0.748675513121333,-2.273353232027833,0.28691964250497026,2.541380020287378e-16,0.06706116000000001,0.30551283,9.7692885,0.001765,0.002404,0.003981,0.061854361062549185
1757945906.8048537,-0.8334335548883223,1.2986887318596474,2.14164782129569,-0.4806302512693709,0.7484598205342766,-2.273353232027833,0.28691964250497026,2.235591219486061e-16,0.07634142000000001,0.30955455000000004,9.76554108,0.001384,0.002139,0.004579,0.06216051948325338
1757945906.82568,-0.8319257759229859,1.2963345985024555,2.1416474562426595,-0.4806295075205057,0.7484591876672856,-2.273353232027833,0.28691964250497026,2.1004172020101097e-16,0.07648857,0.30746502000000003,9.77287896,0.004248,0.000644,0.003999,0.06166741105820409
1757945906.8461483,-0.8319403182328771,1.29635115781065,2.141647092262298,-0.4806386199919416,0.7484739116504284,-2.273353232027833,0.28691964250497026,1.9733680884768366e-16,0.08053028999999999,0.30866184,9.775723860000001,0.00485,0.002429,0.004608,0.061794387224552605
1757945906.8664415,-0.8328543407818997,1.2977684896826354,2.1416467292206356,-0.4806409319735713,0.7484780453311062,-2.273353232027833,0.28691964250497026,1.8532979253991307e-16,0.08023599000000001,0.3125466,9.7610481,0.003062,0.000706,0.00339,0.06218993894342087
1757945906.8868415,-0.832663594915776,1.2974654840256319,2.1416463672081854,-0.48064900320885284,0.7484911437150759,-2.273353232027833,0.28691964250497026,1.740705257723598e-16,0.07454619,0.29922462000000005,9.771682140000001,0.005075,0.000178,0.005171,0.06211292834174796
1757945906.9109323,-0.8376547114061562,1.3052319751076997,2.141646005956506,-0.4805720527239032,0.7483718208851438,-2.273353232027833,0.28691964250497026,1.6317094889599089e-16,0.07184844,0.31180104000000003,9.7692885,0.001457,0.002496,0.003661,0.06381773399431247
1757945906.9318266,-0.8327744084420033,1.2976262634730362,2.1416456464065483,-0.48057034514957,0.7483696702938212,-2.273353232027833,0.28691964250497026,1.5328377370927472e-16,0.0754389,0.31314501,9.751169430000001,0.003448,0.001387,0.002449,0.06178298354149764
1757945906.956078,-0.8402284792050875,1.3092283125226032,2.1416452877388377,-0.48044180474890136,0.74816999120616,-2.273353232027833,0.28691964250497026,1.4356528240470153e-16,0.07409493,0.29997999,9.780511140000002,0.004463,0.001822,0.003998,0.0644227467920067
1757945906.9767497,-0.8352841246937589,1.3015229485704158,2.141644931041636,-0.480396089321587,0.7480992952925348,-2.273353232027833,0.28691964250497026,1.3476647030414455e-16,0.07993188000000001,0.30551283,9.759851280000001,0.001783,0.001559,0.00348,0.06225759775482423
1757945907.0030696,-0.8345270392786951,1.3003326250115093,2.1416442224020376,-0.48025349547974877,0.7478782311593779,-2.273353232027833,0.28691964250497026,1.1862054314118892e-16,0.07139718,0.30716091,9.77003406,0.002191,0.002553,0.003441,0.061715791875161005
1757945907.0240655,-0.8331244388575924,1.2981428451642203,2.141643870700907,-0.48026071819545146,0.7478899909846232,-2.273353232027833,0.28691964250497026,1.11475480890469e-16,0.06301944000000001,0.31344912,9.755662410000001,0.00394,0.000368,0.005792,0.0613835828086972
1757945907.0442147,-0.8333707694308007,1.298520930791696,2.141643520258146,-0.4802798344500824,0.7479202804587879,-2.273353232027833,0.28691964250497026,1.0474446440504714e-16,0.06975891000000001,0.31015296,9.77871591,0.004037,0.001458,0.003778,0.06167290156884919
1757945907.0644486,-0.8336341131873634,1.2989255651879899,2.1416431709576313,-0.48030502750817616,0.7479600322730694,-2.273353232027833,0.28691964250497026,9.840555866869294e-17,0.063765,0.30761217,9.77317326,0.001664,0.003069,0.003345,0.06188739348155157
1757945907.0853736,-0.8337162812014705,1.299048116492462,2.141642822800594,-0.48033486576050605,0.7480070130191064,-2.273353232027833,0.28691964250497026,9.244500087898392e-17,0.07215255000000001,0.2980278,9.755064,0.004659,-0.000134,0.003135,0.06198235345803399
1757945907.112066,-0.8395482501183374,1.308124640752197,2.141642475167366,-0.48026648144634393,0.7479010103793199,-2.273353232027833,0.28691964250497026,8.664123037856487e-17,0.08172711,0.30761217,9.7781175,0.003226,0.001304,0.004445,0.06401015744733275
1757945907.1321936,-0.8345421848652302,1.3003235780930675,2.1416421296909602,-0.4802737005509904,0.7479127395668862,-2.273353232027833,0.28691964250497026,8.138155110475386e-17,0.07844076,0.2948886,9.79712928,0.001623,0.001637,0.003773,0.06189952408807213
1757945907.1529183,-0.8346404671765515,1.3004713770995247,2.14164178569429,-0.48028643806439525,0.7479330681146175,-2.273353232027833,0.28691964250497026,7.643749356842885e-17,0.08592579,0.29309337,9.77032836,0.005044,0.002104,0.003352,0.062021737270985866
1757945907.173486,-0.8355038842840957,1.3018107420263787,2.141641443016976,-0.4802904020728383,0.7479397332539691,-2.273353232027833,0.28691964250497026,7.176872729718998e-17,0.07634142000000001,0.32153256,9.76628664,0.002084,0.001741,0.004772,0.062370482132577
1757945907.1975563,-0.842603696080255,1.312861851792822,2.1416411009934295,-0.4801614877054439,0.7477394416519297,-2.273353232027833,0.28691964250497026,6.719568996093085e-17,0.08667135000000001,0.30072555,9.79233219,0.002822,-0.000843,0.003107,0.06475266232563445
1757945907.2195923,-0.8342575000029027,1.2998544301325827,2.1416404242209586,-0.4801290862213015,0.7476899250302075,-2.273353232027833,0.28691964250497026,5.926278920841139e-17,0.08248248000000001,0.30042144,9.77751909,0.001315,0.000822,0.003955,0.06134873613959937
1757945907.240494,-0.8347491382281671,1.300615039161393,2.141640088435622,-0.4801485398579922,0.7477207075833799,-2.273353232027833,0.28691964250497026,5.567802132074196e-17,0.08337519,0.30177522,9.78560253,0.006705,-0.000888,0.004014,0.06174504800745192
1757945907.260884,-0.8346901541270054,1.300518230955709,2.1416397540962286,-0.48017755462526085,0.7477663811145997,-2.273353232027833,0.28691964250497026,5.230942920255759e-17,0.06825798,0.31554846000000003,9.77437008,0.000705,0.002081,0.00371,0.061845721434773106
1757945907.2812312,-0.8346901541270054,1.300518230955709,2.1416397540962286,-0.48017755462526085,0.7477663811145997,-2.273353232027833,0.28691964250497026,5.230942920255759e-17,0.06825798,0.31554846000000003,9.77437008,0.000705,0.002081,0.00371,0.061845721434773106
1757945907.3063302,-0.8378746861217429,1.3054676015974296,2.1416390886019414,-0.4800639726552985,0.7475904332005839,-2.273353232027833,0.28691964250497026,4.599467181839827e-17,0.07693983,0.30686661000000004,9.76254903,0.003115,0.001303,0.001935,0.06258615316190744
1757945907.3264842,-0.8350065701241334,1.3009963484554732,2.1416387591802764,-0.48008221724687117,0.7476193129745466,-2.273353232027833,0.28691964250497026,4.3217432373847154e-17,0.0663156,0.30147111000000004,9.7692885,0.001972,0.002271,0.004229,0.061557966313130215
1757945907.346969,-0.8354208278491024,1.3016366919885445,2.1416384312697545,-0.4801056261944676,0.7476562420565244,-2.273353232027833,0.28691964250497026,4.05990358843725e-17,0.08397360000000001,0.31644117000000005,9.78261048,0.003268,0.000414,0.00384,0.061877504185366985
1757945907.3669734,-0.8359896950820351,1.3025178499402474,2.1416381047605606,-0.4801266785187095,0.7476895001186468,-2.273353232027833,0.28691964250497026,3.812946437460113e-17,0.07005321,0.30042144,9.764491410000002,0.00112,0.001327,0.004126,0.062165485915345334
1757945907.387728,-0.8355495627654781,1.301827765554938,2.1416377798201767,-0.48015688111228805,0.7477370042048296,-2.273353232027833,0.28691964250497026,3.581630920731059e-17,0.07409493,0.30790647,9.76809168,0.00414,0.001921,0.006054,0.062036143015914355
1757945907.4086506,-0.8356379817042301,1.3019608262750313,2.141637456349647,-0.4801883252575807,0.7477864382974551,-2.273353232027833,0.28691964250497026,3.3641669389372847e-17,0.07768539,0.30686661000000004,9.78141366,0.004579,-0.000106,0.00442,0.062112868340009626
1757945907.4292357,-0.8360632302709454,1.3026184676060384,2.141637134304019,-0.4802141738671207,0.7478271537089467,-2.273353232027833,0.28691964250497026,3.159329952720587e-17,0.08217837000000001,0.30955455000000004,9.77632227,0.00143,0.002459,0.005844,0.06228437985035212
1757945907.4501421,-0.8359448511628086,1.302429574252664,2.141636813825272,-0.4802409303203853,0.7478692781907803,-2.273353232027833,0.28691964250497026,2.967124403809652e-17,0.063765,0.30371760000000003,9.77392863,0.00534,-0.00093,0.005919,0.06223009630013457
1757945907.470251,-0.8363067533143939,1.3029886552949181,2.1416364948539464,-0.4802612709086268,0.7479014069888444,-2.273353232027833,0.28691964250497026,2.7862132133491423e-17,0.08308089000000002,0.32048288999999996,9.77452704,0.002762,0.000487,0.004381,0.06235265250549008
1757945907.4912772,-0.8359144694819551,1.3023733020799475,2.141636177570404,-0.48028602562467787,0.7479404065117405,-2.273353232027833,0.28691964250497026,2.6167861261087525e-17,0.07244685000000001,0.30132396,9.79338186,0.00423,0.001211,0.004621,0.06218943594343023
1757945907.5122142,-0.8369889731622956,1.30404218822031,2.141635861712146,-0.4802930721989039,0.7479518250356866,-2.273353232027833,0.28691964250497026,2.456603960184515e-17,0.07199559,0.30565998000000005,9.77422293,0.004579,0.001252,0.003426,0.06256546636563032
1757945907.5324235,-0.8367110147242963,1.3036049530082867,2.141635547603599,-0.4803014141127993,0.7479652568530054,-2.273353232027833,0.28691964250497026,2.3065787237538993e-17,0.07050447,0.30221667,9.784405710000001,0.002248,0.001558,0.003676,0.06239628047016582
1757945907.552686,-0.8372391702757154,1.3044231049555743,2.141635235115401,-0.4802998294697458,0.7479632269367146,-2.273353232027833,0.28691964250497026,2.165313907270661e-17,0.08337519,0.31404753,9.780815250000002,0.004587,-0.000897,0.00421,0.06254451436834686
1757945907.5735373,-0.8367351426850169,1.303633897666337,2.1416349244774846,-0.48030448910182244,0.7479709191270205,-2.273353232027833,0.28691964250497026,2.0331997984075925e-17,0.08457201,0.29637972,9.75895857,0.003876,-0.00053,0.003612,0.06230823885993483
1757945907.6001062,-0.8369417257204629,1.3039471407220617,2.141634308373521,-0.4803104373323767,0.7479810494311998,-2.273353232027833,0.28691964250497026,1.7925749603456784e-17,0.08712261,0.31165389,9.75805605,0.002638,-6.7e-05,0.003808,0.06235541885983359
1757945907.620506,-0.8369417257204629,1.3039471407220617,2.141634308373521,-0.4803104373323767,0.7479810494311998,-2.273353232027833,0.28691964250497026,1.7925749603456784e-17,0.08712261,0.31165389,9.75805605,0.002638,-6.7e-05,0.003808,0.06235541885983359
1757945907.6442387,-0.8481438988256903,1.3213879233154646,2.141634001043121,-0.48008040016901743,0.7476232034147297,-2.273353232027833,0.28691964250497026,1.6756352266547638e-17,0.07244685000000001,0.30446316,9.76568823,0.002346,0.002506,0.004283,0.06611127716502721
1757945907.6642776,-0.8388172453333055,1.3068553703803956,2.1416333960828773,-0.47988210153605354,0.7473151972125234,-2.273353232027833,0.28691964250497026,1.474024976672817e-17,0.08023599000000001,0.30955455000000004,9.77032836,0.002578,0.000839,0.004204,0.06186394227272414
1757945907.685021,-0.8372298325507594,1.3043792450869571,2.1416330974756335,-0.47986604194354127,0.747290610280909,-2.273353232027833,0.28691964250497026,1.3848220635359173e-17,0.08053028999999999,0.30806343,9.75042387,0.002904,0.003091,0.003208,0.061482222199670124
1757945907.7055202,-0.8372298325507594,1.3043792450869571,2.1416330974756335,-0.47986604194354127,0.747290610280909,-2.273353232027833,0.28691964250497026,1.3848220635359173e-17,0.08053028999999999,0.30806343,9.75042387,0.002904,0.003091,0.003208,0.061482222199670124
1757945907.725826,-0.8377356011053445,1.3051588348084138,2.14163250482547,-0.47976819231828943,0.7471390766409886,-2.273353232027833,0.28691964250497026,1.2193815914329862e-17,0.08067744,0.3097017,9.780511140000002,0.001621,0.003692,0.003715,0.061632808864502765
1757945907.746548,-0.8370787139376584,1.3041319185288858,2.1416322117494246,-0.4797860426832647,0.7471673030256344,-2.273353232027833,0.28691964250497026,1.1457295076267292e-17,0.07454619,0.30132396,9.76224492,0.005096,0.00077,0.004605,0.06159758321745244
1757945907.767195,-0.8374411075135231,1.304692356791443,2.141631920194161,-0.4798116625119474,0.7472076297765942,-2.273353232027833,0.28691964250497026,1.0762994450982008e-17,0.07454619,0.32048288999999996,9.7781175,0.003447,0.002795,0.002503,0.061903297870529644
1757945907.787665,-0.8372951426413964,1.3044611695243442,2.1416316302037206,-0.47984695906409935,0.7472630223654907,-2.273353232027833,0.28691964250497026,1.0110926882668035e-17,0.06691401,0.31449879,9.77751909,0.002441,0.001764,0.004533,0.06195317012667413
1757945907.8081794,-0.8371434977186687,1.304221173703242,2.1416313417585187,-0.47988953930200906,0.74732975313112,-2.273353232027833,0.28691964250497026,9.49854219823684e-18,0.0751446,0.29893032,9.76404996,0.005201,-0.00019,0.003903,0.06198194652741208
1757945907.8290226,-0.8372188462897174,1.3043347096900573,2.1416310548085207,-0.4799340684469633,0.7473995137404488,-2.273353232027833,0.28691964250497026,8.922605657957921e-18,0.07364367000000001,0.31374342,9.77018121,0.002219,0.002815,0.002461,0.06207629314799237
1757945907.8500812,-0.837317933200861,1.304485248841913,2.141630769365956,-0.4799779909352884,0.7474683241188543,-2.273353232027833,0.28691964250497026,8.380981555545743e-18,0.07978473,0.29967588,9.780815250000002,0.004403,0.000201,0.002378,0.062153691932126755
1757945907.8708174,-0.8380762252739014,1.3056623995088497,2.1416304853234394,-0.48000937553941714,0.7475176029983894,-2.273353232027833,0.28691964250497026,7.869648757095469e-18,0.06436341000000001,0.29683098,9.76254903,0.004843,0.003886,0.003205,0.06243820002411374
1757945907.8912523,-0.8379794455843507,1.3055079842071937,2.1416302029271703,-0.4800388938942084,0.7475639700901109,-2.273353232027833,0.28691964250497026,7.389855581123663e-18,0.07963758,0.31629402,9.775419750000001,0.001983,0.004046,0.004676,0.062367597042790615
1757945907.912216,-0.8384371240307452,1.306217058787014,2.1416299220950705,-0.4800584295656448,0.7475947865873714,-2.273353232027833,0.28691964250497026,6.938065702123856e-18,0.07634142000000001,0.30072555,9.767189160000001,0.00556,0.000483,0.003734,0.06250576777833292
1757945907.9333339,-0.8378970616621129,1.3053723876304844,2.1416296430768487,-0.4800831566368765,0.7476336846990026,-2.273353232027833,0.28691964250497026,6.515444322851283e-18,0.07110288000000001,0.29818476,9.779167170000001,0.003102,0.001477,0.003821,0.06227344341836411
1757945907.953383,-0.8380764883776651,1.3056482097672362,2.1416293657143406,-0.48010381445949435,0.7476662436333806,-2.273353232027833,0.28691964250497026,6.118119163393941e-18,0.07110288000000001,0.29818476,9.779167170000001,0.003102,0.001477,0.003821,0.062340646278843295
1757945907.9798791,-0.838310216458054,1.3060050940568824,2.1416288160050794,-0.4801307921508621,0.7477090246371362,-2.273353232027833,0.28691964250497026,5.3936772911240416e-18,0.08427771,0.31344912,9.796079610000001,0.001902,0.002875,0.006236,0.06238061009939658
1757945908.0005193,-0.8381763570608813,1.3057931333555897,2.1416285437716915,-0.4801444444125204,0.7477306662910022,-2.273353232027833,0.28691964250497026,5.064745769146597e-18,0.08007903000000001,0.30012714,9.78529842,0.005527,0.000814,0.003281,0.062317455486014486
1757945908.0214932,-0.8382979297271944,1.3059789896472895,2.1416282732308014,-0.48015539583707656,0.7477480998383894,-2.273353232027833,0.28691964250497026,4.75567709854484e-18,0.08277678,0.30701375999999997,9.790988220000001,0.002242,0.00171,0.005499,0.06235556118481356
1757945908.0425222,-0.8383628209523885,1.3060766073895655,2.141628004396238,-0.48016434977127104,0.7477624203137307,-2.273353232027833,0.28691964250497026,4.465404432258149e-18,0.08786817,0.30701375999999997,9.759851280000001,0.003568,0.001672,0.004083,0.06236516838591101
1757945908.0630174,-0.8392050502440975,1.3073848070385579,2.1416277371124313,-0.4801585987210392,0.7477538370765249,-2.273353232027833,0.28691964250497026,4.191488160208682e-18,0.0751446,0.30701375999999997,9.78589683,0.004783,0.000323,0.003895,0.0626393514163634
