timestamp,x,y,theta,vx,vy,bias_accel_x,bias_accel_y,bias_angular_velocity,accel_x,accel_y,accel_z,gyro_x,gyro_y,gyro_z,cov_trace
1756986642.1449273,0.0,0.0,0.0,0.0,0.0,-0.09221173615384616,-0.16018392976331364,0.004480096646942802,-0.09445068,-0.16151184,-9.81464013,0.003047,-0.00068,0.003477,3.13
1756986642.1801298,0.0,0.0,0.0,0.0,0.0,-0.09221173615384616,-0.16018392976331364,0.004480096646942802,-0.09265545000000001,-0.1591182,-9.813139200000002,0.0033,-0.000744,0.003817,3.1332125430986655
1756986642.201402,-0.014294611215792948,0.0014825961096825453,0.9195714393760275,-0.4511890828383402,0.051192277888594526,-0.09221173615384616,-0.16018392976331364,0.00010892061940000249,-0.08801532000000001,-0.15418377,-9.81538569,0.003881,-0.001263,0.005376,0.5904754545163833
1756986642.2216866,-0.010633858233469809,0.0013272638357433616,1.1139567432743016,-0.24600522467044345,0.03422245836697289,-0.09221173615384616,-0.16018392976331364,7.302575136517459e-05,-0.09325386000000001,-0.16226721000000002,-9.818377739999999,0.003692,-0.001642,0.003847,0.41365757372953577
1756986642.2436779,-0.014715645867804463,0.004978612176358931,1.2526417457749623,-0.2653903147200086,0.09666459937371488,-0.09221173615384616,-0.16018392976331364,5.475812818444054e-05,-0.08906499000000001,-0.16645608,-9.81718092,0.00312,0.001126,0.00415,0.337262740484802
1756986642.2655256,-0.015828852734010055,0.01029232012825074,1.4388439958912995,-0.3057068948299455,0.21781743005860238,-0.09221173615384616,-0.16018392976331364,3.6180875539707625e-05,-0.08996751000000001,-0.16106057999999998,-9.81718092,0.003207,-3e-05,0.002597,0.24793491092450792
1756986642.2865648,-0.01993249761998646,0.015407010718192313,1.5052910265651267,-0.3248877263141184,0.272544115820028,-0.09221173615384616,-0.16018392976331364,3.0791518971919506e-05,-0.09909081000000002,-0.16256151,-9.82152675,0.004021,-0.000758,0.003896,0.22231722722227118
1756986642.307276,-0.024494150274393865,0.0214090125592516,1.5604982783382795,-0.3431082246031959,0.3233072151280924,-0.09221173615384616,-0.16018392976331364,2.6704057445178287e-05,-0.09265545000000001,-0.14804271000000002,-9.81643536,0.003096,-0.001335,0.005852,0.20277973354480947
1756986642.3275547,-0.021692713605524237,0.028047634793078587,1.639109291900402,-0.25414119902735677,0.3733745047679263,-0.09221173615384616,-0.16018392976331364,2.349358572360882e-05,-0.10014048,-0.17169462000000002,-9.82122264,0.003165,0.000163,0.003058,0.17942111483218778
1756986642.3481877,-0.021967981846283787,0.03541299667247716,1.695698719442266,-0.2244176570089446,0.42176937534205533,-0.09221173615384616,-0.16018392976331364,2.0898186702422005e-05,-0.09609875999999999,-0.16466085000000003,-9.820182780000001,0.003419,0.000319,0.003995,0.16407529599528636
1756986642.368331,-0.023618234815702976,0.04341909554730855,1.7407416320664293,-0.21617174145987048,0.466195806644487,-0.09221173615384616,-0.16018392976331364,1.875060441475021e-05,-0.09744273000000002,-0.16106057999999998,-9.813139200000002,0.003006,4.4e-05,0.005327,0.15264808127428361
1756986642.3892014,-0.02592645497346826,0.05155589117944793,1.7781191448841227,-0.21817187275063227,0.5063483377086476,-0.09221173615384616,-0.16018392976331364,1.6942430147684315e-05,-0.0865242,-0.16121754000000002,-9.81164808,0.003344,-0.000761,0.005686,0.14350492669938078
1756986642.4095147,-0.028686026662055837,0.0597442573619321,1.809833451017032,-0.2257055010434555,0.5423932027999596,-0.09221173615384616,-0.16018392976331364,1.5397939677501523e-05,-0.09220419,-0.16600482,-9.80895033,0.004149,-0.000868,0.004429,0.1359422389382573
1756986642.4299555,-0.032111591569388746,0.06873139462343429,1.8371487929646264,-0.2363941293586062,0.5748590331617536,-0.09221173615384616,-0.16018392976331364,1.4058761875923511e-05,-0.09939492000000001,-0.15313410000000002,-9.832602240000002,0.001982,-0.000505,0.003415,0.12977738603790095
1756986642.4505744,-0.035922596208233945,0.07797823201999692,1.8609279539295498,-0.24893124675614808,0.604052170188304,-0.09221173615384616,-0.16018392976331364,1.288503165685351e-05,-0.09100737,-0.15522363,-9.81928026,0.003813,0.000219,0.003842,0.12452880241040408
1756986642.4715648,-0.03987912864036704,0.08698579013157826,1.8818000640310428,-0.2624639901216074,0.630183480272644,-0.09221173615384616,-0.16018392976331364,1.1848539387852335e-05,-0.08951625,-0.15282999000000003,-9.83350476,0.002231,-0.000357,0.003993,0.11988055988851773
1756986642.4925349,-0.0440811284707186,0.09606568641999882,1.9002536594732549,-0.2764201741959405,0.6535652845101632,-0.09221173615384616,-0.16018392976331364,1.092612976191282e-05,-0.09295956000000001,-0.15866694,-9.81449298,0.002464,0.000342,0.004731,0.11581375703529334
1756986642.5126908,-0.048569019167545434,0.10536451071601054,1.9166740174064234,-0.2904218211260072,0.6745073661904814,-0.09221173615384616,-0.16018392976331364,1.0099249780949367e-05,-0.08352234000000001,-0.16495515000000002,-9.815238540000001,0.002372,-0.001179,0.005879,0.11226347229236197
1756986642.5336604,-0.053492138543520286,0.11525735870063318,1.9313732625989957,-0.30423375350301857,0.6933259252532811,-0.09221173615384616,-0.16018392976331364,9.352294893769075e-06,-0.10403505,-0.14684589,-9.819133110000001,0.001817,-0.000361,0.003854,0.10923115872976355
1756986642.5536783,-0.057995290341550335,0.12384045015505132,1.944581461665793,-0.31759293593554183,0.7100593959838856,-0.09221173615384616,-0.16018392976331364,8.677599612745539e-06,-0.09640287000000002,-0.15897105,-9.83709522,0.002852,3e-05,0.004848,0.10618023162615717
1756986642.5736861,-0.06296713043671005,0.13317254179393762,1.9565110688863072,-0.3304232351471323,0.7250295176584833,-0.09221173615384616,-0.16018392976331364,8.063617904918715e-06,-0.09580446000000001,-0.16570071,-9.823469130000001,0.002997,-0.000444,0.005734,0.10362426715868438
1756986642.5937293,-0.06809697952852078,0.1425751947829488,1.9673303651047505,-0.34265053932896294,0.7384192542439457,-0.09221173615384616,-0.16018392976331364,7.502626198786617e-06,-0.08248248000000001,-0.16555356,-9.81808344,0.003436,-0.001024,0.00395,0.1013171837629534
1756986642.614721,-0.07326050959350772,0.15180975803283434,1.9771779179624316,-0.35422113190182924,0.7503731121623441,-0.09221173615384616,-0.16018392976331364,6.98865946330794e-06,-0.09744273000000002,-0.15717582000000002,-9.822272309999999,0.003748,0.000968,0.004929,0.09917382347959819
1756986642.6353974,-0.0784383446050043,0.16086922073121226,1.9861706968074007,-0.3651089258871592,0.7610275110966995,-0.09221173615384616,-0.16018392976331364,6.516644338740113e-06,-0.09220419,-0.16076628,-9.818377739999999,0.003912,-0.000823,0.003997,0.09717825264846935
1756986642.6561348,-0.08406063367148535,0.17066629988935172,1.9944151435618123,-0.37534363234327284,0.7705599531812964,-0.09221173615384616,-0.16018392976331364,6.080820666492958e-06,-0.0868185,-0.16406244,-9.80790066,0.004402,0.000778,0.005318,0.09551241986166031
1756986642.6765356,-0.08929080510797284,0.1794957630894378,2.0019894333750505,-0.3848943764553425,0.7790239532656569,-0.09221173615384616,-0.16018392976331364,5.6789710110084646e-06,-0.10223982000000001,-0.16435674000000003,-9.815689800000001,0.001034,-0.000195,0.00367,0.09375750937099644
1756986642.6967685,-0.09597926407951762,0.1911091645401613,2.008986591154427,-0.3938745073332557,0.7866509388059675,-0.09221173615384616,-0.16018392976331364,5.303927758525878e-06,-0.09879651,-0.16076628,-9.83724237,0.0028,-0.000885,0.004932,0.09273724163677612
1756986642.716887,-0.10031391234285265,0.19789905539041605,2.0154370993715496,-0.4021438317945994,0.7933098518954633,-0.09221173615384616,-0.16018392976331364,4.959608985446305e-06,-0.09430353000000001,-0.16406244,-9.81014715,0.003217,-0.000588,0.00427,0.0907226462446457
1756986642.7370708,-0.10605815473744236,0.20738778108335226,2.0214154746784248,-0.4098365911942828,0.7992244902686908,-0.09221173615384616,-0.16018392976331364,4.639485194419394e-06,-0.09475478999999999,-0.15956946,-9.815689800000001,0.00287,0.000358,0.005043,0.0895066951167072
1756986642.7580318,-0.11147656008910031,0.21614758248876617,2.026965650197817,-0.4169644094969502,0.8044435627019874,-0.09221173615384616,-0.16018392976331364,4.342243925368471e-06,-0.0782838,-0.15358536,-9.82646118,0.00302,-0.000742,0.004288,0.08821279081740051
1756986642.782303,-0.12359073257469583,0.237617335910092,2.032197992671609,-0.4238052793733765,0.809308150689819,-0.09221173615384616,-0.16018392976331364,4.05347178771916e-06,-0.09205704,-0.16765290000000002,-9.81643536,0.004345,0.000494,0.004049,0.0895673218059945
1756986642.8061113,-0.12811800966727632,0.2427408375690643,2.0415307611611295,-0.43552153987211956,0.8168072696859496,-0.09221173615384616,-0.16018392976331364,3.555301265266149e-06,-0.08502327,-0.16361118,-9.813590460000002,0.003694,0.000502,0.005498,0.08434901987300439
1756986642.8266299,-0.13359519090169633,0.2513620735950212,2.045740721002815,-0.440700949404237,0.8198301805500703,-0.09221173615384616,-0.16018392976331364,3.3330924250153184e-06,-0.09504909,-0.15672456,-9.83006145,0.002495,-0.000839,0.004424,0.08352572137374759
1756986642.8466737,-0.13924132560007924,0.260252005354533,2.049691773359715,-0.4455028701637332,0.8224667896301971,-0.09221173615384616,-0.16018392976331364,3.125273966146241e-06,-0.09789399,-0.15806852999999998,-9.82497006,0.002891,-0.001795,0.005626,0.0827771261889434
1756986642.8668342,-0.14492649397255372,0.26917114963382377,2.053406822704675,-0.44995178441756495,0.8247514153462019,-0.09221173615384616,-0.16018392976331364,2.9307721191601796e-06,-0.09071307,-0.15986376000000002,-9.80909748,0.002028,0.00066,0.004755,0.08205199690820084
1756986642.8874373,-0.15090874267228435,0.2785927898760389,2.0569081233178537,-0.4540753234132362,0.8267180686264711,-0.09221173615384616,-0.16018392976331364,2.7483140198189137e-06,-0.08607294000000001,-0.16330707,-9.807155100000001,0.003157,-0.000559,0.003485,0.08145065687648567
1756986642.9079053,-0.15625598920516154,0.28682519774947624,2.0602087493094077,-0.45788518249228566,0.8283875852302099,-0.09221173615384616,-0.16018392976331364,2.5778395280647895e-06,-0.09400923,-0.16165899,-9.81987867,0.00452,-0.001027,0.003152,0.08062133385856521
1756986642.92883,-0.16182027619599665,0.2954256193116897,2.063326632389682,-0.46140905280543176,0.8297921625880657,-0.09221173615384616,-0.16018392976331364,2.4182259042368706e-06,-0.09789399,-0.15866694,-9.8242245,0.004395,-0.001587,0.005672,0.07993061805378568
1756986642.9497032,-0.16780079554793292,0.3047461294743555,2.066278955888709,-0.46467174849093423,0.8309577019961484,-0.09221173615384616,-0.16018392976331364,2.2683260455287e-06,-0.10028763,-0.16330707,-9.813590460000002,0.00507,0.000515,0.00389,0.07942257732553676
1756986642.9707675,-0.17336088481942072,0.3132895510341245,2.069075740678299,-0.46768769953786676,0.8319045309622215,-0.09221173615384616,-0.16018392976331364,2.1279281940887127e-06,-0.08935929000000001,-0.15897105,-9.82032993,0.003286,-0.001048,0.004337,0.07876938181041335
1756986642.9912307,-0.17865680568982734,0.3213469067983195,2.071727228319693,-0.47047500167015527,0.8326557001763351,-0.09221173615384616,-0.16018392976331364,1.9965954851497593e-06,-0.09040896000000001,-0.16106057999999998,-9.832602240000002,0.003433,-0.000217,0.004413,0.07806720000111517
1756986643.0121734,-0.18416123271622367,0.32975935027645614,2.074245490021074,-0.4730534017562255,0.8332314631586796,-0.09221173615384616,-0.16018392976331364,1.873507591286161e-06,-0.09849240000000001,-0.16181595000000001,-9.81418887,0.003024,-0.000374,0.003433,0.07749584380178864
1756986643.0324028,-0.18972045612456365,0.3382537419750753,2.0766404748392393,-0.4754390889159482,0.8336489828102387,-0.09221173615384616,-0.16018392976331364,1.758069644242974e-06,-0.10882233000000001,-0.16555356,-9.820182780000001,0.003949,-0.00017,0.005302,0.07697637667195471
1756986643.0533152,-0.1952491967010295,0.3466814481879215,2.0789207203924818,-0.4776465744632965,0.833924069453444,-0.09221173615384616,-0.16018392976331364,1.6498010496329305e-06,-0.09864936,-0.15208443,-9.82241946,0.001825,0.000221,0.003441,0.07647294617283021
1756986643.0736465,-0.20088356250879152,0.3552810909960758,2.081094672173448,-0.47968924504739685,0.834069749035351,-0.09221173615384616,-0.16018392976331364,1.5481668191459614e-06,-0.09999333,-0.16256151,-9.823626090000001,0.003784,0.000993,0.004595,0.07603342953654686
1756986643.094524,-0.20609069328784252,0.36312898204957456,2.0831673981080954,-0.4815799895759053,0.8341036647734522,-0.09221173615384616,-0.16018392976331364,1.4529994097720904e-06,-0.08457201,-0.16406244,-9.82511721,0.004359,-0.000722,0.004106,0.07546704432196111
1756986643.1151063,-0.21147318681844357,0.37127423333037196,2.0851465149579678,-0.4833307232085327,0.8340362283756766,-0.09221173615384616,-0.16018392976331364,1.3637463132070067e-06,-0.08786817,-0.15282999000000003,-9.815689800000001,0.003103,-0.001135,0.004826,0.07501097894605167
1756986643.1352644,-0.21693347979075311,0.3795464374240795,2.087038446258375,-0.48495176467968093,0.8338768904366669,-0.09221173615384616,-0.16018392976331364,1.2799773915068004e-06,-0.0751446,-0.16211025,-9.81494424,0.004881,-0.001232,0.003849,0.07460985194743437
1756986643.1554348,-0.2223011002544442,0.3876528258756985,2.0888482943156363,-0.48645301578972294,0.8336363131650871,-0.09221173615384616,-0.16018392976331364,1.2013871068670166e-06,-0.09205704,-0.15701886,-9.81299205,0.003414,0.00044,0.003121,0.07419769643935673
1756986643.1766727,-0.2276924793788954,0.3957944753482493,2.090581253157814,-0.48784323336425467,0.8333226389305856,-0.09221173615384616,-0.16018392976331364,1.1276278485298973e-06,-0.08786817,-0.15088761,-9.81329616,0.005443,-0.001,0.005065,0.07381990460236168
1756986643.1967719,-0.23323385001064567,0.4041864260907526,2.0922425777944422,-0.48912954287115934,0.832940848432445,-0.09221173615384616,-0.16018392976331364,1.0583282127306866e-06,-0.08786817,-0.15956946,-9.81628821,0.00253,0.001157,0.004842,0.07351416342070191
1756986643.2171204,-0.23846501596276082,0.4120456847575249,2.0938352621283887,-0.4903211412338745,0.8325030525723419,-0.09221173615384616,-0.16018392976331364,9.933396475388227e-07,-0.09355797,-0.16930098,-9.8216739,0.003535,0.001691,0.004276,0.07311428812615542
1756986643.237998,-0.24372141171912157,0.4199451574227026,2.095363432835315,-0.4914248750542685,0.8320151870485708,-0.09221173615384616,-0.16018392976331364,9.323666123239747e-07,-0.09475478999999999,-0.16330707,-9.819731520000001,0.003523,-0.000539,0.003774,0.07275655979167914
1756986643.258491,-0.2490512855528537,0.42796621176058003,2.0968310519089366,-0.4924464751796087,0.831481417945509,-0.09221173615384616,-0.16018392976331364,8.751225988500376e-07,-0.10896948000000001,-0.164808,-9.818377739999999,0.002249,-0.000257,0.00512,0.07244947993542702
1756986643.2791965,-0.25421128223889244,0.43569839316098297,2.0982409013521446,-0.4933929825343241,0.830909925436799,-0.09221173615384616,-0.16018392976331364,8.214271251359086e-07,-0.09609875999999999,-0.15492933000000003,-9.81509139,0.003782,7.4e-05,0.003285,0.0721034802425486
1756986643.305832,-0.2693106188217718,0.4601261280144092,2.0995967621605747,-0.49426820406053273,0.8303016802704402,-0.09221173615384616,-0.16018392976331364,7.709946986012361e-07,-0.10628154000000001,-0.16720164,-9.81554265,0.00368,0.000732,0.003867,0.07608456605953476
1756986643.3258247,-0.2697392947821002,0.45896928070386983,2.1021554953241566,-0.495830033900172,0.8290051267750704,-0.09221173615384616,-0.16018392976331364,6.793174868960172e-07,-0.0928026,-0.16854560999999998,-9.837840779999999,0.002659,-0.000107,0.004672,0.07122233305097372
1756986643.3466778,-0.274770513434562,0.46648309386996906,2.1033636483524436,-0.49652533401762805,0.8283238094144502,-0.09221173615384616,-0.16018392976331364,6.376805646732511e-07,-0.09295956000000001,-0.16136469,-9.82212516,0.002185,-8.5e-05,0.003336,0.07092586818425944
1756986643.3670604,-0.2800376048506295,0.47438992354521753,2.1045281717671998,-0.4971665072499929,0.8276197643402156,-0.09221173615384616,-0.16018392976331364,5.985563026117269e-07,-0.09295956000000001,-0.17019369,-9.826912440000001,0.004058,-0.000503,0.005595,0.0707323515261993
1756986643.3880577,-0.28502155418830727,0.4818253049773046,2.105650403396969,-0.49775969830617217,0.8269013785545494,-0.09221173615384616,-0.16018392976331364,5.618544121466493e-07,-0.09864936,-0.15268284000000001,-9.813590460000002,0.004607,-0.000817,0.00445,0.07045015657925911
1756986643.4080915,-0.2900994279680027,0.4894172971277067,2.1067327135128693,-0.4983069739491312,0.8261686038602674,-0.09221173615384616,-0.16018392976331364,5.273966049366029e-07,-0.09236115,-0.16270866,-9.823027680000001,0.002816,-0.001259,0.00262,0.07022534150410908
1756986643.4281268,-0.29511423515374563,0.4969052700780283,2.1077768628930524,-0.49881175698834546,0.8254245476631782,-0.09221173615384616,-0.16018392976331364,4.950532001204356e-07,-0.09145863,-0.1591182,-9.81777933,0.003115,-0.00168,0.005641,0.06999490018037809
1756986643.4491448,-0.30003591612804614,0.5042402416788455,2.1087844337886725,-0.4992775979109796,0.8246727727440853,-0.09221173615384616,-0.16018392976331364,4.6470575726328515e-07,-0.10328949000000001,-0.15806852999999998,-9.81928026,0.002346,0.000889,0.005807,0.06975204619130058
1756986643.47018,-0.30501289943625165,0.5116677660850103,2.1097573007227695,-0.4997061674691944,0.8239132575498515,-0.09221173615384616,-0.16018392976331364,4.3621507234415636e-07,-0.09116433,-0.16825131000000002,-9.82406754,0.003502,0.000121,0.00511,0.06954955211353603
1756986643.491085,-0.3098216497612596,0.5188195034612046,2.1106966564431744,-0.5001014687695736,0.8231508448453076,-0.09221173615384616,-0.16018392976331364,4.094899920005557e-07,-0.09700128,-0.15492933000000003,-9.80086689,0.004238,-0.001502,0.0051,0.06930656312617556
1756986643.511351,-0.3159154420595123,0.528084418510235,2.1116070892659113,-0.500450103618825,0.8223565334387224,-0.09221173615384616,-0.16018392976331364,3.842245488094991e-07,-0.09176274,-0.16016787000000002,-9.83140542,0.002031,-0.000162,0.005618,0.06950787434714917
1756986643.5323832,-0.31967070388133406,0.5335083853742346,2.1124842904008885,-0.5007819991178482,0.8215860531966572,-0.09221173615384616,-0.16018392976331364,3.606868020524088e-07,-0.08712261,-0.17468667000000002,-9.81344331,0.00434,-3.5e-05,0.004442,0.06887505817660931
1756986643.5533607,-0.32445174557928286,0.540620096630568,2.1133322579358893,-0.5010864455003868,0.820815903840955,-0.09221173615384616,-0.16018392976331364,3.385968018137477e-07,-0.09580446000000001,-0.1704978,-9.81449298,0.00322,-0.001533,0.004973,0.06869540276273624
1756986643.5735998,-0.3292971906330964,0.5478392284407211,2.1141524195532444,-0.5013639774310609,0.8200447751182653,-0.09221173615384616,-0.16018392976331364,3.1785325779122455e-07,-0.09550035000000001,-0.1502892,-9.84053853,0.002477,-0.000119,0.005078,0.0685493892168959
1756986643.5944233,-0.3340348308265252,0.5548840628743037,2.114945741126883,-0.5016171118581837,0.8192752957539925,-0.09221173615384616,-0.16018392976331364,2.983840939118667e-07,-0.09595161,-0.16615197,-9.80131815,0.003121,0.000394,0.005276,0.0683752307202859
1756986643.615411,-0.33874556324597266,0.561887266847473,2.11571331874939,-0.5018472827553699,0.818508136390735,-0.09221173615384616,-0.16018392976331364,2.8011024083994615e-07,-0.08741691000000001,-0.1651023,-9.808351920000002,0.002382,0.000201,0.004732,0.06820739367591523
1756986643.6364202,-0.343452714962459,0.5688869684806732,2.116456234735395,-0.5020555254662057,0.8177433343625827,-0.09221173615384616,-0.16018392976331364,2.6295532470689966e-07,-0.09340101,-0.15732297,-9.82511721,0.002235,0.000476,0.004328,0.06805328553806096
1756986643.6573951,-0.34833171618169584,0.5761684459659677,2.117175844255314,-0.5022405470446134,0.8169767241274719,-0.09221173615384616,-0.16018392976331364,2.46831917298264e-07,-0.09879651,-0.15402681000000001,-9.81389457,0.0025,-0.000381,0.002063,0.06796818704137794
1756986643.6778173,-0.35278929145694016,0.5827669048010093,2.1178722877617684,-0.5024085763916689,0.8162181804378384,-0.09221173615384616,-0.16018392976331364,2.3171565173543012e-07,-0.08576883000000002,-0.16270866,-9.82841337,0.003323,-9.6e-05,0.002744,0.06774504503857887
1756986643.7055368,-0.36180430842968275,0.5961353039051515,2.1192003779160355,-0.502690174480766,0.8147125171566181,-0.09221173615384616,-0.16018392976331364,2.0420108841308843e-07,-0.10148445,-0.16016787000000002,-9.8302086,0.004402,-0.000929,0.003778,0.06738922078181137
1756986643.7265851,-0.366400775844662,0.6029679696424171,2.119833301591311,-0.5028084585626021,0.8139711029752379,-0.09221173615384616,-0.16018392976331364,1.9170682577899445e-07,-0.09609875999999999,-0.17214588000000003,-9.82272357,0.003076,-0.00057,0.002383,0.0672868165388606
1756986643.7475584,-0.3709218843224122,0.6096813048046467,2.120446706227405,-0.5029114257117479,0.8132349108635829,-0.09221173615384616,-0.16018392976331364,1.799765444248005e-07,-0.09071307,-0.15822549000000002,-9.815689800000001,0.002895,0.00014,0.004719,0.06716490339115527
1756986643.7686114,-0.37546925735739534,0.6164397963447295,2.1210413950091684,-0.5029991384738108,0.8125028017196048,-0.09221173615384616,-0.16018392976331364,1.6896004467030918e-07,-0.09011466,-0.15762708,-9.83095416,0.002998,0.000654,0.003896,0.0670624487069288
1756986643.789685,-0.3799104158204446,0.623029514510762,2.1216179164386073,-0.5030733821888638,0.8117767961561777,-0.09221173615384616,-0.16018392976331364,1.5861916842225164e-07,-0.09564750000000001,-0.16151184,-9.81119682,0.00236,-0.000135,0.005025,0.0669331730155295
1756986643.8102567,-0.3845874685709221,0.6300023283148867,2.122177327733459,-0.5031313343592327,0.8110507428200922,-0.09221173615384616,-0.16018392976331364,1.4889723343252362e-07,-0.08412075,-0.17708031000000002,-9.81509139,0.002627,-0.00048,0.005111,0.0668954110041881
1756986643.8307343,-0.38878130343673983,0.6361991375965108,2.1227195303667212,-0.5031798304803544,0.8103357407038738,-0.09221173615384616,-0.16018392976331364,1.3978353163522555e-07,-0.09909081000000002,-0.16794720000000002,-9.819133110000001,0.002778,0.000892,0.003245,0.06669598348927827
1756986643.8508747,-0.3931888691262857,0.6427433809971996,2.123245509066617,-0.5032163008919066,0.8096261932142136,-0.09221173615384616,-0.16018392976331364,1.3122595563226338e-07,-0.08217837000000001,-0.16076628,-9.82601973,0.003186,-0.000207,0.003505,0.0665986450020582
1756986643.8717494,-0.39757026081591185,0.649248395680052,2.123755828074408,-0.503241305335907,0.8089221216826258,-0.09221173615384616,-0.16018392976331364,1.2319068301073132e-07,-0.08786817,-0.16151184,-9.8213796,0.00253,-0.002009,0.004923,0.0665022740409658
1756986643.8918622,-0.40194075826901643,0.6557387771477368,2.1242510476973315,-0.5032551741517615,0.8082231898477509,-0.09221173615384616,-0.16018392976331364,1.1564526194655325e-07,-0.09504909,-0.15133887000000001,-9.82796211,0.004529,0.000477,0.002557,0.06641257882717803
1756986643.912741,-0.4061953756673631,0.6620460874519368,2.1247315630276713,-0.5032596613372256,0.8075315910488292,-0.09221173615384616,-0.16018392976331364,1.0856373278234045e-07,-0.09490194,-0.16181595000000001,-9.82152675,0.004213,-0.000437,0.004551,0.06629476832630428
1756986643.9328704,-0.411549837992594,0.6701195052827017,2.125199327714168,-0.5032394651366331,0.8068198917459547,-0.09221173615384616,-0.16018392976331364,1.018734608124388e-07,-0.09624591,-0.16645608,-9.82676529,0.003062,-0.00177,0.004562,0.06655078288683182
1756986643.952961,-0.4147110554925961,0.6746799840477291,2.125651934726683,-0.5032255747623364,0.8061411591442469,-0.09221173615384616,-0.16018392976331364,9.563841536730989e-08,-0.08726976,-0.15777423000000002,-9.820182780000001,0.003709,0.000997,0.00397,0.06602951950553475
1756986643.972994,-0.41893294536987025,0.6809440730504037,2.1260913487443016,-0.5032035033757116,0.805469433688711,-0.09221173615384616,-0.16018392976331364,8.978396914360031e-08,-0.08741691000000001,-0.16525926000000002,-9.82257642,0.002479,-0.001804,0.004214,0.06596390687054055
1756986643.9939485,-0.42308410846032435,0.687098077601199,2.1265179538422094,-0.5031741350601189,0.8048054962843794,-0.09221173615384616,-0.16018392976331364,8.428837333716693e-08,-0.09145863,-0.15253569,-9.819133110000001,0.001899,-0.000447,0.003632,0.065879495315345
1756986644.0140777,-0.4272409428116046,0.6932642897890574,2.1269322124975654,-0.5031373010591392,0.8041483488990439,-0.09221173615384616,-0.16018392976331364,7.912850178781838e-08,-0.1041822,-0.16136469,-9.81793629,0.00368,-3e-05,0.004211,0.06580666443859458
1756986644.0348697,-0.4313403358673184,0.6993418418122623,2.1273344934170897,-0.5030937018044503,0.803498523666933,-0.09221173615384616,-0.16018392976331364,7.428474002471783e-08,-0.10059174,-0.16031502,-9.82107549,0.002607,-0.000955,0.001202,0.0657232076293079
1756986644.0555077,-0.4313403358673184,0.6993418418122623,2.1273344934170897,-0.5030937018044503,0.803498523666933,-0.09221173615384616,-0.16018392976331364,7.428474002471783e-08,-0.09894366,-0.17258733,-9.82766781,0.004051,-0.000997,0.002581,0.0657232076293079
1756986644.076174,-0.44254950976192065,0.7163041412705982,2.1281165080319244,-0.5028066538034432,0.8019135158915376,-0.09221173615384616,-0.16018392976331364,6.520199716257602e-08,-0.08726976,-0.16002072,-9.81688662,0.00429,-0.00072,0.00501,0.0659453294004613
1756986644.0964603,-0.44338770729305915,0.7171900280902761,2.1284842122861356,-0.5027484038277734,0.8012918222735177,-0.09221173615384616,-0.16018392976331364,6.123734688844536e-08,-0.10014048,-0.1651023,-9.81509139,0.003502,-0.000418,0.005337,0.06479475543475997
1756986644.1166105,-0.44743405876483816,0.7231956007560171,2.12884156021543,-0.5026882901313301,0.8006832902642951,-0.09221173615384616,-0.16018392976331364,5.7509485702692354e-08,-0.09520605,-0.15672456,-9.82616688,0.003208,7e-05,0.004295,0.06493467595495647
1756986644.1375468,-0.45135617815076845,0.7290064738794481,2.1291887710178203,-0.5026263538150816,0.8000873735180533,-0.09221173615384616,-0.16018392976331364,5.400695173881814e-08,-0.10448631000000001,-0.16600482,-9.82078119,0.004376,-0.000209,0.005194,0.06498112522883308
1756986644.1578288,-0.455361894189529,0.7349535458519459,2.129526266617102,-0.5025601687134255,0.7994994240878659,-0.09221173615384616,-0.16018392976331364,5.071424054437312e-08,-0.0868185,-0.15567489,-9.81583695,0.003518,-0.000684,0.004536,0.0650293508384506
1756986644.178175,-0.4593647799074441,0.7408991031853324,2.1298543619711605,-0.5024886884276155,0.798917197012443,-0.09221173615384616,-0.16018392976331364,4.7618884113112416e-08,-0.10119015,-0.16390548000000002,-9.831258270000001,0.003824,0.000146,0.004042,0.06505507210455265
1756986644.1985638,-0.4631436034522723,0.7464916164934821,2.1301731595911804,-0.5024142163451714,0.7983441198829528,-0.09221173615384616,-0.16018392976331364,4.4712935201927547e-08,-0.09160578000000001,-0.14818986,-9.818829,0.003525,0.00096,0.002192,0.06499443047602985
1756986644.220594,-0.47719593605116173,0.768403126920746,2.1304832039025587,-0.5023325326434505,0.7977726685625681,-0.09221173615384616,-0.16018392976331364,4.1980145960008705e-08,-0.09325386000000001,-0.17274429,-9.813590460000002,0.003757,-0.000338,0.004289,0.06931883289628504
1756986644.246109,-0.47492130639191826,0.7639886004698251,2.1310776492944594,-0.5021535528323078,0.7966431315289586,-0.09221173615384616,-0.16018392976331364,3.7002054470531785e-08,-0.08726976,-0.1588239,-9.82661814,0.003836,0.0012,0.004012,0.06496803449742185
1756986644.2669852,-0.4784923732945093,0.7692641846401616,2.131362421202324,-0.502058813229793,0.7960885132432938,-0.09221173615384616,-0.16018392976331364,3.473989036999668e-08,-0.10432935000000002,-0.16091343000000002,-9.8245188,0.002276,7.2e-05,0.00573,0.06484418529637737
1756986644.2873976,-0.48249565239965275,0.7752281132099473,2.131639508169796,-0.5019558742340536,0.7955323234093162,-0.09221173615384616,-0.16018392976331364,3.261217625334625e-08,-0.08846658,-0.16315992,-9.813139200000002,0.003357,0.000652,0.006212,0.06488721872890937
1756986644.3078413,-0.4858961664190247,0.7802399719702552,2.131908677811971,-0.5018531012750489,0.7949881019247803,-0.09221173615384616,-0.16018392976331364,3.0618235941773287e-08,-0.08741691000000001,-0.14594337000000002,-9.82646118,0.003155,0.000447,0.005222,0.06472206918218357
1756986644.3281853,-0.49082415321509576,0.7876736061807533,2.1321713565050775,-0.5017279670986085,0.794418148441043,-0.09221173615384616,-0.16018392976331364,2.8732043166630706e-08,-0.09714843000000001,-0.15822549000000002,-9.81763218,0.004035,0.001201,0.004926,0.06509097834465613
1756986644.348528,-0.4931232709179116,0.7909482970943914,2.132425748851137,-0.5016186174924924,0.7938852986327459,-0.09221173615384616,-0.16018392976331364,2.6976856220572582e-08,-0.10807677000000002,-0.1591182,-9.823174830000001,0.002522,-0.000238,0.005007,0.06451985902497523
1756986644.3688803,-0.49685981785940714,0.7965018790491323,2.132673241295949,-0.5015047437249676,0.7933555757548658,-0.09221173615384616,-0.16018392976331364,2.5327224118412266e-08,-0.08157996,-0.17214588000000003,-9.8216739,0.003745,-0.000373,0.004512,0.06454751951587791
1756986644.3899186,-0.5004165823667376,0.8017740848065459,2.1329139226227323,-0.501388383895308,0.7928320073986491,-0.09221173615384616,-0.16018392976331364,2.3778437765833537e-08,-0.10238697000000001,-0.15986376000000002,-9.82631403,0.002752,-0.000388,0.004249,0.06450639454432291
1756986644.4116926,-0.5050975477999113,0.8089201589417432,2.133007069292775,-0.5011714299984789,0.7923354934759133,-0.09221173615384616,-0.16018392976331364,2.2314131940665686e-08,-0.10343664,-0.16226721000000002,-9.819584370000001,0.003354,-0.00037,0.004126,0.06494092952016785
1756986644.433912,-0.508720790496881,0.8142083767140668,2.133377242251375,-0.5011111956258242,0.7917412125824412,-0.09221173615384616,-0.16018392976331364,2.0940269885545514e-08,-0.08876088000000001,-0.17184177000000003,-9.828266220000001,0.002984,0.001336,0.004925,0.06475141359144512
1756986644.454232,-0.512345604615765,0.8195961090856806,2.133599479225518,-0.5009662629800339,0.791199618315269,-0.09221173615384616,-0.16018392976331364,1.9650654823768764e-08,-0.09100737,-0.15866694,-9.820025820000001,0.002823,-0.000976,0.005355,0.06469195261557012
1756986644.47466,-0.5158496625743598,0.8247960731425616,2.1338156330002285,-0.50081896084438,0.7906632300622441,-0.09221173615384616,-0.16018392976331364,1.844080612993176e-08,-0.0836793,-0.16315992,-9.81389457,0.00357,-0.00052,0.003223,0.06461020813039922
1756986644.495719,-0.5194048488991367,0.8300796809503764,2.1340259309395506,-0.5006686094269758,0.7901306558312671,-0.09221173615384616,-0.16018392976331364,1.7305192844704298e-08,-0.08712261,-0.16974243,-9.80805762,0.001708,-0.000668,0.003602,0.06456655806942849
1756986644.51573,-0.5220322849137159,0.8339027510059815,2.1342300056702435,-0.5005290716259284,0.7896242763285071,-0.09221173615384616,-0.16018392976331364,1.624488062587631e-08,-0.09939492000000001,-0.16002072,-9.79682517,0.00322,-0.001098,0.00439,0.06423101778864823
1756986644.536825,-0.5246925007888698,0.8377815503714627,2.134428118718966,-0.5003998945913372,0.789143041837457,-0.09221173615384616,-0.16018392976331364,1.5253718305357837e-08,-0.08217837000000001,-0.16061913,-9.82930608,0.002129,-0.000708,0.002878,0.06398065548396824
1756986644.5569186,-0.5282342012059384,0.8430537023337437,2.134620993416573,-0.5002679817462843,0.7886652738623857,-0.09221173615384616,-0.16018392976331364,1.4321584783818935e-08,-0.09968922,-0.15612615,-9.823626090000001,0.00265,-0.001072,0.003125,0.06407147318582218
1756986644.5771255,-0.5315921549426731,0.8480390116312148,2.134808681820836,-0.5001348629599595,0.788193221657799,-0.09221173615384616,-0.16018392976331364,1.3445998630578088e-08,-0.10358379000000001,-0.16211025,-9.81254079,0.004554,-0.00169,0.004424,0.06407779625967013
1756986644.5983074,-0.5348951503655714,0.8529406258615211,2.1349913147110726,-0.5000005967505765,0.7877267521919304,-0.09221173615384616,-0.16018392976331364,1.2623728742723537e-08,-0.10044459,-0.16839846000000003,-9.82542132,0.003911,-0.000178,0.005347,0.06406352697957507
1756986644.6185164,-0.5379307362540933,0.8574240328870469,2.1351689097234194,-0.49986852130913134,0.7872710730080864,-0.09221173615384616,-0.16018392976331364,1.1852655042519622e-08,-0.09190989000000001,-0.16420959000000002,-9.82466595,0.003212,-0.000664,0.003003,0.06396465986811632
1756986644.6393204,-0.5413096687353319,0.8624511118873187,2.135341809608571,-0.4997332024555127,0.7868171395088842,-0.09221173615384616,-0.16018392976331364,1.1127871063292048e-08,-0.09864936,-0.16330707,-9.82062423,0.003612,0.000471,0.005047,0.06400078559944739
1756986644.6602073,-0.5542911018587912,0.8825952739209197,2.1355101628061988,-0.49959363413474334,0.7863631241674969,-0.09221173615384616,-0.16018392976331364,1.044653859299285e-08,-0.09909081000000002,-0.16854560999999998,-9.82556847,0.003211,-8.4e-05,0.004641,0.06816837744025839
1756986644.6804798,-0.5576066164192588,0.8875236598858264,2.135673808556742,-0.4994582932104249,0.7859225716243811,-0.09221173615384616,-0.16018392976331364,9.808366928968307e-09,-0.10612458,-0.155979,-9.820477080000002,0.003573,0.000482,0.00339,0.06822516542512734
1756986644.7011538,-0.5611085845500325,0.8927481609968358,2.135833144177928,-0.49931980250279984,0.7854833365545105,-0.09221173615384616,-0.16018392976331364,9.208555631474372e-09,-0.09550035000000001,-0.15866694,-9.83200383,0.001875,0.000235,0.004422,0.06835208253761865
1756986644.7212012,-0.5642512437373951,0.8974101385555873,2.1359883802308985,-0.49917478030717444,0.7850397715410814,-0.09221173615384616,-0.16018392976331364,8.644203094639631e-09,-0.08427771,-0.16091343000000002,-9.815238540000001,0.002149,-1.3e-05,0.005739,0.06829874409186718
1756986644.7463362,-0.5604304715699029,0.8908575001632596,2.136286516209548,-0.49888007040732585,0.7841630993080815,-0.09221173615384616,-0.16018392976331364,7.617186992761522e-09,-0.07978473,-0.17513793000000002,-9.831258270000001,0.003382,-0.000149,0.002166,0.06388640220453799
1756986644.766443,-0.5635032004316112,0.8954221426844048,2.136429649817406,-0.4987308134419881,0.7837303477013595,-0.09221173615384616,-0.16018392976331364,7.150374878368914e-09,-0.09040896000000001,-0.15223158,-9.81059841,0.004268,-0.001935,0.003936,0.06385524495543846
1756986644.7867062,-0.5661915447278214,0.8993856648462718,2.1365688311043147,-0.49858573395674605,0.7833098636037593,-0.09221173615384616,-0.16018392976331364,6.71304999202731e-09,-0.09954207,-0.16810416,-9.81449298,0.003789,-0.001119,0.002914,0.06370765032288037
1756986644.8068752,-0.5692649413016979,0.9039569226715635,2.136704350112529,-0.4984390537037589,0.7828921737895413,-0.09221173615384616,-0.16018392976331364,6.3022185472468296e-09,-0.09640287000000002,-0.1588239,-9.83320065,0.003334,0.00052,0.00504,0.06372203565467402
1756986644.82767,-0.5720839263153948,0.9081313222187547,2.1368362144986097,-0.4982940595759062,0.7824824028135708,-0.09221173615384616,-0.16018392976331364,5.916834416368524e-09,-0.09131148000000001,-0.15747012000000002,-9.81254079,0.003538,0.000309,0.002029,0.06365098716134335
1756986644.8479493,-0.5752089621782336,0.9127889394967683,2.1369646588833877,-0.49814586720978504,0.7820725472372883,-0.09221173615384616,-0.16018392976331364,5.554564538633059e-09,-0.09490194,-0.16585766999999998,-9.81014715,0.003271,-0.000554,0.004618,0.0636987166611451
1756986644.8689191,-0.5780881645018929,0.9170632042916014,2.1370896878381416,-0.49799757654656496,0.7816674411497111,-0.09221173615384616,-0.16018392976331364,5.2145337611323135e-09,-0.09954207,-0.15792138000000003,-9.81344331,0.003442,4.5e-05,0.008306,0.06365729446145219
1756986644.889421,-0.5807299698799586,0.9209676092309033,2.1372113189831143,-0.49785251218824816,0.7812722756544676,-0.09221173615384616,-0.16018392976331364,4.8957665390181695e-09,-0.09205704,-0.15986376000000002,-9.81643536,0.004258,-0.000606,0.003668,0.06355009922944813
1756986644.9094179,-0.5851568186715128,0.9276751294038837,2.1373303032181266,-0.4976829133450812,0.7808424332065986,-0.09221173615384616,-0.16018392976331364,4.59365760273728e-09,-0.09400923,-0.17169462000000002,-9.819133110000001,0.003409,0.0007,0.005322,0.06405732646935629
1756986644.9297638,-0.5865553582494126,0.9296341606390398,2.1374456115783635,-0.49753405769741355,0.7804503122443601,-0.09221173615384616,-0.16018392976331364,4.3127858816042666e-09,-0.09550035000000001,-0.16839846000000003,-9.81418887,0.004,0.000466,0.002026,0.06345960470659633
1756986644.9499016,-0.5894601311880563,0.9339588904474834,2.1375579164551306,-0.4973845062721459,0.7800614609845965,-0.09221173615384616,-0.16018392976331364,4.048890982942822e-09,-0.08951625,-0.1704978,-9.823920390000001,0.002895,-0.000679,0.004451,0.06349904735802014
1756986644.9699051,-0.592261025531057,0.9381231983498179,2.1376672700163972,-0.4972350793215762,0.7796770516857752,-0.09221173615384616,-0.16018392976331364,3.801092304271435e-09,-0.08846658,-0.16136469,-9.83365191,0.00442,-0.000533,0.003832,0.06349617411489457
1756986644.9901323,-0.5951422878017759,0.9424159702616757,2.137773786209886,-0.4970840208491855,0.7792941515091163,-0.09221173615384616,-0.16018392976331364,3.568270278828274e-09,-0.09789399,-0.17408826000000002,-9.81404172,0.00414,0.001467,0.005399,0.06352276225242812
1756986645.0109127,-0.5977539572235121,0.946288598431228,2.1378774610336837,-0.4969348820985611,0.7789183153959461,-0.09221173615384616,-0.16018392976331364,3.34986457852499e-09,-0.10552617,-0.17109621000000003,-9.81014715,0.00176,-0.001101,0.004353,0.06345756225629595
1756986645.030949,-0.6004689679990106,0.9503257015722507,2.137978414987126,-0.4967858668911691,0.7785465607821441,-0.09221173615384616,-0.16018392976331364,3.1448026200571282e-09,-0.09071307,-0.15387966,-9.82631403,0.004215,0.000537,0.005199,0.06344458402831335
1756986645.051206,-0.603305020179559,0.9545548652380272,2.1380767655271615,-0.49663468325982824,0.7781751212779613,-0.09221173615384616,-0.16018392976331364,2.952106194261747e-09,-0.09984618,-0.17244018,-9.811500930000001,0.003392,0.000261,0.004802,0.06347782637748099
1756986645.0719662,-0.6057986607791371,0.9582499505574279,2.138172485408205,-0.4964860438168318,0.7778114054598035,-0.09221173615384616,-0.16018392976331364,2.771398243274597e-09,-0.09116433,-0.15942231,-9.803260530000001,0.003435,3.9e-05,0.004519,0.06339440349734077
1756986645.0924351,-0.6082031138927848,0.9618078435818502,2.138265631769375,-0.4963411951686436,0.7774572937301979,-0.09221173615384616,-0.16018392976331364,2.6019701014583847e-09,-0.09131148000000001,-0.15193728,-9.81733788,0.004658,-0.001076,0.005439,0.06330402611728765
1756986645.1127615,-0.6108916065290714,0.9658130421784537,2.1383563661893685,-0.4961956243622312,0.7771054927143156,-0.09221173615384616,-0.16018392976331364,2.442793389303959e-09,-0.10148445,-0.16839846000000003,-9.82556847,0.003627,-0.000604,0.004645,0.06333067606175292
1756986645.1336334,-0.6134473190795845,0.9696126258513176,2.138444721339951,-0.4960507024387488,0.7767580849712513,-0.09221173615384616,-0.16018392976331364,2.2933606252595306e-09,-0.08696565,-0.14969079000000002,-9.81418887,0.003495,-0.000554,0.005789,0.06331022008343534
1756986645.1540291,-0.61721011476489,0.9753042096285404,2.138531090057266,-0.49588709855629315,0.7763842393082946,-0.09221173615384616,-0.16018392976331364,2.1520486198287826e-09,-0.09160578000000001,-0.17109621000000003,-9.82856052,0.003308,-0.001239,0.005147,0.06369714198176632
1756986645.174897,-0.6185772923151024,0.9772475727954454,2.138614879328525,-0.49574071395572356,0.7760409477002066,-0.09221173615384616,-0.16018392976331364,2.0204328404135895e-09,-0.09595161,-0.16016787000000002,-9.818829,0.00374,-0.000347,0.005384,0.06321190369380629
1756986645.1950471,-0.6211740752738646,0.9811182925921957,2.1386965060706977,-0.4955941233852075,0.7757004347340867,-0.09221173615384616,-0.16018392976331364,1.89678278879668e-09,-0.09445068,-0.15792138000000003,-9.81643536,0.003017,0.000177,0.003931,0.06324913514376206
1756986645.216179,-0.6236146647397478,0.9847467898729865,2.1387759927022536,-0.49544899524298025,0.7753652519101086,-0.09221173615384616,-0.16018392976331364,1.7807206154986114e-09,-0.09684432000000001,-0.16315992,-9.831258270000001,0.003328,-0.000289,0.00552,0.06322832624707056
1756986645.236154,-0.6262250456335795,0.9886431916672295,2.1388534439157976,-0.4953022789806696,0.7750304682583308,-0.09221173615384616,-0.16018392976331364,1.6716522492669372e-09,-0.10148445,-0.15433092,-9.8068608,0.003371,-0.00051,0.005096,0.0632715792578895
1756986645.2567947,-0.6287196643596057,0.9923606083430531,2.1389288887367472,-0.4951551113788748,0.7746978063361937,-0.09221173615384616,-0.16018392976331364,1.569228804610554e-09,-0.08801532000000001,-0.15582204,-9.82272357,0.001056,-0.001669,0.005304,0.06327066840681622
1756986645.276998,-0.6309691680803428,0.995696759463747,2.139002328363599,-0.4950109079628377,0.7743726054508259,-0.09221173615384616,-0.16018392976331364,1.4731772689117092e-09,-0.09924777,-0.16076628,-9.820928340000002,0.002785,0.000546,0.004888,0.06319332177153203
1756986645.2975335,-0.6349437476506494,1.0017331880842466,2.1390742128942772,-0.4948421815816364,0.7740112314331241,-0.09221173615384616,-0.16018392976331364,1.3821487783578856e-09,-0.09190989000000001,-0.15866694,-9.81718092,0.003015,-0.000191,0.005416,0.06370925197948932
1756986645.3182034,-0.6358025559021089,1.0028983994759804,2.139143872971692,-0.4946963413998523,0.7736887267552733,-0.09221173615384616,-0.16018392976331364,1.2975751856826922e-09,-0.08471916,-0.16406244,-9.822272309999999,0.003106,-3.1e-05,0.003952,0.06308502049485967
1756986645.3384972,-0.6546718365938551,1.0324093307916922,2.139143872971692,-0.4946963413998523,0.7736887267552733,-0.09221173615384616,-0.16018392976331364,1.2975751856826922e-09,-0.08592579,-0.15942231,-9.823626090000001,0.004193,-0.000131,0.005598,0.071329277075146
1756986645.3594387,-0.6440916925987297,1.0155101721395168,2.139280319560438,-0.4941824779139812,0.7726997621581204,-0.09221173615384616,-0.16018392976331364,1.1385001914472918e-09,-0.09295956000000001,-0.15672456,-9.81868185,0.002678,-0.000344,0.005652,0.06365911023341758
1756986645.380047,-0.6522780829155982,1.0281380719452349,2.1393445992405304,-0.4940284211183103,0.772371761131935,-0.09221173615384616,-0.16018392976331364,1.0691226766277073e-09,-0.09684432000000001,-0.17543223,-9.81059841,0.003326,0.000204,0.004841,0.06649719589978034
1756986645.405133,-0.6468931270659571,1.0193852548929956,2.1394679425952265,-0.4937705556842073,0.7718023394018844,-0.09221173615384616,-0.16018392976331364,9.431765732464486e-10,-0.09684432000000001,-0.15732297,-9.80760636,0.003465,-0.001296,0.005354,0.0625984036387467
1756986645.4261632,-0.6490809328624815,1.0226418241594353,2.1395272336866125,-0.4936526643805051,0.7715383718290039,-0.09221173615384616,-0.16018392976331364,8.85818627524679e-10,-0.07753824,-0.16750575,-9.811795230000001,0.002619,-6.8e-05,0.004524,0.06270179769323875
1756986645.447152,-0.6513129442650311,1.0259694693747912,2.1395850027320877,-0.4935382060865043,0.7712819075267806,-0.09221173615384616,-0.16018392976331364,8.31895281627119e-10,-0.09744273000000002,-0.15792138000000003,-9.818829,0.003082,-0.000593,0.003971,0.06279233873506977
1756986645.4676924,-0.6513129442650311,1.0259694693747912,2.1395850027320877,-0.4935382060865043,0.7712819075267806,-0.09221173615384616,-0.16018392976331364,8.31895281627119e-10,-0.09744273000000002,-0.15792138000000003,-9.818829,0.003082,-0.000593,0.003971,0.06279233873506977
1756986645.4884093,-0.6564601603817997,1.03369714089653,2.1396972328214723,-0.4931972446624416,0.7705980674153656,-0.09221173615384616,-0.16018392976331364,7.318741651819622e-10,-0.08756406,-0.16600482,-9.82751085,0.003001,-0.000937,0.00413,0.0627219125196862
1756986645.5091481,-0.6574804655633982,1.03513741109061,2.1397505223667217,-0.4930869722298066,0.7703541966503883,-0.09221173615384616,-0.16018392976331364,6.874742881552172e-10,-0.09430353000000001,-0.16540641000000003,-9.81898596,0.002685,-0.002129,0.005855,0.06243864636430013
1756986645.5295477,-0.65974680908383,1.0385264009029191,2.1398024716733532,-0.49297958203148456,0.7701168010191247,-0.09221173615384616,-0.16018392976331364,6.456849305306112e-10,-0.09475478999999999,-0.16930098,-9.830502899999999,0.003059,0.001169,0.004197,0.06262756509541985
1756986645.54996,-0.6621152551574722,1.0420766768925818,2.139853131062864,-0.492870790709589,0.7698790358709173,-0.09221173615384616,-0.16018392976331364,6.063372618222477e-10,-0.09131148000000001,-0.16375833,-9.814787280000001,0.003376,0.00036,0.005881,0.06280272132775958
1756986645.5708687,-0.6651596610254181,1.046684389169481,2.139902640229793,-0.4927478812524241,0.7696207912638536,-0.09221173615384616,-0.16018392976331364,5.691498705819488e-10,-0.08861373,-0.17528507999999998,-9.80222067,0.003321,-0.000104,0.003786,0.06316364564994502
1756986645.591563,-0.6660099795442366,1.0478671746381603,2.1399506745776105,-0.49264206479420647,0.7693912362446681,-0.09221173615384616,-0.16018392976331364,5.34494780904549e-10,-0.09040896000000001,-0.15956946,-9.8333478,0.003423,-0.001942,0.004229,0.06271704516889316
1756986645.6116118,-0.6681282547060219,1.0510321584745732,2.1399974862533444,-0.49253574921230925,0.7691626086373584,-0.09221173615384616,-0.16018392976331364,5.019113350234439e-10,-0.09236115,-0.16136469,-9.81554265,0.003482,-0.002172,0.004092,0.06279785707049351
1756986645.6318238,-0.6701833824392894,1.054100297829635,2.140043098272667,-0.49242860772848746,0.768934342127862,-0.09221173615384616,-0.16018392976331364,4.712899109145889e-10,-0.09445068,-0.16286562,-9.81987867,0.002306,-0.001236,0.003549,0.06284057478998938
1756986645.6528172,-0.6722018662726251,1.0571129743167744,2.1400875379804063,-0.4923203403522946,0.7687059217439974,-0.09221173615384616,-0.16018392976331364,4.4251926213026925e-10,-0.10148445,-0.15837263999999998,-9.830502899999999,0.002684,-0.000185,0.006526,0.0628643828929113
1756986645.6738665,-0.6742083510062592,1.0601086516843434,2.1401308359484172,-0.4922105238584287,0.7684766422927807,-0.09221173615384616,-0.16018392976331364,4.154891433322955e-10,-0.10104300000000001,-0.15837263999999998,-9.820477080000002,0.002311,9.9e-05,0.004116,0.0628826937577821
1756986645.6938798,-0.6761290890845987,1.0629721844546123,2.140173011677838,-0.4921000187382374,0.7682478211024912,-0.09221173615384616,-0.16018392976331364,3.901068960465999e-10,-0.07589016,-0.15762708,-9.82122264,0.004328,-0.000793,0.004926,0.06287264261678355
1756986645.7139647,-0.678156389269664,1.0660037658445083,2.1402141112889144,-0.4919869258676544,0.76801643231267,-0.09221173615384616,-0.16018392976331364,3.6625463785100265e-10,-0.09100737,-0.15433092,-9.83379906,0.00375,-1e-06,0.004844,0.0629049821398483
1756986645.7349622,-0.6800438747823515,1.0688187696582359,2.140254145180366,-0.49187301384054827,0.7677852217572232,-0.09221173615384616,-0.16018392976331364,3.438595416813433e-10,-0.09968922,-0.15507648,-9.826912440000001,0.004362,-0.000132,0.004412,0.06288818780348146
1756986645.7556703,-0.6830468364695357,1.0733763934973921,2.140293287505699,-0.49174036445712543,0.767525971348268,-0.09221173615384616,-0.16018392976331364,3.2268974051931214e-10,-0.10269108,-0.15792138000000003,-9.81373761,0.002348,-0.000114,0.004262,0.06325258883411307
1756986645.7757127,-0.6836506339020615,1.0741911134805615,2.140331248521589,-0.491625494245931,0.7672960711489651,-0.09221173615384616,-0.16018392976331364,3.0298261883650503e-10,-0.09056592000000001,-0.16361118,-9.816141060000001,0.00438,-0.000353,0.002888,0.06274219087556593
1756986645.7960153,-0.685576151611658,1.077070427418738,2.140368238568236,-0.49151020200822765,0.7670668794127201,-0.09221173615384616,-0.16018392976331364,2.8446508628497786e-10,-0.10238697000000001,-0.16211025,-9.82197801,0.002864,-0.000622,0.003871,0.0627942355638477
1756986645.816828,-0.6877356710475411,1.0803164645221224,2.1404043116030333,-0.49139007378695393,0.7668314094855112,-0.09221173615384616,-0.16018392976331364,2.670411400520107e-10,-0.10193571,-0.17274429,-9.81269775,0.002849,0.000244,0.004542,0.06291485714519199
1756986645.8372357,-0.689381720363667,1.0827628021251023,2.1404394293544957,-0.4912722616093612,0.766600861419633,-0.09221173615384616,-0.16018392976331364,2.5070057443779e-10,-0.0811287,-0.15297714,-9.82676529,0.003084,-0.000386,0.004771,0.06284087883959269
1756986645.8573978,-0.6917262851465832,1.0863006064144327,2.140473700311369,-0.49114589252864144,0.766358120812303,-0.09221173615384616,-0.16018392976331364,2.353075567359564e-10,-0.09100737,-0.15612615,-9.81045126,0.003263,-0.000134,0.004736,0.06302203704281625
1756986645.8778834,-0.6929482501155664,1.0880883694703192,2.140507017055099,-0.4910277385075601,0.7661294985832586,-0.09221173615384616,-0.16018392976331364,2.20910616231309e-10,-0.0953532,-0.16390548000000002,-9.819427410000001,0.002979,0.000698,0.004234,0.06279288915904539
1756986645.899594,-0.7042210249767878,1.1055587357224668,2.1405394584315465,-0.4909121277889633,0.7659060602810268,-0.09221173615384616,-0.16018392976331364,2.074015731821329e-10,-0.09265545000000001,-0.15253569,-9.80925444,0.002526,-0.000574,0.005675,0.06698924737803322
1756986645.919903,-0.7061153147037964,1.1083977805563225,2.1405710400988918,-0.4908002001988723,0.7656895580098991,-0.09221173615384616,-0.16018392976331364,1.9473000248804866e-10,-0.07918631999999999,-0.16330707,-9.81494424,0.003294,0.000231,0.003189,0.06708704651965568
1756986645.944997,-0.6997149117772002,1.098186281624222,2.1406317994416106,-0.49057424946820105,0.7652565865536904,-0.09221173615384616,-0.16018392976331364,1.7163535125138065e-10,-0.09564750000000001,-0.15777423000000002,-9.81793629,0.002665,-0.00077,0.005283,0.06277495833309799
1756986645.9687884,-0.7032045566890142,1.1035188367077273,2.14066117996542,-0.4904325853723543,0.7649966851611832,-0.09221173615384616,-0.16018392976331364,1.6102094307387251e-10,-0.09490194,-0.17019369,-9.820477080000002,0.003686,0.000268,0.005347,0.0633778970428862
1756986645.9892783,-0.7030613382966059,1.10318630817577,2.1406896107612656,-0.4903180478044701,0.7647803661435781,-0.09221173615384616,-0.16018392976331364,1.5117910913047196e-10,-0.09071307,-0.16091343000000002,-9.822272309999999,0.003927,0.00046,0.003825,0.0626394621809058
1756986646.0097098,-0.7048721527674774,1.105903140404444,2.140717319324226,-0.49020329886943353,0.7645647434236617,-0.09221173615384616,-0.16018392976331364,1.4192758498402607e-10,-0.08622009,-0.16106057999999998,-9.822870720000001,0.00368,-0.000198,0.004257,0.06272931801882484
1756986646.0305557,-0.7064454700995185,1.1082509495024382,2.140744301831976,-0.4900909863472868,0.764353926713202,-0.09221173615384616,-0.16018392976331364,1.332442022911006e-10,-0.10208286000000001,-0.16750575,-9.82511721,0.002511,0.000941,0.004296,0.06272056012371478
1756986646.0515013,-0.7079429477724811,1.110481884229396,2.1407705717087726,-0.4899818814534037,0.7641490935933889,-0.09221173615384616,-0.16018392976331364,1.2509665765641925e-10,-0.09325386000000001,-0.17214588000000003,-9.820182780000001,0.004479,-0.000189,0.003929,0.06269094847183095
1756986646.071603,-0.7096003476925523,1.1129635892698555,2.1407961633997115,-0.48987315580298885,0.7639457809907715,-0.09221173615384616,-0.16018392976331364,1.174430600981608e-10,-0.09086022,-0.16959528000000001,-9.811343970000001,0.0036,-0.000602,0.004753,0.06272444523990081
1756986646.0922332,-0.711036073840031,1.115100965570524,2.140821075825203,-0.4897676293475878,0.7637483824455811,-0.09221173615384616,-0.16018392976331364,1.1026298645262692e-10,-0.09370512,-0.1562733,-9.822272309999999,0.002109,-0.000793,0.005168,0.06267920700592271
1756986646.1127996,-0.7128441715022398,1.1178203244998937,2.1408453599136,-0.4896592617936274,0.7635474071263455,-0.09221173615384616,-0.16018392976331364,1.035105540249562e-10,-0.08921214,-0.15567489,-9.81119682,0.001809,-0.000296,0.003492,0.06277260148459551
1756986646.1328387,-0.714395582891684,1.120140717686791,2.1408690099610457,-0.4895511910215322,0.7633477484262229,-0.09221173615384616,-0.16018392976331364,9.717118878477045e-11,-0.09640287000000002,-0.16361118,-9.815689800000001,0.003863,0.00045,0.004843,0.06276310278926091
1756986646.1534636,-0.7157610227165111,1.1221724493310818,2.1408920284625825,-0.4894461783067167,0.7631537137991865,-0.09221173615384616,-0.16018392976331364,9.122575125358908e-11,-0.09026181000000001,-0.15732297,-9.827363700000001,0.001711,-0.000749,0.004106,0.06269821788775032
1756986646.1736376,-0.71740772641193,1.1246440036000112,2.1409144558693303,-0.4893398614787584,0.7629584492410942,-0.09221173615384616,-0.16018392976331364,8.563889650598147e-11,-0.09475478999999999,-0.16435674000000003,-9.82856052,0.00401,0.000774,0.003489,0.0627466073374558
1756986646.1936553,-0.7189138691575856,1.126897654813767,2.1409362966498877,-0.4892338824112445,0.7627645041347869,-0.09221173615384616,-0.16018392976331364,8.039371340112149e-11,-0.09805095000000001,-0.15897105,-9.80820477,0.003259,0.000401,0.004119,0.06274115625590325
1756986646.2137084,-0.7204093216350282,1.1291358829763043,2.1409575660116618,-0.4891282142233442,0.7625718169942046,-0.09221173615384616,-0.16018392976331364,7.546921027423486e-11,-0.09475478999999999,-0.16346403,-9.80565417,0.003932,-0.001843,0.004238,0.06273802777114731
1756986646.2341576,-0.7215732886684111,1.130858581990253,2.140978255306048,-0.48902789325187535,0.7623882551579579,-0.09221173615384616,-0.16018392976331364,7.085464723724476e-11,-0.08981055,-0.14833701000000002,-9.81269775,0.003952,-0.001772,0.005167,0.06262858257752994
1756986646.254386,-0.7230695421483084,1.133100536485649,2.140998405837478,-0.48892799554420835,0.7622060898328774,-0.09221173615384616,-0.16018392976331364,6.652018012038428e-11,-0.09040896000000001,-0.16734879000000003,-9.818829,0.003009,-0.001652,0.004764,0.0626588526415698
1756986646.275232,-0.7244642241938588,1.1351853491465598,2.141018024755624,-0.48882952725375384,0.7620268734648392,-0.09221173615384616,-0.16018392976331364,6.24512414392759e-11,-0.10298538000000002,-0.15732297,-9.81239364,0.003306,-0.000756,0.005802,0.06265115553190262
1756986646.2967715,-0.7272623353210657,1.1394589460321638,2.1410372219905494,-0.4887093288651417,0.7618143334179323,-0.09221173615384616,-0.16018392976331364,5.85988040694865e-11,-0.10104300000000001,-0.16495515000000002,-9.80925444,0.004247,0.000513,0.004385,0.06312045901010771
1756986646.3168967,-0.7274133670073923,1.1396074526266646,2.1410558257188725,-0.4886078365900229,0.7616317392384264,-0.09221173615384616,-0.16018392976331364,5.501343486738153e-11,-0.0896634,-0.16106057999999998,-9.81164808,0.003579,-0.000829,0.004691,0.06260294812408455
1756986646.3377135,-0.7288088003957603,1.141696920606911,2.141073940253257,-0.4885080744212667,0.7614525249878963,-0.09221173615384616,-0.16018392976331364,5.164677711821807e-11,-0.09325386000000001,-0.16390548000000002,-9.81688662,0.00198,-0.001299,0.004042,0.06262682113114786
1756986646.3645022,-0.7313830152214552,1.1455415837819183,2.1411087332147236,-0.4883168196474862,0.7611089538120833,-0.09221173615384616,-0.16018392976331364,4.5522099261594665e-11,-0.09954207,-0.15701886,-9.82078119,0.003473,3.3e-05,0.005059,0.06260084862890106
1756986646.3867304,-0.7337217383717468,1.1491045630424521,2.141125501720106,-0.4882075568637526,0.7609167554894373,-0.09221173615384616,-0.16018392976331364,4.2720807603609845e-11,-0.08203122,-0.16256151,-9.819427410000001,0.003816,-0.000468,0.003807,0.06294966373772098
1756986646.4076486,-0.7340131113528119,1.1494777238173672,2.1411417619919053,-0.4881142012253458,0.760750024864109,-0.09221173615384616,-0.16018392976331364,4.0109324043999134e-11,-0.09460764,-0.15942231,-9.822870720000001,0.003414,0.000746,0.003979,0.0625370927652677
1756986646.4277112,-0.7353509849148202,1.1514830277758146,2.1411575934035696,-0.48802240482043774,0.7605863184535538,-0.09221173615384616,-0.16018392976331364,3.7656520410378296e-11,-0.09609875999999999,-0.15538058999999999,-9.8333478,0.00312,-0.000234,0.003754,0.06257447196546605
1756986646.447948,-0.7366726602115,1.153464146660407,2.1411730062455963,-0.48793164783197857,0.760424800341313,-0.09221173615384616,-0.16018392976331364,3.5352934735473424e-11,-0.10717425000000001,-0.16375833,-9.81628821,0.002417,-0.00159,0.003815,0.0625995380154914
1756986646.4687674,-0.7379591886929001,1.1553915384966202,2.1411880096333853,-0.48784187728023193,0.7602653699226029,-0.09221173615384616,-0.16018392976331364,3.31898867642539e-11,-0.09295956000000001,-0.15971661,-9.80521272,0.003789,-0.000805,0.005738,0.06260976520567535
1756986646.4888003,-0.7392184520553324,1.157277475814546,2.141202613059499,-0.48775307794820766,0.7601079885376708,-0.09221173615384616,-0.16018392976331364,3.115902596544584e-11,-0.10164141000000002,-0.1704978,-9.81373761,0.002965,-0.001103,0.004613,0.06261173703633083
1756986646.5091965,-0.7406913356455903,1.1594973147198633,2.1412168384710943,-0.48766149019976146,0.7599467643420398,-0.09221173615384616,-0.16018392976331364,2.9249676072949145e-11,-0.09310671,-0.16211025,-9.820477080000002,0.002737,0.00041,0.004116,0.06268888954934258
1756986646.530036,-0.7417594345616547,1.1610873746689057,2.141230674435006,-0.4875728561391784,0.7597906608329157,-0.09221173615384616,-0.16018392976331364,2.7459218474841634e-11,-0.09624591,-0.16734879000000003,-9.822870720000001,0.002578,0.000249,0.005442,0.06261662373257615
1756986646.5509937,-0.7429920686698543,1.1629348314456667,2.1412441404334093,-0.48748481495747936,0.7596359778985198,-0.09221173615384616,-0.16018392976331364,2.577815168480866e-11,-0.10104300000000001,-0.15208443,-9.82542132,0.002597,0.000475,0.003287,0.06262030947115285
1756986646.5719857,-0.7442026014633402,1.164748828735139,2.1412572452870524,-0.4873974333564037,0.7594828064599658,-0.09221173615384616,-0.16018392976331364,2.4199905203234743e-11,-0.09729558,-0.14818986,-9.81733788,0.003568,-0.000741,0.004514,0.06261932900066598
1756986646.5922043,-0.7460218974178134,1.1675123322562475,2.141270027645966,-0.4873006257784571,0.7593153706959392,-0.09221173615384616,-0.16018392976331364,2.2712626924379975e-11,-0.09340101,-0.18486945000000002,-9.81643536,0.003725,-0.000342,0.003446,0.06282782588726618
1756986646.6125586,-0.7460218974178134,1.1675123322562475,2.141270027645966,-0.4873006257784571,0.7593153706959392,-0.09221173615384616,-0.16018392976331364,2.2712626924379975e-11,-0.09340101,-0.18486945000000002,-9.81643536,0.003725,-0.000342,0.003446,0.06282782588726618
1756986646.6341991,-0.7521012958638396,1.176844336794858,2.141295121381173,-0.48685255767611507,0.7585841389204837,-0.09221173615384616,-0.16018392976331364,1.9915365510849683e-11,-0.10628154000000001,-0.16091343000000002,-9.81509139,0.003121,0.000674,0.004625,0.06333400290918306
1756986646.6550572,-0.7485085161281136,1.1711778869887173,2.1413068174427767,-0.4867567786642509,0.7584196234320058,-0.09221173615384616,-0.16018392976331364,1.8708075310353034e-11,-0.08576883000000002,-0.14804271000000002,-9.816739470000002,0.00329,-0.000737,0.003756,0.061626013321981886
1756986646.6762826,-0.7504810763041425,1.174183833648268,2.1413182386521825,-0.4866647086772137,0.7582614298341468,-0.09221173615384616,-0.16018392976331364,1.7566787329766195e-11,-0.09968922,-0.15358536,-9.827069400000001,0.002864,-0.000393,0.003686,0.06217939162085799
1756986646.6967633,-0.750919012745987,1.174799661879017,2.1413293225264827,-0.4865924840535389,0.7581346687507847,-0.09221173615384616,-0.16018392976331364,1.6498970148145816e-11,-0.08277678,-0.16899687,-9.820025820000001,0.002474,-0.000325,0.004652,0.06207191917323081
1756986646.719121,-0.7615773351516788,1.191339992244861,2.141340107843014,-0.48652856790732596,0.7580212837811766,-0.09221173615384616,-0.16018392976331364,1.549509055168131e-11,-0.08831943,-0.17124336,-9.827363700000001,0.002094,-0.000695,0.003887,0.06643548398675513
1756986646.7392342,-0.7627392847568293,1.1930854125402999,2.141350593645411,-0.4864729625283895,0.7579212477941585,-0.09221173615384616,-0.16018392976331364,1.4552585200372988e-11,-0.09909081000000002,-0.16346403,-9.817485030000002,0.003284,0.000217,0.004224,0.06657689412476009
1756986646.7643557,-0.7551797742026796,1.1811811006190065,2.1413707224603318,-0.48636956432809914,0.7577344255623397,-0.09221173615384616,-0.16018392976331364,1.2833575869236972e-11,-0.0865242,-0.16151184,-9.80041563,0.003281,-0.000144,0.005014,0.06239540678707541
1756986646.7867532,-0.7573546112305338,1.184507281443261,2.141380418048751,-0.4863020205390445,0.7576167749808498,-0.09221173615384616,-0.16018392976331364,1.2045783445534892e-11,-0.09475478999999999,-0.16450389,-9.828266220000001,0.001919,0.000492,0.004403,0.06280939798210552
1756986646.8077586,-0.757281743941453,1.1843326260303055,2.1413898046369715,-0.4862498730753333,0.7575234959588494,-0.09221173615384616,-0.16018392976331364,1.1311469196369985e-11,-0.10298538000000002,-0.16555356,-9.82466595,0.003581,-0.000779,0.006091,0.06237633035331397
1756986646.828651,-0.7583569364245778,1.1859473680137396,2.1413989350296774,-0.4861977820832197,0.7574306454474304,-0.09221173615384616,-0.16018392976331364,1.0621398965295637e-11,-0.09160578000000001,-0.17198892,-9.84008727,0.002323,0.000135,0.005369,0.06243312353651441
1756986646.84914,-0.7596003103929285,1.1878249070838145,2.1414078215944645,-0.4861420842116276,0.7573324911319542,-0.09221173615384616,-0.16018392976331364,9.972285590008502e-12,-0.09340101,-0.16660323000000002,-9.82616688,0.00255,-0.001131,0.004928,0.06253509399524808
1756986646.8696244,-0.7603919209520343,1.188999480903077,2.141416454774707,-0.4860887767131762,0.7572383880443895,-0.09221173615384616,-0.16018392976331364,9.363509614212059e-12,-0.10044459,-0.14684589,-9.80760636,0.003317,-0.000107,0.004217,0.06246398369365112
1756986646.8905065,-0.7613525255411837,1.190438113006985,2.141424847530507,-0.4860354351683842,0.7571445468649436,-0.09221173615384616,-0.16018392976331364,8.791842372096403e-12,-0.09116433,-0.16495515000000002,-9.817033770000002,0.002175,-0.000693,0.003885,0.06246879976568146
1756986646.910587,-0.762320879332264,1.1918895962602385,2.141433006544638,-0.4859816053404789,0.7570502505821373,-0.09221173615384616,-0.16018392976331364,8.254973686720959e-12,-0.08921214,-0.15418377,-9.83274939,0.002559,0.000321,0.004939,0.062477375673660296
1756986646.9307673,-0.7634170394699694,1.1935409311324017,2.141440942073385,-0.48592496345107955,0.7569518639764036,-0.09221173615384616,-0.16018392976331364,7.750379421492232e-12,-0.10073889000000001,-0.16286562,-9.82556847,0.002828,-0.0004,0.005104,0.06252980745188008
1756986646.9508011,-0.7644258997410833,1.1950570238737002,2.1414486570380245,-0.48586637911842495,0.7568507368746379,-0.09221173615384616,-0.16018392976331364,7.276419737134462e-12,-0.10747836000000001,-0.14714019,-9.823626090000001,0.002755,-0.000614,0.00436,0.0625441058512656
1756986646.9717484,-0.7653140661184236,1.1963858558494447,2.1414561535853034,-0.48580763857703074,0.7567496515848982,-0.09221173615384616,-0.16018392976331364,6.831565471709163e-12,-0.09086022,-0.16914402,-9.835447140000001,0.003428,3.5e-05,0.004565,0.06251797887694754
1756986646.9923537,-0.7666255628309956,1.1983748259725313,2.141463450164112,-0.48574209999928086,0.7566382355489707,-0.09221173615384616,-0.16018392976331364,6.41291024435419e-12,-0.09879651,-0.16106057999999998,-9.8128449,0.004262,-0.001101,0.00371,0.06264454524308427
1756986647.0127947,-0.7672301705892705,1.1992634167535747,2.1414705309486077,-0.4856803321511868,0.756532975456508,-0.09221173615384616,-0.16018392976331364,6.0207240687463346e-12,-0.08502327,-0.15926535,-9.81404172,0.002886,-0.000222,0.004428,0.06250769478297787
1756986647.0330365,-0.7682325027884354,1.2007722482134828,2.141477413678073,-0.4856169758967946,0.7564255052314582,-0.09221173615384616,-0.16018392976331364,5.652298661170508e-12,-0.09729558,-0.16286562,-9.827814960000001,0.003314,-0.000598,0.003548,0.06254003213541841
1756986647.053898,-0.7691211665974929,1.2021047267321752,2.141484100297788,-0.4855535632310581,0.7563182066102818,-0.09221173615384616,-0.16018392976331364,5.3064460408556896e-12,-0.10358379000000001,-0.1591182,-9.819133110000001,0.002759,-0.000868,0.005678,0.06252941222514105
1756986647.0751226,-0.7700152655394105,1.203446365813196,2.1414905962235764,-0.4854900367603983,0.7562109831174242,-0.09221173615384616,-0.16018392976331364,4.981748314230758e-12,-0.09071307,-0.16241436,-9.81418887,0.004179,0.000575,0.00323,0.06252603578436951
1756986647.0959365,-0.7709523480825109,1.2048556383794629,2.141496907663133,-0.48542566127468345,0.7561026804680935,-0.09221173615384616,-0.16018392976331364,4.6768143213041706e-12,-0.08906499000000001,-0.15837263999999998,-9.81583695,0.004019,-0.000293,0.005133,0.0625409178778927
1756986647.1160975,-0.7736870162004477,1.2090654024948593,2.1415030852579005,-0.48533009798717286,0.7559459510443512,-0.09221173615384616,-0.16018392976331364,4.387312691397914e-12,-0.10193571,-0.17438256000000002,-9.80954874,0.001119,0.000424,0.003853,0.06316381872572557
1756986647.1370041,-0.7727924788616465,1.207623087208817,2.141509038708268,-0.4852604837032327,0.7558299317696396,-0.09221173615384616,-0.16018392976331364,4.118889803090711e-12,-0.10298538000000002,-0.16750575,-9.82332198,0.002483,1.4e-05,0.003278,0.062428086625618634
1756986647.1586957,-0.7830734077451189,1.2235879507330991,2.141514818754029,-0.4851943015816109,0.7557195099232796,-0.09221173615384616,-0.16018392976331364,3.866974659958834e-12,-0.08906499000000001,-0.16046217000000002,-9.843226470000001,0.003714,-0.000854,0.005131,0.06665226434482155
1756986647.1790836,-0.7742397006747858,1.2097812700984276,2.1415204269277384,-0.4851331024274647,0.755617089259533,-0.09221173615384616,-0.16018392976331364,3.6307087036012488e-12,-0.08906499000000001,-0.16046217000000002,-9.843226470000001,0.003714,-0.000854,0.005131,0.0623940741057818
1756986647.2045245,-0.7761737323316006,1.2127000892788156,2.1415312318794113,-0.4849530592257851,0.7553229317102231,-0.09221173615384616,-0.16018392976331364,3.196595721898893e-12,-0.08816247,-0.15387966,-9.82241946,0.002529,-0.001041,0.005032,0.06230918478236875
1756986647.2254982,-0.7761737323316006,1.2127000892788156,2.1415312318794113,-0.4849530592257851,0.7553229317102231,-0.09221173615384616,-0.16018392976331364,3.196595721898893e-12,-0.08816247,-0.15387966,-9.82241946,0.002529,-0.001041,0.005032,0.06230918478236875
1756986647.2455535,-0.7776844487079184,1.2149620078395469,2.1415414286520518,-0.484753278001837,0.7549987985087653,-0.09221173615384616,-0.16018392976331364,2.8138345101193032e-12,-0.10822392,-0.16600482,-9.82122264,0.003526,0.000588,0.005307,0.06208166260289981
1756986647.2657447,-0.7786408845977753,1.2164071284068798,2.1415462617498697,-0.48469102005637993,0.7548957526382143,-0.09221173615384616,-0.16018392976331364,2.6420475400874684e-12,-0.08876088000000001,-0.17633475,-9.8213796,0.003851,-0.000825,0.004646,0.06225741957575551
1756986647.286363,-0.7791875557074502,1.217214655364061,2.141550946750323,-0.4846377581176958,0.7548069346183358,-0.09221173615384616,-0.16018392976331364,2.480925977204074e-12,-0.08861373,-0.15538058999999999,-9.816141060000001,0.003105,-0.000738,0.00232,0.062246857085732826
1756986647.3069801,-0.7803341887782589,1.2189571739418625,2.141555499683605,-0.4845830500495416,0.7547160427487749,-0.09221173615384616,-0.16018392976331364,2.3292198218553723e-12,-0.08696565,-0.16914402,-9.84622833,0.002926,-0.000787,0.003484,0.06243873619658537
1756986647.327702,-0.7808118780942838,1.219658431571068,2.141559910241786,-0.4845350205327313,0.7546357346091781,-0.09221173615384616,-0.16018392976331364,2.187016235070463e-12,-0.09355797,-0.15732297,-9.825715620000002,0.004103,-9.7e-05,0.004969,0.062359293536956475
1756986647.3485067,-0.7815695743459597,1.2207963575695395,2.141564187970266,-0.48448913566415125,0.7545589370684708,-0.09221173615384616,-0.16018392976331364,2.0534519733139388e-12,-0.09564750000000001,-0.16600482,-9.80385894,0.002485,-0.000162,0.004421,0.06239321418822217
1756986647.3685355,-0.7822996851684044,1.2218918839164679,2.141568335837297,-0.4844448752420896,0.7544848334470496,-0.09221173615384616,-0.16018392976331364,1.928024263916055e-12,-0.09430353000000001,-0.1651023,-9.82631403,0.002918,-0.00174,0.004633,0.06241061478187178
1756986647.3895657,-0.7830229267987588,1.2229772667357468,2.141572357188787,-0.4844016552140909,0.7544125093286217,-0.09221173615384616,-0.16018392976331364,1.8102403107857752e-12,-0.09624591,-0.15747012000000002,-9.818534699999999,0.002964,0.000173,0.00354,0.06242299570748332
1756986647.4105194,-0.783778434867944,1.2241134463474685,2.141576255991712,-0.48435841742926594,0.7543403115630473,-0.09221173615384616,-0.16018392976331364,1.699610304517029e-12,-0.08891784,-0.16645608,-9.82766781,0.004226,0.001238,0.005198,0.062445217968837355
1756986647.4315019,-0.7844819776700782,1.2251692335447248,2.141580034596201,-0.484315469521294,0.7542687168787108,-0.09221173615384616,-0.16018392976331364,1.595734337226964e-12,-0.09265545000000001,-0.15971661,-9.81373761,0.002853,-0.001346,0.002765,0.06244683496840039
1756986647.4515667,-0.7852486016233057,1.2263237905088777,2.141583697318447,-0.48427152703826987,0.7541957198446142,-0.09221173615384616,-0.16018392976331364,1.4981592132556015e-12,-0.08636724,-0.14190165000000002,-9.81583695,0.003452,-0.000525,0.005215,0.06247178013707345
1756986647.4716153,-0.7859772006142329,1.2274196487804327,2.141587246581988,-0.4842268163762027,0.7541216703269001,-0.09221173615384616,-0.16018392976331364,1.4065270637594608e-12,-0.09086022,-0.17169462000000002,-9.830807010000001,0.004559,-0.00014,0.005288,0.06248070525659489
1756986647.4923618,-0.7885771749388434,1.2314303656372756,2.1415907154519704,-0.4841498069665421,0.7539973992132721,-0.09221173615384616,-0.16018392976331364,1.3194938801547766e-12,-0.0953532,-0.16076628,-9.80521272,0.003745,-0.000711,0.003378,0.06312528055701702
1756986647.5125086,-0.7872575474758196,1.2293374122206606,2.1415940425506133,-0.48410184742619694,0.753918553469032,-0.09221173615384616,-0.16018392976331364,1.2389164345555564e-12,-0.08517042000000001,-0.15253569,-9.823626090000001,0.002357,-0.000308,0.004571,0.06230400352623059
1756986647.5327537,-0.7880826189548438,1.230585028749531,2.1415972671601082,-0.484053930747903,0.7538399268148305,-0.09221173615384616,-0.16018392976331364,1.1631728356434507e-12,-0.08382645000000001,-0.15897105,-9.80476146,0.002813,0.000582,0.004374,0.06240112178287141
1756986647.5534256,-0.7886417967820871,1.2314190534880824,2.1416003876936225,-0.4840090832125722,0.7537662232955057,-0.09221173615384616,-0.16018392976331364,1.0920987519492003e-12,-0.10283823,-0.15926535,-9.811500930000001,0.003592,-0.000845,0.00434,0.06238450181628904
1756986647.573584,-0.7894006085534693,1.2325644593099188,2.1416034098840697,-0.48396387326871193,0.7536920860551998,-0.09221173615384616,-0.16018392976331364,1.0253163339375997e-12,-0.09909081000000002,-0.155979,-9.829158930000002,0.003543,-0.002102,0.004502,0.06243949822377863
1756986647.5945165,-0.7900192420439025,1.2334920411073873,2.141606334222878,-0.4839197914451698,0.7536198322931683,-0.09221173615384616,-0.16018392976331364,9.626252138996677e-13,-0.09609875999999999,-0.15447807000000002,-9.81045126,0.003759,0.000244,0.003769,0.06243533815433597
1756986647.6150882,-0.7919120064868066,1.2364042800129313,2.1416091810051263,-0.48385566977908195,0.7535164568528291,-0.09221173615384616,-0.16018392976331364,9.033132843821955e-13,-0.09026181000000001,-0.16061913,-9.82078119,0.004084,-0.000331,0.004083,0.06286689327063703
1756986647.6351864,-0.7915828030705384,1.2358567047686921,2.141611921109508,-0.4838052445335872,0.7534345451595498,-0.09221173615384616,-0.16018392976331364,8.480165692407298e-13,-0.09116433,-0.16914402,-9.82542132,0.0026,-0.001027,0.005112,0.06245284651404114
1756986647.6562045,-0.7921852382883532,1.2367604460721167,2.1416145708588763,-0.48375647467073923,0.753355336415092,-0.09221173615384616,-0.16018392976331364,7.961134423524113e-13,-0.0953532,-0.1502892,-9.818829,0.005413,0.000634,0.004488,0.062453218668756395
1756986647.676579,-0.7927967087188097,1.23767871096193,2.14161713277333,-0.48370898899212855,0.7532782455607302,-0.09221173615384616,-0.16018392976331364,7.473895081002199e-13,-0.08502327,-0.15792138000000003,-9.82241946,0.001384,-0.0007,0.004638,0.06245734550889548
1756986647.6976948,-0.7935428977291744,1.2388072137083377,2.141619610888469,-0.4836603565878481,0.7531994781065405,-0.09221173615384616,-0.16018392976331364,7.016100687512541e-13,-0.08786817,-0.16780005,-9.818534699999999,0.002817,-0.000476,0.003951,0.06250761669891088
1756986647.7238224,-0.8035369141409334,1.2543376314022985,2.141622012178254,-0.48360353791039545,0.7531080558257904,-0.09221173615384616,-0.16018392976331364,6.584973200809003e-13,-0.10508471999999999,-0.16420959000000002,-9.799522920000001,0.002902,-0.00136,0.00545,0.06663075531399901
1756986647.7390013,-0.8043021075643946,1.2554965514769636,2.1416243223438958,-0.48355909827878124,0.7530360305227678,-0.09221173615384616,-0.16018392976331364,6.182438834178411e-13,-0.08876088000000001,-0.15478218000000002,-9.82152675,0.004378,-0.001173,0.005084,0.06674422189125975
1756986647.7590663,-0.8049599799026783,1.256488766087388,2.1416265556822935,-0.48351394667402764,0.7529630017740172,-0.09221173615384616,-0.16018392976331364,5.804083224409153e-13,-0.0865242,-0.15507648,-9.824822910000002,0.0023,-0.00038,0.00549,0.0667831517553701
1756986647.7798228,-0.8059242973697279,1.257958617935767,2.1416287128694798,-0.48346878412770233,0.7528900545990317,-0.09221173615384616,-0.16018392976331364,5.44873253795125e-13,-0.0896634,-0.15732297,-9.819584370000001,0.004086,-0.000232,0.004145,0.06695218168094
1756986647.8040113,-0.7969397492203347,1.2439049158951292,2.1416328071819333,-0.483375435648761,0.7527397276517411,-0.09221173615384616,-0.16018392976331364,4.801540296072606e-13,-0.08397360000000001,-0.16930098,-9.807302250000001,0.002435,-0.002496,0.005344,0.062413641687670586
1756986647.8244667,-0.7972535104453695,1.244362971118013,2.141634741607504,-0.4833378644976612,0.7526788909016693,-0.09221173615384616,-0.16018392976331364,4.5082581408349295e-13,-0.09145863,-0.15074046,-9.83035575,0.002347,0.000227,0.004589,0.06234221253047499
1756986647.8451083,-0.798148542056678,1.245726598779745,2.1416366105956026,-0.48329647253599106,0.7526121891048376,-0.09221173615384616,-0.16018392976331364,4.232265182756834e-13,-0.08007903000000001,-0.16136469,-9.82078119,0.003908,-0.000977,0.005518,0.06248467060119552
1756986647.8657136,-0.7984621873687403,1.2461852617738152,2.1416384098250987,-0.4832591724091262,0.7525519479120877,-0.09221173615384616,-0.16018392976331364,3.973548097484809e-13,-0.09834525,-0.14669874000000002,-9.81059841,0.003689,0.001109,0.004157,0.062398194732141504
1756986647.8861363,-0.7984621873687403,1.2461852617738152,2.1416384098250987,-0.4832591724091262,0.7525519479120877,-0.09221173615384616,-0.16018392976331364,3.973548097484809e-13,-0.09834525,-0.14669874000000002,-9.81059841,0.003689,0.001109,0.004157,0.062398194732141504
1756986647.907738,-0.8102788934563617,1.2645569954881872,2.1416402542591335,-0.4829928859470266,0.752134854995569,-0.09221173615384616,-0.16018392976331364,3.7139198796922343e-13,-0.08547453,-0.15837263999999998,-9.831552570000001,0.002422,0.001272,0.006533,0.06618707961645112
1756986647.927843,-0.8011592541369511,1.2502976839916649,2.1416435918341543,-0.482743509547803,0.7517422791972469,-0.09221173615384616,-0.16018392976331364,3.267527468410147e-13,-0.11061756,-0.16555356,-9.81090252,0.003509,-0.00028,0.003084,0.06173139984992354
1756986647.9482539,-0.8004114383197144,1.2491049007018533,2.14164513398379,-0.4827004437719936,0.7516733935799279,-0.09221173615384616,-0.16018392976331364,3.069683711350266e-13,-0.08547453,-0.16106057999999998,-9.828707670000002,0.004343,0.000389,0.003357,0.06152816815209177
1756986647.9692764,-0.8009099877830272,1.2498533627343684,2.141646618580916,-0.4826741758760268,0.7516308003217119,-0.09221173615384616,-0.16018392976331364,2.883594488280119e-13,-0.09490194,-0.16165899,-9.840391380000002,0.002325,-0.00152,0.004732,0.06177445774526081
1756986647.9901502,-0.8018177319686212,1.2512393830879902,2.1416480499687944,-0.4826534795157926,0.7515969691170661,-0.09221173615384616,-0.16018392976331364,2.7081536311601666e-13,-0.09370512,-0.16361118,-9.80925444,0.00194,-0.000644,0.004573,0.06208877478161293
1756986648.01108,-0.8018217425366849,1.251218462193302,2.141649421376032,-0.48264667213160467,0.7515848391500486,-0.09221173615384616,-0.16018392976331364,2.5437648434320016e-13,-0.10583028000000001,-0.15851979,-9.82241946,0.003806,-0.000424,0.004699,0.06201415545994061
1756986648.0316188,-0.8024997950960835,1.252247518168759,2.1416507401131213,-0.48264237415713246,0.7515766755069209,-0.09221173615384616,-0.16018392976331364,2.3890330056604984e-13,-0.08562168,-0.15672456,-9.8159841,0.003526,0.000276,0.00472,0.062180750871442064
1756986648.0524385,-0.8030101560581582,1.2530157877006975,2.141652006087307,-0.4826400402616892,0.751571622596952,-0.09221173615384616,-0.16018392976331364,2.2435887848923672e-13,-0.09564750000000001,-0.16165899,-9.81987867,0.003198,0.000497,0.003833,0.06224928042838061
1756986648.0735323,-0.8034541896491603,1.2536811134232275,2.1416532202370124,-0.48263895092603454,0.7515685594144658,-0.09221173615384616,-0.16018392976331364,2.106947690224904e-13,-0.0981981,-0.15538058999999999,-9.81164808,0.003144,-0.001491,0.004678,0.06227893732477783
1756986648.0944421,-0.8048907031782678,1.2558922453809631,2.141654391530947,-0.48262229972740206,0.7515412976548943,-0.09221173615384616,-0.16018392976331364,1.9777998655802645e-13,-0.09295956000000001,-0.15492933000000003,-9.82078119,0.004253,0.000232,0.004697,0.06264082082931938
1756986648.1155279,-0.807324729733732,1.2596569824604078,2.141655528128065,-0.4825689553861184,0.751456903801984,-0.09221173615384616,-0.16018392976331364,1.8551233663099665e-13,-0.09894366,-0.15103476000000002,-9.807459210000001,0.004038,-0.000307,0.004195,0.06326440549405087
1756986648.136187,-0.804958815990039,1.2559476390727313,2.1416565958371736,-0.48255543096622466,0.7514346061210698,-0.09221173615384616,-0.16018392976331364,1.7421563895565097e-13,-0.0953532,-0.15971661,-9.81209934,0.003359,-0.000669,0.004186,0.06212624394291463
1756986648.1564255,-0.8054727648720721,1.2567231410041169,2.1416576183712,-0.48254369058606117,0.7514151626966168,-0.09221173615384616,-0.16018392976331364,1.6359705531597263e-13,-0.08667135000000001,-0.15507648,-9.818829,0.003789,-0.000441,0.003955,0.06223001011020684
1756986648.1767945,-0.8060819723846557,1.257647292073926,2.1416585973977647,-0.4825306122945656,0.7513936965453016,-0.09221173615384616,-0.16018392976331364,1.536113833215384e-13,-0.10104300000000001,-0.17184177000000003,-9.818829,0.00338,-0.00079,0.004086,0.06233822765056965
1756986648.1973112,-0.8064507295675618,1.258197328968694,2.1416595323771235,-0.4825185700819775,0.7513738996378272,-0.09221173615384616,-0.16018392976331364,1.442367361000125e-13,-0.09310671,-0.17274429,-9.811500930000001,0.003035,0.000599,0.005128,0.06233832908946897
1756986648.2186763,-0.8164361113698626,1.273722580294393,2.1416604254305467,-0.4825050799955186,0.7513518993902918,-0.09221173615384616,-0.16018392976331364,1.3542801786324047e-13,-0.08457201,-0.14954364,-9.82078119,0.002684,0.000477,0.003714,0.0666204393742689
1756986648.2438605,-0.8076368834625371,1.259973663208711,2.141662087092641,-0.48248038776381796,0.751311614394705,-0.09221173615384616,-0.16018392976331364,1.1940107334262484e-13,-0.09684432000000001,-0.17438256000000002,-9.82631403,0.003181,0.00151,0.003943,0.06235306154614264
1756986648.2648888,-0.8085810214503738,1.2614208698614218,2.1416628619776477,-0.48245868420557053,0.7512769653499685,-0.09221173615384616,-0.16018392976331364,1.1208836558780475e-13,-0.09265545000000001,-0.16825131000000002,-9.83425032,0.0034,-0.00066,0.00406,0.06254708555241066
1756986648.2849298,-0.8085313733532249,1.2613208681428791,2.1416635961357677,-0.48244218679307804,0.7512504726219261,-0.09221173615384616,-0.16018392976331364,1.0524368208265154e-13,-0.10552617,-0.16585766999999998,-9.81643536,0.002451,-0.000581,0.005208,0.06236106137643818
1756986648.3058786,-0.8089874284729128,1.262008624376506,2.1416642938173993,-0.48242433679244034,0.7512219209299136,-0.09221173615384616,-0.16018392976331364,9.881400349428308e-14,-0.09145863,-0.16870257000000002,-9.821821049999999,0.003324,-0.000435,0.004634,0.062391110848509956
1756986648.326861,-0.8093530667944497,1.2625558680164413,2.1416649555362763,-0.48240625449372526,0.7511930530930377,-0.09221173615384616,-0.16018392976331364,9.277783247949391e-14,-0.07978473,-0.16061913,-9.81763218,0.003603,-0.000407,0.005178,0.062384014245308005
1756986648.3469317,-0.8098153422364254,1.263253869566362,2.141665582855971,-0.48238639970396346,0.7511614680786849,-0.09221173615384616,-0.16018392976331364,8.710749856096865e-14,-0.08906499000000001,-0.16061913,-9.82257642,0.002884,-0.000919,0.004651,0.062412275200492626
1756986648.3677778,-0.8101881851319477,1.2638128829522226,2.1416661762813005,-0.4823659651174275,0.7511290223279793,-0.09221173615384616,-0.16018392976331364,8.178406391461322e-14,-0.09011466,-0.16002072,-9.82511721,0.002673,-0.000993,0.004881,0.06240475268707099
1756986648.3884168,-0.8114322202114137,1.265728748168471,2.141666741243501,-0.48233075204045284,0.7510735930523035,-0.09221173615384616,-0.16018392976331364,7.67594454826133e-14,-0.10059174,-0.16585766999999998,-9.82511721,0.003192,-0.000472,0.004785,0.06269758627154344
1756986648.4092298,-0.8111469690833681,1.2652635247447368,2.1416672707630333,-0.48230395402166953,0.7510313112701621,-0.09221173615384616,-0.16018392976331364,7.206482488607533e-14,-0.09789399,-0.16315992,-9.824371650000002,0.003136,0.00023,0.003031,0.06240748324204446
1756986648.4304116,-0.8126348659497238,1.2675596417614776,2.1416677747191315,-0.4822589206987318,0.7509606620762481,-0.09221173615384616,-0.16018392976331364,6.762740920136598e-14,-0.09265545000000001,-0.16270866,-9.83200383,0.00297,0.000416,0.005652,0.06279072754769413
1756986648.4513402,-0.8119494144371,1.2664717568610022,2.1416682433170084,-0.48222906313466657,0.750913691295751,-0.09221173615384616,-0.16018392976331364,6.349272943966697e-14,-0.09325386000000001,-0.16106057999999998,-9.810304109999999,0.003083,0.000145,0.004504,0.0623509462576981
1756986648.4723616,-0.8123231340710614,1.2670334398697696,2.14166868281413,-0.482200639132253,0.750868997314336,-0.09221173615384616,-0.16018392976331364,5.961057677016492e-14,-0.09700128,-0.15956946,-9.818377739999999,0.004333,0.000291,0.00434,0.062373674405255757
1756986648.493362,-0.8127228916134184,1.2676359191312103,2.1416690941040466,-0.48217281170690723,0.7508252712161574,-0.09221173615384616,-0.16018392976331364,5.59649020178382e-14,-0.09564750000000001,-0.16315992,-9.8242245,0.004431,0.000339,0.003843,0.06239904047832691
1756986648.513862,-0.8133625065536895,1.268612139640495,2.1416694790098516,-0.48214128722192806,0.7507758206382037,-0.09221173615384616,-0.16018392976331364,5.2536322186745694e-14,-0.09640287000000002,-0.15986376000000002,-9.82377324,0.002439,-0.000305,0.003911,0.06250059872106335
1756986648.5346355,-0.8135383623332024,1.2688664557121723,2.1416698362758932,-0.48211273695408513,0.7507310356698442,-0.09221173615384616,-0.16018392976331364,4.93218479402347e-14,-0.0953532,-0.15237873000000002,-9.82377324,0.00293,0.000563,0.004298,0.06242248757447817
1756986648.5549068,-0.8139681452407466,1.2695164187104273,2.141670167825156,-0.4820836286904663,0.7506854142875466,-0.09221173615384616,-0.16018392976331364,4.630272883161978e-14,-0.08547453,-0.15747012000000002,-9.8245188,0.003051,-0.000591,0.004639,0.062450057637571686
1756986648.575601,-0.8144152686126513,1.270193619160558,2.1416704744681,-0.48205336956214195,0.7506380310902463,-0.09221173615384616,-0.16018392976331364,4.3466918977387185e-14,-0.09968922,-0.15822549000000002,-9.823027680000001,0.002519,-0.000557,0.005137,0.0624785158153751
1756986648.5960956,-0.8157453617562379,1.2722459674363573,2.141670760376302,-0.4820069835463702,0.7505655539419095,-0.09221173615384616,-0.16018392976331364,4.078905689523605e-14,-0.09759969,-0.14864112000000002,-9.82272357,0.003659,-0.000398,0.005128,0.06280382632923479
1756986648.6185877,-0.824653098534758,1.2860982170859792,2.1416710187175436,-0.4819743176504789,0.7505144761358388,-0.09221173615384616,-0.16018392976331364,3.8292095975442276e-14,-0.10432935000000002,-0.16870257000000002,-9.82062423,0.001364,0.00081,0.004318,0.06665539959586489
1756986648.643667,-0.8157083121297699,1.2721332082680985,2.141671466093201,-0.4819177260541599,0.7504260329551987,-0.09221173615384616,-0.16018392976331364,3.3750595805782655e-14,-0.08981055,-0.16151184,-9.82556847,0.00356,-0.00037,0.004644,0.06239228013081631
1756986648.66476,-0.8160662923842805,1.2726727347119433,2.1416716569046406,-0.4818912499618101,0.7503846887270218,-0.09221173615384616,-0.16018392976331364,3.1685636412629946e-14,-0.09460764,-0.15672456,-9.81389457,0.004955,0.00031,0.004792,0.062412320666748525
1756986648.6848655,-0.8164873699302223,1.2733107305552058,2.141671826895421,-0.4818642539330978,0.7503425600761141,-0.09221173615384616,-0.16018392976331364,2.974588507429205e-14,-0.09999333,-0.15851979,-9.814787280000001,0.00426,0.00179,0.002986,0.06244968934638924
1756986648.7056797,-0.8166516460443957,1.2735490614962754,2.1416719758348677,-0.4818404149657313,0.7503053735007396,-0.09221173615384616,-0.16018392976331364,2.7926743691301805e-14,-0.09265545000000001,-0.16151184,-9.82542132,0.003495,-0.00024,0.00415,0.06239183424171817
1756986648.7258325,-0.8171012558388753,1.2742319141484693,2.1416721053125096,-0.48181540700185443,0.7502663902068074,-0.09221173615384616,-0.16018392976331364,2.6217409111723177e-14,-0.0981981,-0.15342840000000002,-9.823174830000001,0.002527,0.000699,0.004077,0.06244517890378637
1756986648.746709,-0.8173795665421941,1.2746482352320694,2.1416722153676417,-0.4817913980346558,0.7502289856535753,-0.09221173615384616,-0.16018392976331364,2.46131212270914e-14,-0.09445068,-0.16226721000000002,-9.820025820000001,0.002844,0.000417,0.004056,0.06242891169533585
1756986648.7668328,-0.8178082896822678,1.275298977516639,2.141672307071273,-0.481765969797777,0.7501893926112103,-0.09221173615384616,-0.16018392976331364,2.3105938744492804e-14,-0.09400923,-0.17214588000000003,-9.822870720000001,0.003863,-0.002623,0.005781,0.06246893337459631
1756986648.7886827,-0.8323715224724257,1.2979763425573663,2.141672307071273,-0.481765969797777,0.7501893926112103,-0.09221173615384616,-0.16018392976331364,2.3105938744492804e-14,-0.09116433,-0.15433092,-9.81404172,0.004638,0.000172,0.003858,0.06899711326762466
1756986648.8091643,-0.8183632347752224,1.2761299406567852,2.1416724505319413,-0.4816170272602553,0.7499574440600096,-0.09221173615384616,-0.16018392976331364,2.0328009969570074e-14,-0.09265545000000001,-0.16720164,-9.819584370000001,0.002761,-0.000451,0.004534,0.06207346986418405
1756986648.8300433,-0.8186188024216958,1.2765116480869,2.1416724894499737,-0.48158902072113763,0.7499138979657068,-0.09221173615384616,-0.16018392976331364,1.9087239740742734e-14,-0.09026181000000001,-0.15237873000000002,-9.80940159,0.003218,-0.000846,0.003349,0.06216476050154689
1756986648.8502197,-0.8190012230690463,1.2770910808014606,2.1416725122940257,-0.4815650874362491,0.7498767272645818,-0.09221173615384616,-0.16018392976331364,1.7921220721999237e-14,-0.08906499000000001,-0.17124336,-9.832150980000002,0.002947,-0.000938,0.006293,0.06226996411418608
1756986648.871102,-0.8192928865150636,1.2775293821235392,2.1416725191666126,-0.4815448491079187,0.7498453339113257,-0.09221173615384616,-0.16018392976331364,1.6826195086205946e-14,-0.09370512,-0.15851979,-9.8159841,0.001241,0.000475,0.005073,0.062315315532725096
1756986648.8921125,-0.8195722470446106,1.2779487157565514,2.141672510472625,-0.48152737472925294,0.7498182636775166,-0.09221173615384616,-0.16018392976331364,1.5797940063263825e-14,-0.09564750000000001,-0.1619631,-9.80969589,0.002942,0.000251,0.0039,0.06234362913814998
1756986648.9125059,-0.8206127374882375,1.2795534315680048,2.1416724885674174,-0.48149947210778576,0.7497749651087924,-0.09221173615384616,-0.16018392976331364,1.482787799338526e-14,-0.10059174,-0.16091343000000002,-9.81404172,0.002745,-0.000755,0.004772,0.06262485705044091
1756986648.9334395,-0.8202100710800515,1.2789111053516677,2.141672450331245,-0.48148210962071447,0.7497480966950205,-0.09221173615384616,-0.16018392976331364,1.3921447464180719e-14,-0.09490194,-0.16839846000000003,-9.80626239,0.003553,-0.000114,0.004958,0.06235198308437394
1756986648.9546192,-0.8205061151826145,1.2793569696064349,2.141672398045255,-0.48146602241250186,0.7497232321193446,-0.09221173615384616,-0.16018392976331364,1.3070213010068719e-14,-0.09640287000000002,-0.16165899,-9.823469130000001,0.002277,-0.000295,0.004949,0.06238061510204604
1756986648.9753227,-0.8212738963671463,1.2805375800430687,2.141672333212611,-0.48144293049481907,0.749687471984722,-0.09221173615384616,-0.16018392976331364,1.2268519035694346e-14,-0.08772102000000001,-0.15732297,-9.831258270000001,0.001693,-9e-06,0.00565,0.06256376148419246
1756986648.9963713,-0.8233318614143592,1.2837273752245202,2.141672259070404,-0.4813887929226249,0.749603364502585,-0.09221173615384616,-0.16018392976331364,1.1507913045351069e-14,-0.08831943,-0.14954364,-9.823174830000001,0.004439,-0.00037,0.004033,0.06314792173763584
1756986649.0184224,-0.830909063658444,1.2955117515670262,2.141672168422769,-0.481359013324775,0.7495572071865946,-0.09221173615384616,-0.16018392976331364,1.0802521831675455e-14,-0.09131148000000001,-0.16091343000000002,-9.818534699999999,0.002832,-0.000591,0.004753,0.06645197743587772
1756986649.04338,-0.8217606089901305,1.28123738130621,2.1416719481111475,-0.4813284345328276,0.7495100966277913,-0.09221173615384616,-0.16018392976331364,9.523720837500416e-15,-0.09655002,-0.14594337000000002,-9.827069400000001,0.002403,-0.000562,0.004724,0.062265491080407
1756986649.0660262,-0.8232371511317172,1.2835225039418026,2.1416718228057317,-0.4812980316971311,0.749463025358987,-0.09221173615384616,-0.16018392976331364,8.937775894352448e-15,-0.08562168,-0.16555356,-9.81449298,0.003417,0.000836,0.004291,0.06272659163075911
1756986649.0863402,-0.8224622567849678,1.2823019345268871,2.1416716842820342,-0.48128310559345405,0.7494400690913072,-0.09221173615384616,-0.16018392976331364,8.391579520209956e-15,-0.10612458,-0.16301277,-9.827814960000001,0.002883,-0.000259,0.004716,0.06231642526015553
1756986649.1068897,-0.8226731542658764,1.2826165743913407,2.1416715349236757,-0.4812708430397013,0.7494212767857636,-0.09221173615384616,-0.16018392976331364,7.878787837752587e-15,-0.09160578000000001,-0.1588239,-9.823626090000001,0.003064,-0.000917,0.00494,0.06233666514258896
1756986649.1271987,-0.8230208493832685,1.283144391142675,2.1416713753049317,-0.4812583923188575,0.7494022039974914,-0.09221173615384616,-0.16018392976331364,7.396944047489295e-15,-0.09160578000000001,-0.15433092,-9.822272309999999,0.003343,-0.000128,0.004839,0.062397280826034185
1756986649.147799,-0.8231184468869268,1.28328292311136,2.1416712053271016,-0.48124887165720304,0.7493877057416504,-0.09221173615384616,-0.16018392976331364,6.944928445663982e-15,-0.08517042000000001,-0.16121754000000002,-9.82616688,0.003213,-4.2e-05,0.003223,0.06235803527416814
1756986649.1681416,-0.8231184468869268,1.28328292311136,2.1416712053271016,-0.48124887165720304,0.7493877057416504,-0.09221173615384616,-0.16018392976331364,6.944928445663982e-15,-0.08517042000000001,-0.16121754000000002,-9.82616688,0.003213,-4.2e-05,0.003223,0.06235803527416814
1756986649.1895018,-0.8346234897741784,1.3011848309747756,2.1416710448828535,-0.48100878926676366,0.7490140523991418,-0.09221173615384616,-0.16018392976331364,6.49116583341201e-15,-0.0981981,-0.15717582000000002,-9.81329616,0.002215,0.001177,0.003363,0.06616673755009077
1756986649.210311,-0.8251626220990064,1.2864263779018223,2.1416706716581846,-0.4808021254331294,0.7486927914663981,-0.09221173615384616,-0.16018392976331364,5.7102221570373496e-15,-0.1038879,-0.16780005,-9.823027680000001,0.00396,0.001238,0.004345,0.06177972762839274
1756986649.230964,-0.8235781156823356,1.2839461806869834,2.1416704658316164,-0.48078700205536945,0.748669612119478,-0.09221173615384616,-0.16018392976331364,5.365246101748568e-15,-0.08712261,-0.16839846000000003,-9.819731520000001,0.003006,-0.000294,0.00393,0.0613740606749676
1756986649.2512763,-0.8249483062248274,1.2860671005386026,2.1416702536641665,-0.4807734654231041,0.7486489441579497,-0.09221173615384616,-0.16018392976331364,5.038300526987576e-15,-0.09325386000000001,-0.15717582000000002,-9.8245188,0.003093,-0.000111,0.003546,0.062052899036569825
1756986649.271484,-0.8248241451638016,1.285861203809539,2.1416700327288964,-0.48077429374392366,0.7486506600912265,-0.09221173615384616,-0.16018392976331364,4.73172555300065e-15,-0.10208286000000001,-0.15762708,-9.81808344,0.003557,-0.000256,0.00476,0.06204992497682217
1756986649.2922926,-0.8242998303023019,1.2850323498975997,2.14166980267827,-0.4807932144854502,0.7486805606287192,-0.09221173615384616,-0.16018392976331364,4.444901278468688e-15,-0.09265545000000001,-0.16765290000000002,-9.819427410000001,0.003746,-0.000351,0.004941,0.06190042403100064
1756986649.3130903,-0.8245230072245583,1.2853676166770445,2.141669564793383,-0.48081839386201725,0.7487202140760781,-0.09221173615384616,-0.16018392976331364,4.175151258856008e-15,-0.10014048,-0.1619631,-9.82466595,0.002909,0.000608,0.00479,0.062032029875545076
1756986649.3331902,-0.824832252810364,1.2858370483002157,2.141669319405258,-0.480845396927368,0.7487627088371043,-0.09221173615384616,-0.16018392976331364,3.921376472979467e-15,-0.08412075,-0.16016787000000002,-9.81344331,0.002445,-0.001407,0.005047,0.06215675160053993
1756986649.354325,-0.8250550253011406,1.2861719650587213,2.1416690666841447,-0.4808729766345225,0.7488061013806299,-0.09221173615384616,-0.16018392976331364,3.682822118423264e-15,-0.08592579,-0.16375833,-9.81823059,0.002337,0.000378,0.003167,0.06222030997869519
1756986649.374537,-0.8254216156048824,1.2867309677414074,2.1416688071145753,-0.4808973628065391,0.7488445203901261,-0.09221173615384616,-0.16018392976331364,3.458409756417128e-15,-0.10478061,-0.17035065,-9.8128449,0.003977,0.000569,0.00399,0.0623174546674824
1756986649.395536,-0.8266462772439627,1.2886262680323437,2.1416685419943526,-0.4809032610043745,0.7488541443675478,-0.09221173615384616,-0.16018392976331364,3.2462430902951976e-15,-0.08831943,-0.15777423000000002,-9.81434583,0.003255,-0.001031,0.004787,0.06268678723369392
1756986649.4158537,-0.8274224331036378,1.2898232903851512,2.141668271123822,-0.4808946025471763,0.7488410955425235,-0.09221173615384616,-0.16018392976331364,3.0464239744945736e-15,-0.09834525,-0.16854560999999998,-9.822272309999999,0.003104,-0.000381,0.004474,0.062825002783201
1756986649.4363396,-0.826323561048829,1.2881006942752402,2.1416679928172524,-0.48090193034394774,0.7488529493971467,-0.09221173615384616,-0.16018392976331364,2.8604788937663033e-15,-0.0928026,-0.15507648,-9.807302250000001,0.003104,-0.000381,0.004474,0.06229891978531617
1756986649.4583,-0.8357785660167455,1.3028125702334503,2.141667708516092,-0.4809132322114134,0.7488710042007337,-0.09221173615384616,-0.16018392976331364,2.6861242649562888e-15,-0.08981055,-0.15447807000000002,-9.80176941,0.002879,0.000198,0.004724,0.06651493696927145
1756986649.4834406,-0.826578634765389,1.288464318423425,2.1416671234703415,-0.4809363284573847,0.7489079066012846,-0.09221173615384616,-0.16018392976331364,2.368547145368453e-15,-0.08816247,-0.15313410000000002,-9.82856052,0.002907,-0.000552,0.005382,0.06230539692491374
1756986649.5064406,-0.8268199321188924,1.288829123236766,2.1416668232345,-0.4809454263933924,0.7489225506908523,-0.09221173615384616,-0.16018392976331364,2.2240028730910033e-15,-0.08772102000000001,-0.16002072,-9.81777933,0.00185,-0.000515,0.002771,0.06234854501906458
1756986649.530431,-0.8279270440821924,1.2905422785136438,2.1416665189474173,-0.4809378242988286,0.7489111886732734,-0.09221173615384616,-0.16018392976331364,2.087473336819026e-15,-0.09011466,-0.16375833,-9.83006145,0.003514,0.000276,0.00442,0.06267803102411436
1756986649.5532796,-0.829676222720825,1.2932553596284748,2.1416662114101346,-0.48089929941690734,0.748851664732108,-0.09221173615384616,-0.16018392976331364,1.9581353366116637e-15,-0.09011466,-0.16466085000000003,-9.824822910000002,0.005688,0.000296,0.004915,0.06315614163861935
1756986649.5744066,-0.8282104266507616,1.2909622483469065,2.1416658981591823,-0.4808826393871964,0.7488261968748671,-0.09221173615384616,-0.16018392976331364,1.838161127476218e-15,-0.09475478999999999,-0.1588239,-9.82601973,0.001663,-5.5e-05,0.003831,0.062439662915168344
1756986649.5950215,-0.8301098464747247,1.293909521731068,2.1416655822927915,-0.4808373819218478,0.748756199182385,-0.09221173615384616,-0.16018392976331364,1.7243568824470564e-15,-0.09834525,-0.15282999000000003,-9.82721655,0.003233,0.001504,0.004539,0.06304088514189196
1756986649.6153212,-0.8290139709501944,1.2921926728533628,2.141665261552541,-0.4808104695850422,0.7487147774775286,-0.09221173615384616,-0.16018392976331364,1.6185329589593514e-15,-0.09684432000000001,-0.16914402,-9.818534699999999,0.002288,-0.000356,0.004245,0.06248791010777492
1756986649.6391246,-0.835055697232179,1.3015905078396,2.1416649418026754,-0.48067537824900886,0.7485048690401273,-0.09221173615384616,-0.16018392976331364,1.5156572203317034e-15,-0.10523187,-0.14909238,-9.823920390000001,0.002835,-0.000852,0.003832,0.06449134426535237
1756986649.6594923,-0.8303840644624867,1.2943057217206377,2.141664614983304,-0.48062076633321,0.7484203027687991,-0.09221173615384616,-0.16018392976331364,1.4224046386196782e-15,-0.09684432000000001,-0.16165899,-9.82332198,0.004175,0.000137,0.00457,0.062414145818288275
1756986649.6835442,-0.8281186714059859,1.2907581321932249,2.1416639495430445,-0.4805937913181406,0.7483793264066916,-0.09221173615384616,-0.16018392976331364,1.2546366824831969e-15,-0.09310671,-0.15373251000000002,-9.82257642,0.004648,-0.000931,0.003158,0.06169410581983296
1756986649.7046037,-0.828821673772344,1.2918430484073944,2.141663611982672,-0.48059884363967986,0.7483877341133076,-0.09221173615384616,-0.16018392976331364,1.1783189571717786e-15,-0.08517042000000001,-0.15043635,-9.829610190000002,0.004544,-0.001289,0.005111,0.062068118826539016
1756986649.7244396,-0.8285476494417496,1.2914066528345416,2.1416632710109926,-0.4806157840397871,0.748414658138175,-0.09221173615384616,-0.16018392976331364,1.1067849776481152e-15,-0.09430353000000001,-0.15762708,-9.82646118,0.004042,0.000577,0.004208,0.062011252952565994
1756986649.7444615,-0.8287562096718635,1.2917218439909086,2.1416629270282694,-0.4806362133107354,0.7484470160025828,-0.09221173615384616,-0.16018392976331364,1.0395143593177797e-15,-0.09460764,-0.16165899,-9.82497006,0.003756,-0.000742,0.006045,0.06212548776445752
1756986649.7655146,-0.8289375073948233,1.29199468738851,2.1416625801500544,-0.48065811813356046,0.7484816697669621,-0.09221173615384616,-0.16018392976331364,9.76276859665413e-16,-0.1038879,-0.1502892,-9.8216739,0.002488,-0.000484,0.0042,0.06219959634601678
1756986649.787515,-0.8310328659273194,1.295248198273716,2.1416622315629876,-0.48064869996090837,0.7484675352005689,-0.09221173615384616,-0.16018392976331364,9.161371408336594e-16,-0.09325386000000001,-0.15806852999999998,-9.81688662,0.002581,2e-05,0.005556,0.06290969515138772
1756986649.8076136,-0.8292514515161529,1.2924649057901283,2.1416618795057296,-0.48066503823845724,0.7484935090883189,-0.09221173615384616,-0.16018392976331364,8.604007715536984e-16,-0.09700128,-0.16270866,-9.81583695,0.003235,-0.000288,0.005345,0.062139315274476456
1756986649.8286607,-0.8294567254242287,1.292775390995316,2.1416615251882947,-0.4806816461559014,0.7485199076973157,-0.09221173615384616,-0.16018392976331364,8.080062357632395e-16,-0.09774684000000002,-0.16076628,-9.816141060000001,0.002674,-0.000669,0.004368,0.062224252656143925
1756986649.8495417,-0.8295632090018641,1.2929321396381075,2.141661168670728,-0.48069868974345326,0.748546986855435,-0.09221173615384616,-0.16018392976331364,7.587911698809965e-16,-0.09056592000000001,-0.16151184,-9.82556847,0.002763,-7.1e-05,0.005138,0.06225238538666854
1756986649.8696368,-0.830275761299765,1.2940327564778853,2.141660810352297,-0.4807058456995795,0.7485586674472624,-0.09221173615384616,-0.16018392976331364,7.123917445848582e-16,-0.10014048,-0.14818986,-9.81164808,0.002942,-0.001135,0.005473,0.062479892827339005
1756986649.8906417,-0.8299487597909632,1.2935146734671288,2.1416604499533616,-0.48071773208557594,0.7485777148020786,-0.09221173615384616,-0.16018392976331364,6.689534829918039e-16,-0.09640287000000002,-0.16061913,-9.820477080000002,0.003561,-0.000672,0.004744,0.06230106785106167
1756986649.9107976,-0.8307237019809985,1.294712637185262,2.141660088072358,-0.4807182039329641,0.7485789863568664,-0.09221173615384616,-0.16018392976331364,6.279919816012439e-16,-0.10432935000000002,-0.15253569,-9.82241946,0.00269,-0.000924,0.005153,0.06254046494722386
1756986649.9317148,-0.8303350486231242,1.2940987375347206,2.1416597244128885,-0.48072420969342383,0.7485888766176929,-0.09221173615384616,-0.16018392976331364,5.896672183270736e-16,-0.09490194,-0.14923953,-9.81329616,0.002871,-2e-06,0.004722,0.06232913094818854
1756986649.9524972,-0.8308013512023741,1.2948162748083007,2.141659359427047,-0.480723922683722,0.7485889687764449,-0.09221173615384616,-0.16018392976331364,5.53600902777146e-16,-0.10478061,-0.15897105,-9.83365191,0.004882,0.001281,0.005408,0.06245896901297746
1756986649.9731047,-0.8312618674441452,1.2955248915177648,2.141658993237378,-0.48071639185723297,0.7485777799139193,-0.09221173615384616,-0.16018392976331364,5.196732850394369e-16,-0.08562168,-0.15777423000000002,-9.81119682,0.002842,-0.000166,0.003312,0.06255831411594717
1756986649.9938552,-0.8328381006279231,1.297970997744914,2.1416586263651256,-0.4806819866932383,0.7485247353562579,-0.09221173615384616,-0.16018392976331364,4.875495035065478e-16,-0.0953532,-0.15897105,-9.82646118,0.003494,-0.001916,0.004771,0.06301951663031755
1756986650.0152206,-0.8313059332598278,1.2955767608230346,2.141658258000067,-0.48067074861403736,0.7485077706716158,-0.09221173615384616,-0.16018392976331364,4.577463993614621e-16,-0.09100737,-0.15642045000000002,-9.83290635,0.003905,-0.000697,0.004327,0.06232177149484084
1756986650.0349407,-0.8315509289952747,1.2959500351893996,2.1416578887966384,-0.4806592224959631,0.7484903635484561,-0.09221173615384616,-0.16018392976331364,4.2974329179904547e-16,-0.08816247,-0.15942231,-9.82332198,0.003512,0.000397,0.005654,0.062392098499290664
1756986650.0552788,-0.8314433850688501,1.2957744182170434,2.1416575187039992,-0.48065234885936586,0.7484802052082511,-0.09221173615384616,-0.16018392976331364,4.034916037653687e-16,-0.09909081000000002,-0.1651023,-9.82406754,0.00271,-0.002123,0.002887,0.06232306806050912
1756986650.0754485,-0.8325253093425544,1.2974511416609418,2.1416571481068685,-0.48063106412120465,0.7484476044084961,-0.09221173615384616,-0.16018392976331364,3.7869550443798856e-16,-0.10358379000000001,-0.16914402,-9.827814960000001,0.003605,-0.000535,0.003563,0.06267522877420025
1756986650.095478,-0.8316970537649897,1.2961533898069204,2.1416567766315326,-0.48062390904648666,0.7484370079178133,-0.09221173615384616,-0.16018392976331364,3.555691782803684e-16,-0.09504909,-0.15672456,-9.82586277,0.00264,-0.000441,0.004318,0.06229561520952677
1756986650.117971,-0.8413351064201852,1.311154070285002,2.1416564046790834,-0.4806124075190722,0.7484196444801922,-0.09221173615384616,-0.16018392976331364,3.338009933143727e-16,-0.08636724,-0.15447807000000002,-9.808351920000002,0.004867,0.00095,0.005296,0.06655556298860127
1756986650.143354,-0.8320261139415384,1.296642376733733,2.1416556591886566,-0.48060491529148025,0.7484090745290525,-0.09221173615384616,-0.16018392976331364,2.9428109361219677e-16,-0.09026181000000001,-0.16390548000000002,-9.819731520000001,0.002776,-0.001401,0.003874,0.06233564766430458
1756986650.1643882,-0.8322512470122971,1.2969853121469856,2.1416552858998337,-0.4806007420339652,0.748403124252928,-0.09221173615384616,-0.16018392976331364,2.762952685368507e-16,-0.09669717,-0.15328125,-9.823027680000001,0.003676,0.000431,0.006842,0.062389230238430855
1756986650.1851463,-0.8452854227916035,1.3172824465917037,2.1416552858998337,-0.4806007420339652,0.748403124252928,-0.09221173615384616,-0.16018392976331364,2.762952685368507e-16,-0.08831943,-0.15462522000000004,-9.823174830000001,0.002879,-0.001228,0.00481,0.06824241546853863
1756986650.205149,-0.832361821774874,1.297142420087443,2.141654539441637,-0.48052702404519015,0.7482893967633198,-0.09221173615384616,-0.16018392976331364,2.4326522726377765e-16,-0.08172711,-0.1651023,-9.81793629,0.001782,-0.001233,0.005661,0.0621041813809922
1756986650.2254307,-0.8326339138699147,1.2975587168776377,2.141654165978524,-0.48051889921919827,0.7482772890248421,-0.09221173615384616,-0.16018392976331364,2.2841628356855943e-16,-0.08921214,-0.15732297,-9.811500930000001,0.002613,-0.001897,0.003878,0.062243400032529
1756986650.246904,-0.8344468387053263,1.3003745082278473,2.141653792778241,-0.48048566110343877,0.7482260713928275,-0.09221173615384616,-0.16018392976331364,2.1432461306486265e-16,-0.09236115,-0.15418377,-9.83634966,0.003041,-0.000677,0.00445,0.06287298157557106
1756986650.266877,-0.8336487204732379,1.2991243910923798,2.141653419599681,-0.4804657935899034,0.7481956736784335,-0.09221173615384616,-0.16018392976331364,2.0118587708317803e-16,-0.09834525,-0.16002072,-9.81449298,0.003523,-8.7e-05,0.005733,0.06247021309171054
1756986650.2873433,-0.8329849173514062,1.298083512044474,2.141653046527411,-0.48046008650563843,0.7481873304660961,-0.09221173615384616,-0.16018392976331364,1.8891319675491364e-16,-0.08741691000000001,-0.16181595000000001,-9.832150980000002,0.002328,-0.000917,0.003295,0.062205918669484994
1756986650.3077855,-0.8333236962052719,1.29860395713582,2.1416526736774264,-0.480454252919708,0.7481787921443366,-0.09221173615384616,-0.16018392976331364,1.7736940526229348e-16,-0.10298538000000002,-0.16002072,-9.807155100000001,0.00365,0.000393,0.004107,0.062341173184859114
1756986650.3283565,-0.8331906767621285,1.2983897779344369,2.141652301035373,-0.48045399811328754,0.748178941089922,-0.09221173615384616,-0.16018392976331364,1.6654572215264482e-16,-0.09624591,-0.17378415000000003,-9.81808344,0.003932,-0.001008,0.005366,0.062280698876362665
1756986650.3487647,-0.8340348812485652,1.2996974326456248,2.1416519287231557,-0.48044358505702517,0.7481632681019885,-0.09221173615384616,-0.16018392976331364,1.563338137406062e-16,-0.10343664,-0.15478218000000002,-9.8216739,0.00284,0.000682,0.004492,0.06256676400094466
1756986650.3688004,-0.8335717259750096,1.298969297203899,2.141651556737399,-0.48044158963109806,0.7481607012282554,-0.09221173615384616,-0.16018392976331364,1.46783501787944e-16,-0.10014048,-0.16585766999999998,-9.819133110000001,0.003523,0.000985,0.00494,0.062341365598934675
1756986650.3894377,-0.8351449163688779,1.301412293608092,2.14165118526393,-0.480416238514896,0.7481217584362082,-0.09221173615384616,-0.16018392976331364,1.3773423082826123e-16,-0.10358379000000001,-0.16151184,-9.81344331,0.003012,-0.000327,0.005549,0.06286487569359404
1756986650.4094698,-0.8336661744068065,1.2991027886761786,2.141650814266301,-0.4804139916707967,0.7481187940159985,-0.09221173615384616,-0.16018392976331364,1.293308744850764e-16,-0.09445068,-0.15747012000000002,-9.820025820000001,0.004549,-0.001787,0.005069,0.062229541714347844
1756986650.4296253,-0.833962985034094,1.2995583076952264,2.1416504438455384,-0.48041117836406577,0.7481149492594681,-0.09221173615384616,-0.16018392976331364,1.2142855330958043e-16,-0.09879651,-0.15971661,-9.83185668,0.003547,0.000279,0.004738,0.0623463143854273
1756986650.4500706,-0.833962985034094,1.2995583076952264,2.1416504438455384,-0.48041117836406577,0.7481149492594681,-0.09221173615384616,-0.16018392976331364,1.2142855330958043e-16,-0.09879651,-0.15971661,-9.83185668,0.003547,0.000279,0.004738,0.0623463143854273
1756986650.4713604,-0.8459677890635368,1.318245967992386,2.1416500747550895,-0.48016058381466664,0.7477251757250916,-0.09221173615384616,-0.16018392976331364,1.1346585101429534e-16,-0.09729558,-0.15402681000000001,-9.820477080000002,0.003319,-0.000445,0.005092,0.06637659945372515
1756986650.49198,-0.8359903223333817,1.302695555232752,2.1416493402259196,-0.4799479683197863,0.7473950625178784,-0.09221173615384616,-0.16018392976331364,9.978873145875434e-17,-0.09340101,-0.1651023,-9.81868185,0.003427,0.000364,0.003324,0.06183766981152147
1756986650.5127828,-0.8342989446451441,1.3000552422032978,2.1416489746857206,-0.47993242691269833,0.7473713903319172,-0.09221173615384616,-0.16018392976331364,9.375028062256913e-17,-0.10223982000000001,-0.16585766999999998,-9.82556847,0.005474,-0.000543,0.002242,0.061433642023732415
1756986650.532835,-0.8340378072192377,1.299642226780269,2.141648610034503,-0.47994109624534914,0.7473854389595413,-0.09221173615384616,-0.16018392976331364,8.80819521154986e-17,-0.08951625,-0.16435674000000003,-9.81898596,0.003881,-0.000598,0.004736,0.061586674700156205
1756986650.553749,-0.8339520606434301,1.2995024037379261,2.141648246056665,-0.47996656805293686,0.7474256595483492,-0.09221173615384616,-0.16018392976331364,8.275476328156554e-17,-0.09700128,-0.14534496,-9.81763218,0.002648,0.000217,0.005593,0.061743750753843474
1756986650.574049,-0.8342388831539623,1.2999428256948147,2.1416478826479928,-0.47999890177102167,0.7474765641606329,-0.09221173615384616,-0.16018392976331364,7.773700599094798e-17,-0.09385227000000002,-0.16406244,-9.81164808,0.004368,-0.001151,0.004602,0.06197860202204058
1756986650.5943172,-0.8344865091335285,1.3003222721206857,2.14164751980638,-0.48003393694019036,0.7475316691439583,-0.09221173615384616,-0.16018392976331364,7.301396000305714e-17,-0.09864936,-0.15687171,-9.81239364,0.002931,-0.000292,0.004257,0.06213812876915227
1756986650.6150339,-0.8345289861065437,1.300382313822362,2.1416471575969993,-0.48007152513972445,0.7475907424113827,-0.09221173615384616,-0.16018392976331364,6.857552900460427e-17,-0.08981055,-0.15926535,-9.80954874,0.003619,0.000749,0.003088,0.062186849333813216
1756986650.6376066,-0.8440131533701246,1.3151454811827334,2.1416467960410746,-0.48009300167411806,0.7476247162349563,-0.09221173615384616,-0.16018392976331364,6.437704825136631e-17,-0.08622009,-0.164808,-9.81434583,0.002937,0.000669,0.004347,0.06634720347934359
1756986650.6576643,-0.8345385395382878,1.300385158325557,2.141646435399447,-0.480129526429632,0.7476821183595886,-0.09221173615384616,-0.16018392976331364,6.046459445833109e-17,-0.08622009,-0.164808,-9.81434583,0.002937,0.000669,0.004347,0.06214362257796425
1756986650.6776538,-0.8442535911707637,1.3155080111092796,2.1416460755557925,-0.4801446623936427,0.7477062068444577,-0.09221173615384616,-0.16018392976331364,5.675681070950911e-17,-0.09624591,-0.14833701000000002,-9.827069400000001,0.002802,-0.0011,0.004217,0.06638846898581843
1756986650.6978412,-0.8347762495758457,1.300743538512371,2.141645716807882,-0.4801752454511057,0.7477543471107899,-0.09221173615384616,-0.16018392976331364,5.330400494020791e-17,-0.10343664,-0.16256151,-9.80565417,0.001943,0.000116,0.002666,0.062177384766785165
1756986650.7228353,-0.8349976505011851,1.301076757149149,2.141645002395082,-0.48021559135114017,0.7478181970950865,-0.09221173615384616,-0.16018392976331364,4.699311527620834e-17,-0.09116433,-0.15237873000000002,-9.808499070000002,0.003618,-0.001909,0.005566,0.06222416431166973
1756986650.743113,-0.8352580415739453,1.301476560876253,2.141644646883085,-0.4802373588031335,0.7478526029738469,-0.09221173615384616,-0.16018392976331364,4.4127081644125524e-17,-0.08277678,-0.16061913,-9.84382488,0.003509,-0.00012,0.004658,0.06233108115638933
1756986650.7640905,-0.8352359966667031,1.3014365966210844,2.1416442925358856,-0.48025878215571993,0.7478864709402625,-0.09221173615384616,-0.16018392976331364,4.143668448855544e-17,-0.09071307,-0.16570071,-9.81299205,0.004104,-0.000919,0.005167,0.06231501950440591
1756986650.7859988,-0.8368495120777313,1.3039436695625333,2.141643939232491,-0.48025303737663716,0.7478780248121734,-0.09221173615384616,-0.16018392976331364,3.8885547582354745e-17,-0.1013373,-0.15971661,-9.81718092,0.002738,0.000206,0.005516,0.06286204949305947
1756986650.8069115,-0.8353467738146488,1.3015979936499733,2.141643587416329,-0.48026742839617,0.7479009335329366,-0.09221173615384616,-0.16018392976331364,3.651602131711471e-17,-0.09430353000000001,-0.15897105,-9.82751085,0.003477,0.001359,0.004206,0.06222342087496834
1756986650.8273864,-0.836227172109405,1.3029635289683623,2.141643236824528,-0.4802690023027598,0.7479038817627712,-0.09221173615384616,-0.16018392976331364,3.427898415998796e-17,-0.09310671,-0.17258733,-9.807302250000001,0.003236,0.000234,0.005274,0.06254691165898284
1756986650.8478947,-0.8360705999076611,1.3027142867110748,2.141642887620854,-0.4802718749166445,0.7479088502317504,-0.09221173615384616,-0.16018392976331364,3.218226002390363e-17,-0.09430353000000001,-0.16270866,-9.839783160000001,0.002957,0.001535,0.004784,0.06244195023668049
1756986650.868739,-0.8365742000268203,1.3034931564351262,2.141642539756986,-0.48026645548492586,0.747900903262409,-0.09221173615384616,-0.16018392976331364,3.0208557428747004e-17,-0.08457201,-0.16256151,-9.81583695,0.003966,-0.001247,0.005615,0.0625881069722571
1756986650.8891575,-0.8368506942885264,1.3039184146935017,2.1416421933104566,-0.48025559797207595,0.7478844846405537,-0.09221173615384616,-0.16018392976331364,2.835402588821821e-17,-0.09340101,-0.15642045000000002,-9.823626090000001,0.004,-0.000881,0.002641,0.06262559265526069
1756986650.909309,-0.8371005609827775,1.304302257985477,2.141641848331881,-0.48024000654539367,0.7478606912816379,-0.09221173615384616,-0.16018392976331364,2.6612014234375902e-17,-0.08996751000000001,-0.16630893,-9.82901178,0.003998,-0.001662,0.003676,0.06264888056191721
1756986650.930286,-0.8385444320756266,1.3065455274363649,2.14164150472687,-0.4801994289812284,0.7477979822460143,-0.09221173615384616,-0.16018392976331364,2.4963915256060195e-17,-0.09236115,-0.1619631,-9.83185668,0.003593,4.2e-05,0.004148,0.06307902587956793
1756986650.9512622,-0.8360152531588486,1.3026017652139321,2.1416411630718546,-0.4801982500679419,0.7477966283275442,-0.09221173615384616,-0.16018392976331364,2.3444029921288858e-17,-0.08277678,-0.17662905,-9.81209934,0.00342,-0.000316,0.003743,0.062057279763298404
1756986650.971926,-0.8364596798971513,1.3032887458413251,2.1416408228959263,-0.48019625084888445,0.7477940004440048,-0.09221173615384616,-0.16018392976331364,2.2012649926472808e-17,-0.09340101,-0.15986376000000002,-9.82556847,0.002039,-0.00129,0.005009,0.06228402752910114
1756986650.9933307,-0.8412036234628968,1.310671255374,2.141640483636815,-0.4801132189466241,0.7476651683997549,-0.09221173615384616,-0.16018392976331364,2.0629654881193954e-17,-0.08532738,-0.15926535,-9.81418887,0.002464,-0.000366,0.004682,0.06391989633311863
1756986651.014174,-0.836372205515624,1.3031424278961796,2.141640146788572,-0.48010627708088405,0.7476548294472124,-0.09221173615384616,-0.16018392976331364,1.937472153001251e-17,-0.09564750000000001,-0.16734879000000003,-9.81793629,0.003455,0.000272,0.006063,0.061926407679481446
1756986651.0342033,-0.8365901900298053,1.3034769241155417,2.1416398115461384,-0.48010519437603427,0.7476536221576882,-0.09221173615384616,-0.16018392976331364,1.8194264374997195e-17,-0.09564750000000001,-0.16600482,-9.81928026,0.003611,-0.000889,0.004417,0.062117429712847505
1756986651.0544963,-0.8364272803835868,1.3032183144635339,2.1416394778765797,-0.4801127985043574,0.7476659441519546,-0.09221173615384616,-0.16018392976331364,1.7086774234930005e-17,-0.10432935000000002,-0.17334270000000002,-9.80985285,0.003499,-8.5e-05,0.004567,0.062123411463738676
1756986651.075299,-0.8374387305548429,1.304788545869079,2.141639145559834,-0.48010930776342803,0.7476609855217383,-0.09221173615384616,-0.16018392976331364,1.6040043736628582e-17,-0.09430353000000001,-0.16016787000000002,-9.82377324,0.004409,-0.000241,0.005388,0.06252427602458578
1756986651.099099,-0.8442303058600167,1.3153600279639375,2.1416388138703013,-0.47997761344543394,0.7474563504415418,-0.09221173615384616,-0.16018392976331364,1.501694623347215e-17,-0.08861373,-0.15402681000000001,-9.803711790000001,0.002048,-0.000321,0.003806,0.06479305631631271
1756986651.1191435,-0.8393349290974347,1.3077318002638598,2.1416384848795573,-0.47992765768215456,0.7473790059961778,-0.09221173615384616,-0.16018392976331364,1.4090719199597352e-17,-0.09550035000000001,-0.16989939,-9.82542132,0.003912,-0.000598,0.004844,0.0625989784829504
1756986651.1428134,-0.8366543317028255,1.3035479329482658,2.141637832786623,-0.4798515885690643,0.7472614573094806,-0.09221173615384616,-0.16018392976331364,1.2413251767913625e-17,-0.10912644,-0.15926535,-9.818534699999999,0.002536,0.000168,0.003468,0.06152206854679873
1756986651.1638644,-0.8361363725331677,1.3027366868681385,2.141637509752755,-0.47987424993985267,0.747297216469163,-0.09221173615384616,-0.16018392976331364,1.1664025466736402e-17,-0.08292393,-0.15282999000000003,-9.818377739999999,0.00323,-0.000487,0.003431,0.06156610841990608
1756986651.1848025,-0.8362328788867216,1.3028823786189616,2.1416371881938314,-0.47990791621604434,0.7473501167619544,-0.09221173615384616,-0.16018392976331364,1.0958810760040789e-17,-0.08876088000000001,-0.16525926000000002,-9.81928026,0.003919,-0.000755,0.004254,0.061791503153386766
1756986651.2050993,-0.8362328788867216,1.3028823786189616,2.1416371881938314,-0.47990791621604434,0.7473501167619544,-0.09221173615384616,-0.16018392976331364,1.0958810760040789e-17,-0.08876088000000001,-0.16525926000000002,-9.81928026,0.003919,-0.000755,0.004254,0.061791503153386766
1756986651.2253292,-0.8362328788867216,1.3028823786189616,2.1416371881938314,-0.47990791621604434,0.7473501167619544,-0.09221173615384616,-0.16018392976331364,1.0958810760040789e-17,-0.08876088000000001,-0.16525926000000002,-9.81928026,0.003919,-0.000755,0.004254,0.061791503153386766
1756986651.2455337,-0.8362328788867216,1.3028823786189616,2.1416371881938314,-0.47990791621604434,0.7473501167619544,-0.09221173615384616,-0.16018392976331364,1.0958810760040789e-17,-0.08876088000000001,-0.16525926000000002,-9.81928026,0.003919,-0.000755,0.004254,0.061791503153386766
1756986651.2657304,-0.8362328788867216,1.3028823786189616,2.1416371881938314,-0.47990791621604434,0.7473501167619544,-0.09221173615384616,-0.16018392976331364,1.0958810760040789e-17,-0.08876088000000001,-0.16525926000000002,-9.81928026,0.003919,-0.000755,0.004254,0.061791503153386766
1756986651.2860134,-0.8362328788867216,1.3028823786189616,2.1416371881938314,-0.47990791621604434,0.7473501167619544,-0.09221173615384616,-0.16018392976331364,1.0958810760040789e-17,-0.08876088000000001,-0.16525926000000002,-9.81928026,0.003919,-0.000755,0.004254,0.061791503153386766
1756986651.30622,-0.8362328788867216,1.3028823786189616,2.1416371881938314,-0.47990791621604434,0.7473501167619544,-0.09221173615384616,-0.16018392976331364,1.0958810760040789e-17,-0.08876088000000001,-0.16525926000000002,-9.81928026,0.003919,-0.000755,0.004254,0.061791503153386766
1756986651.326415,-0.8362328788867216,1.3028823786189616,2.1416371881938314,-0.47990791621604434,0.7473501167619544,-0.09221173615384616,-0.16018392976331364,1.0958810760040789e-17,-0.08876088000000001,-0.16525926000000002,-9.81928026,0.003919,-0.000755,0.004254,0.061791503153386766
