timestamp,accel_x,accel_y,accel_z,gyro_x,gyro_y,gyro_z,mag_x,mag_y,mag_z,gps_lat,gps_lon,gps_alt,gps_accuracy,gps_speed,gps_course,pressure,altitude,roll,pitch,yaw
879034.327063,-0.09759969,-0.15582204,-9.844727400000002,0.004772,0.007083,0.003125,-78.222168,95.819077,-209.208176,60.187678,24.830148,13.271888,19.855396,-1.0,-1.0,100.077316,-0.084549,-0.008211,0.017302,0.762473
879034.387018,-0.06735546,-0.1764819,-9.77781339,0.002963,-0.005198,0.005565,-78.386581,95.605042,-209.203278,60.187678,24.830148,13.271888,19.855396,-1.0,-1.0,100.077316,-0.084549,-0.008185,0.017316,0.762442
879034.426988,-0.05673123,-0.16361118,-9.78859458,0.00493,0.000314,0.003549,-78.196411,95.532547,-209.483017,60.187678,24.830148,13.271888,19.855396,-1.0,-1.0,100.077316,-0.084549,-0.008193,0.017298,0.762434
879034.446972,-0.08951625,-0.16136469,-9.82616688,0.003889,0.001122,0.004935,-78.15387,95.823547,-209.277969,60.187678,24.830148,13.271888,19.855396,-1.0,-1.0,100.077316,-0.084549,-0.008199,0.017321,0.762435
879034.486941,-0.07409493,-0.16825131000000002,-9.81464013,0.003357,-0.001758,0.005253,-78.083237,96.058456,-209.00676,60.187678,24.830148,13.271888,19.855396,-1.0,-1.0,100.077316,-0.084549,-0.008201,0.017314,0.762443
879034.506926,-0.07858791000000001,-0.17543223,-9.831552570000001,0.00153,-0.000525,0.004333,-78.355591,95.722885,-208.941284,60.187678,24.830148,13.271888,19.855396,-1.0,-1.0,100.077316,-0.084549,-0.008212,0.017305,0.762457
879034.526911,-0.07679268,-0.17588349,-9.80266212,0.005039,-0.001086,0.00352,-78.15564,95.792862,-208.912582,60.187667,24.830163,13.390236,19.939844,-1.0,-1.0,100.077316,-0.084549,-0.008203,0.017292,0.76246
879034.526911,-0.07679268,-0.17588349,-9.80266212,0.005039,-0.001086,0.00352,-78.15564,95.792862,-208.912582,60.187667,24.830163,13.390236,19.939844,-1.0,-1.0,100.077316,-0.084549,-0.008203,0.017292,0.76246
879034.566881,-0.07948062,-0.16839846000000003,-9.81449298,0.002232,-0.000579,0.003305,-77.943024,95.710342,-208.99704,60.187667,24.830163,13.390236,19.939844,-1.0,-1.0,100.077316,-0.084549,-0.008202,0.017311,0.76246
879034.586866,-0.07199559,-0.16630893,-9.82856052,0.003556,-0.000305,0.003829,-78.165833,95.636063,-209.078552,60.187667,24.830163,13.390236,19.939844,-1.0,-1.0,100.077316,-0.084549,-0.008212,0.017317,0.762462
879034.60685,-0.08861373,-0.16675038,-9.839037600000001,0.003702,-0.000413,0.002334,-78.023743,95.742477,-209.161087,60.187667,24.830163,13.390236,19.939844,-1.0,-1.0,100.077316,-0.084549,-0.008217,0.017335,0.762465
879034.626835,-0.08262963000000001,-0.1793268,-9.799522920000001,0.002725,0.000305,0.004013,-77.973022,95.905792,-208.764114,60.187667,24.830163,13.390236,19.939844,-1.0,-1.0,100.077316,-0.084549,-0.008201,0.01733,0.762455
879034.64682,-0.08532738,-0.16495515000000002,-9.83035575,0.003172,0.000138,0.005491,-78.014633,95.947479,-209.279266,60.187667,24.830163,13.390236,19.939844,-1.0,-1.0,100.077316,-0.084549,-0.00819,0.017315,0.762449
879034.64682,-0.08532738,-0.16495515000000002,-9.83035575,0.003172,0.000138,0.005491,-78.014633,95.947479,-209.279266,60.187667,24.830163,13.390236,19.939844,-1.0,-1.0,100.077316,-0.084549,-0.00819,0.017315,0.762449
879034.64682,-0.08532738,-0.16495515000000002,-9.83035575,0.003172,0.000138,0.005491,-78.014633,95.947479,-209.279266,60.187667,24.830163,13.390236,19.939844,-1.0,-1.0,100.077316,-0.084549,-0.00819,0.017315,0.762449
879034.64682,-0.08532738,-0.16495515000000002,-9.83035575,0.003172,0.000138,0.005491,-78.014633,95.947479,-209.279266,60.187667,24.830163,13.390236,19.939844,-1.0,-1.0,100.077316,-0.084549,-0.00819,0.017315,0.762449
879034.72676,-0.06765957,-0.17633475,-9.80057259,0.003923,-0.000935,0.004405,-77.854736,96.02092,-209.112869,60.187667,24.830163,13.390236,19.939844,-1.0,-1.0,100.077316,-0.084549,-0.008149,0.017345,0.762448
879034.746745,-0.07484049000000001,-0.17109621000000003,-9.84637548,0.002304,0.000442,0.00487,-77.931137,95.921692,-208.872986,60.187667,24.830163,13.390236,19.939844,-1.0,-1.0,100.077316,-0.084549,-0.008148,0.017359,0.762447
879034.766729,-0.07844076,-0.16256151,-9.801171,0.002745,-0.001166,0.002999,-77.893143,95.784332,-209.18399,60.187667,24.830163,13.390236,19.939844,-1.0,-1.0,100.077316,-0.084549,-0.008136,0.017352,0.762443
879034.786714,-0.08607294000000001,-0.16181595000000001,-9.84592422,0.003359,0.001057,0.005101,-78.038986,95.623047,-209.26915,60.187667,24.830163,13.390236,19.939844,-1.0,-1.0,100.077316,-0.084549,-0.008134,0.017361,0.762438
879034.806699,-0.08277678,-0.16765290000000002,-9.81464013,0.003965,0.000762,0.004497,-77.837753,95.913101,-209.087662,60.187667,24.830163,13.390236,19.939844,-1.0,-1.0,100.077316,-0.084549,-0.008106,0.017362,0.76244
879034.826684,-0.07275096,-0.16241436,-9.79742358,0.003481,-0.000423,0.004255,-77.9814,95.695541,-209.380142,60.187667,24.830163,13.390236,19.939844,-1.0,-1.0,100.077316,-0.084549,-0.00809,0.017365,0.762448
879034.846669,-0.07110288000000001,-0.16645608,-9.834397469999999,0.003995,0.000397,0.003845,-78.070267,95.747925,-208.869171,60.187667,24.830163,13.390236,19.939844,-1.0,-1.0,100.077316,-0.084549,-0.00808,0.017366,0.762439
879034.866654,-0.07320222,-0.18126918000000003,-9.80206371,0.003295,-0.00084,0.00419,-78.188934,95.746338,-209.162415,60.187667,24.830163,13.390236,19.939844,-1.0,-1.0,100.077316,-0.084549,-0.008066,0.017363,0.762435
879034.886639,-0.08262963000000001,-0.16450389,-9.82586277,0.002835,-0.000857,0.002757,-77.953064,95.881058,-209.014313,60.187667,24.830163,13.390236,19.939844,-1.0,-1.0,100.077316,-0.084549,-0.008075,0.017351,0.762432
879034.906624,-0.08352234000000001,-0.17528507999999998,-9.82930608,0.003057,0.000425,0.003847,-77.876099,95.922485,-208.839279,60.187667,24.830163,13.390236,19.939844,-1.0,-1.0,100.077316,-0.084549,-0.008089,0.017356,0.762436
879034.926608,-0.08232552,-0.17064495000000002,-9.80565417,0.004303,-0.001158,0.002523,-77.972015,95.885498,-209.065109,60.187667,24.830163,13.390236,19.939844,-1.0,-1.0,100.077316,-0.084549,-0.008077,0.017356,0.76244
879034.946593,-0.08128566000000001,-0.16884972000000004,-9.84248091,0.001729,-0.000204,0.004521,-78.122498,95.966156,-208.997314,60.187667,24.830163,13.390236,19.939844,-1.0,-1.0,100.077316,-0.084549,-0.008094,0.017369,0.762433
879034.966578,-0.07184844,-0.17513793000000002,-9.80581113,0.003388,-0.000345,0.003109,-78.056076,95.699554,-208.834076,60.187667,24.830163,13.390236,19.939844,-1.0,-1.0,100.077316,-0.084549,-0.008078,0.017362,0.762424
879034.986563,-0.06017454,-0.17289144,-9.84353058,0.002882,0.000736,0.004951,-78.083603,95.926788,-208.756622,60.187667,24.830163,13.390236,19.939844,-1.0,-1.0,100.077316,-0.084549,-0.008079,0.017378,0.762409
879035.006548,-0.06795387,-0.18157329000000003,-9.813590460000002,0.004946,-0.000532,0.003586,-78.083603,95.926788,-208.756622,60.187667,24.830163,13.390236,19.939844,-1.0,-1.0,100.077316,-0.084549,-0.008064,0.017378,0.76241
879035.026533,-0.07873506000000001,-0.16675038,-9.820182780000001,0.004051,-0.000829,0.004145,-78.204056,95.872559,-208.703033,60.187667,24.830163,13.390236,19.939844,-1.0,-1.0,100.077316,-0.084549,-0.008056,0.017385,0.762414
879035.046518,-0.09026181000000001,-0.15956946,-9.83140542,0.002604,-3.8e-05,0.003182,-78.077545,95.984421,-208.775986,60.187667,24.830163,13.390236,19.939844,-1.0,-1.0,100.077316,-0.084549,-0.008063,0.017392,0.762409
879035.086488,-0.08023599000000001,-0.17094906,-9.85027005,0.002903,0.000826,0.003451,-78.122223,96.040466,-208.902985,60.187667,24.830163,13.390236,19.939844,-1.0,-1.0,100.077316,-0.084549,-0.008052,0.017403,0.762399
879035.106472,-0.06452037000000001,-0.16211025,-9.80626239,0.003614,-0.002567,0.004047,-78.033493,96.067627,-208.681946,60.187667,24.830163,13.390236,19.939844,-1.0,-1.0,100.077316,-0.084549,-0.008046,0.017401,0.762386
879035.126457,-0.08053028999999999,-0.16765290000000002,-9.835447140000001,0.002746,-0.002164,0.005206,-78.356766,95.908371,-208.512344,60.187667,24.830163,13.390236,19.939844,-1.0,-1.0,100.077316,-0.084549,-0.008064,0.017399,0.76239
879035.126457,-0.08053028999999999,-0.16765290000000002,-9.835447140000001,0.002746,-0.002164,0.005206,-78.356766,95.908371,-208.512344,60.187667,24.830163,13.390236,19.939844,-1.0,-1.0,100.077316,-0.084549,-0.008064,0.017399,0.76239
879035.166427,-0.07708698000000001,-0.16315992,-9.795775500000001,0.004255,-0.000982,0.002967,-78.155472,95.91713,-209.328964,60.187667,24.830163,13.390236,19.939844,-1.0,-1.0,100.077316,-0.084549,-0.008095,0.01737,0.762386
879035.186412,-0.08203122,-0.16884972000000004,-9.828707670000002,0.00339,-0.00063,0.00664,-78.140198,96.090622,-208.811523,60.187667,24.830163,13.390236,19.939844,-1.0,-1.0,100.077316,-0.084549,-0.008112,0.01738,0.762379
879035.206397,-0.07948062,-0.17678601,-9.80820477,0.003736,-0.000243,0.002556,-78.321533,96.012558,-208.533096,60.187667,24.830163,13.390236,19.939844,-1.0,-1.0,100.077316,-0.084549,-0.008114,0.017369,0.762374
879035.226382,-0.07933347,-0.17094906,-9.831709530000001,0.00351,-0.002211,0.00256,-78.172318,95.926743,-208.841568,60.187667,24.830163,13.390236,19.939844,-1.0,-1.0,100.077316,-0.084549,-0.008116,0.017358,0.76237
879035.226382,-0.07933347,-0.17094906,-9.831709530000001,0.00351,-0.002211,0.00256,-78.172318,95.926743,-208.841568,60.187667,24.830163,13.390236,19.939844,-1.0,-1.0,100.077316,-0.084549,-0.008116,0.017358,0.76237
879035.266352,-0.08636724,-0.16301277,-9.80775351,0.004605,-0.001731,0.004511,-78.014832,96.049637,-208.229797,60.187667,24.830163,13.390236,19.939844,-1.0,-1.0,100.077316,-0.084549,-0.008127,0.017331,0.762368
879035.286336,-0.07289811,-0.16600482,-9.84233376,0.00325,0.001055,0.00469,-78.087784,96.055878,-208.813828,60.187667,24.830163,13.390236,19.939844,-1.0,-1.0,100.077316,-0.084549,-0.008148,0.017325,0.76237
879035.306321,-0.07095573000000001,-0.17528507999999998,-9.795029940000001,0.003972,-0.002818,0.004484,-78.148544,96.13295,-208.484375,60.187667,24.830163,13.390236,19.939844,-1.0,-1.0,100.077316,-0.084549,-0.008139,0.01732,0.762375
879035.326306,-0.08172711,-0.16555356,-9.83679111,0.003426,1.1e-05,0.003523,-78.181808,95.780853,-208.732315,60.187667,24.830163,13.390236,19.939844,-1.0,-1.0,100.077316,-0.084549,-0.008174,0.017322,0.762378
879035.326306,-0.08172711,-0.16555356,-9.83679111,0.003426,1.1e-05,0.003523,-78.181808,95.780853,-208.732315,60.187667,24.830163,13.390236,19.939844,-1.0,-1.0,100.077316,-0.084549,-0.008174,0.017322,0.762378
879035.366276,-0.07708698000000001,-0.17543223,-9.81808344,0.003729,-0.000536,0.003933,-78.074692,96.019852,-208.699799,60.187667,24.830163,13.390236,19.939844,-1.0,-1.0,100.077271,-0.081909,-0.008162,0.017309,0.76237
879035.386261,-0.07454619,-0.16270866,-9.840234420000002,0.001948,-0.000481,0.003292,-78.075684,96.20784,-208.899124,60.187667,24.830163,13.390236,19.939844,-1.0,-1.0,100.077271,-0.081909,-0.008177,0.017318,0.762362
879035.406246,-0.08203122,-0.15851979,-9.79817895,0.004378,3.1e-05,0.005249,-78.129883,96.065613,-208.615173,60.187667,24.830163,13.390236,19.939844,-1.0,-1.0,100.077271,-0.081909,-0.008177,0.017304,0.762348
879035.426231,-0.08562168,-0.164808,-9.848170710000002,0.00188,2e-06,0.004441,-78.018066,95.998306,-208.691132,60.187667,24.830163,13.390236,19.939844,-1.0,-1.0,100.077271,-0.081909,-0.008176,0.017325,0.762348
879035.446216,-0.07933347,-0.16390548000000002,-9.80595828,0.003316,-0.000461,0.004098,-78.131393,96.083069,-208.654755,60.187667,24.830163,13.390236,19.939844,-1.0,-1.0,100.077271,-0.081909,-0.008168,0.01731,0.762348
879035.466201,-0.08128566000000001,-0.16226721000000002,-9.82078119,0.003231,-0.001033,0.004388,-78.091583,96.108124,-209.14566,60.187667,24.830163,13.390236,19.939844,-1.0,-1.0,100.077271,-0.081909,-0.008178,0.017321,0.762342
879035.486186,-0.07574301000000001,-0.16031502,-9.835143030000001,0.004102,0.000398,0.003982,-78.134735,96.07103,-208.81749,60.187667,24.830163,13.390236,19.939844,-1.0,-1.0,100.077271,-0.081909,-0.008181,0.017307,0.762352
879035.50617,-0.08322804,-0.1707921,-9.81014715,0.00512,7e-06,0.003055,-78.126724,95.984848,-208.971207,60.187667,24.830163,13.390236,19.939844,-1.0,-1.0,100.077271,-0.081909,-0.008188,0.017315,0.762355
879035.526155,-0.07978473,-0.16076628,-9.85400766,0.000382,-0.001079,0.005623,-78.11676,96.088074,-208.959457,60.187667,24.830163,13.390236,19.939844,-1.0,-1.0,100.077271,-0.081909,-0.008198,0.01733,0.762335
879035.54614,-0.07724394000000001,-0.1704978,-9.801171,0.002451,-0.001583,0.004202,-78.173767,96.150864,-209.208649,60.187667,24.830163,13.390236,19.939844,-1.0,-1.0,100.077271,-0.081909,-0.008195,0.017316,0.762344
879035.566125,-0.08203122,-0.16870257000000002,-9.820025820000001,0.003558,-0.00209,0.002599,-78.199387,95.911011,-208.954422,60.187667,24.830163,13.390236,19.939844,-1.0,-1.0,100.077271,-0.081909,-0.008183,0.017333,0.762344
879035.58611,-0.06615864,-0.1588239,-9.82078119,0.003592,-4.8e-05,0.00438,-78.140152,96.101089,-209.082703,60.187667,24.830163,13.390236,19.939844,-1.0,-1.0,100.077271,-0.081909,-0.008185,0.017334,0.762325
879035.606095,-0.07304526,-0.17513793000000002,-9.790988220000001,0.005709,-0.002888,0.003159,-78.053741,95.832306,-209.30304,60.187667,24.830163,13.390236,19.939844,-1.0,-1.0,100.077271,-0.081909,-0.008163,0.017352,0.762319
879035.62608,-0.08951625,-0.16794720000000002,-9.820182780000001,0.004467,0.000443,0.005101,-78.237228,95.898727,-209.006363,60.187667,24.830163,13.390236,19.939844,-1.0,-1.0,100.077271,-0.081909,-0.00816,0.017386,0.762315
879035.646065,-0.07784234999999999,-0.17035065,-9.78215922,0.002876,-0.002365,0.005452,-78.034088,96.001556,-208.734619,60.187667,24.830163,13.390236,19.939844,-1.0,-1.0,100.077271,-0.081909,-0.008153,0.01739,0.762318
879035.66605,-0.07813665,-0.16750575,-9.82586277,0.001693,-0.002653,0.004808,-78.073502,96.058029,-208.761642,60.187667,24.830163,13.390236,19.939844,-1.0,-1.0,100.077271,-0.081909,-0.00819,0.017377,0.762323
879035.686035,-0.07559586,-0.17468667000000002,-9.81509139,0.00165,-0.003055,0.004598,-78.065048,96.164856,-209.020752,60.187667,24.830163,13.390236,19.939844,-1.0,-1.0,100.077271,-0.081909,-0.008213,0.017353,0.762327
879035.70602,-0.07199559,-0.16450389,-9.80581113,0.002414,-0.002434,0.003316,-78.099854,96.134445,-209.121414,60.187667,24.830163,13.390236,19.939844,-1.0,-1.0,100.077271,-0.081909,-0.008255,0.017329,0.762323
879035.726004,-0.07260381,-0.17423541,-9.83769363,0.002487,0.000523,0.004126,-78.099854,96.134445,-209.121414,60.187667,24.830163,13.390236,19.939844,-1.0,-1.0,100.077271,-0.081909,-0.00829,0.017303,0.76231
879035.765974,-0.0811287,-0.16839846000000003,-9.8358984,0.000927,-0.001231,0.004255,-78.086868,95.988998,-209.13443,60.187667,24.830163,13.390236,19.939844,-1.0,-1.0,100.077271,-0.081909,-0.008303,0.017287,0.762315
879035.765974,-0.0811287,-0.16839846000000003,-9.8358984,0.000927,-0.001231,0.004255,-78.086868,95.988998,-209.13443,60.187667,24.830163,13.390236,19.939844,-1.0,-1.0,100.077271,-0.081909,-0.008303,0.017287,0.762315
879035.805944,-0.0782838,-0.16959528000000001,-9.8128449,0.003545,-0.000268,0.004912,-78.060638,95.99118,-208.574707,60.187667,24.830163,13.390236,19.939844,-1.0,-1.0,100.077271,-0.081909,-0.008288,0.017283,0.762316
879035.825929,-0.08352234000000001,-0.17528507999999998,-9.82646118,0.003453,-0.00043,0.00448,-78.03714,96.103683,-208.67131,60.187667,24.830163,13.390236,19.939844,-1.0,-1.0,100.077271,-0.081909,-0.008265,0.017294,0.762323
879035.825929,-0.08352234000000001,-0.17528507999999998,-9.82646118,0.003453,-0.00043,0.00448,-78.03714,96.103683,-208.67131,60.187667,24.830163,13.390236,19.939844,-1.0,-1.0,100.077271,-0.081909,-0.008265,0.017294,0.762323
879035.845914,-0.06870924,-0.17109621000000003,-9.80655669,0.00382,0.000846,0.005444,-78.195984,95.753174,-209.0289,60.187667,24.830163,13.390236,19.939844,-1.0,-1.0,100.077271,-0.081909,-0.008251,0.017303,0.762326
879035.885884,-0.08128566000000001,-0.16720164,-9.79398027,0.002893,0.000312,0.003396,-78.128281,95.801102,-209.134995,60.187667,24.830163,13.390236,19.939844,-1.0,-1.0,100.077271,-0.081909,-0.008201,0.017306,0.76233
879035.885884,-0.08128566000000001,-0.16720164,-9.79398027,0.002893,0.000312,0.003396,-78.128281,95.801102,-209.134995,60.187667,24.830163,13.390236,19.939844,-1.0,-1.0,100.077271,-0.081909,-0.008201,0.017306,0.76233
879035.925854,-0.08248248000000001,-0.16870257000000002,-9.826912440000001,0.001949,0.000228,0.003518,-78.2034,95.902298,-209.19458,60.187667,24.830163,13.390236,19.939844,-1.0,-1.0,100.077271,-0.081909,-0.008156,0.017317,0.762331
879035.945839,-0.06885639,-0.17229302999999999,-9.80026848,0.004018,3.9e-05,0.004642,-78.044525,95.870193,-208.816879,60.187667,24.830163,13.390236,19.939844,-1.0,-1.0,100.077271,-0.081909,-0.008146,0.017302,0.762344
879035.945839,-0.06885639,-0.17229302999999999,-9.80026848,0.004018,3.9e-05,0.004642,-78.044525,95.870193,-208.816879,60.187667,24.830163,13.390236,19.939844,-1.0,-1.0,100.077271,-0.081909,-0.008146,0.017302,0.762344
879035.985808,-0.07529175,-0.17184177000000003,-9.796079610000001,0.002689,0.001089,0.004552,-78.206299,95.905701,-208.769745,60.187667,24.830163,13.390236,19.939844,-1.0,-1.0,100.077271,-0.081909,-0.008134,0.017299,0.762345
879036.005793,-0.0836793,-0.16585766999999998,-9.82078119,0.002551,-0.000238,0.004927,-78.435913,95.949921,-209.004532,60.187667,24.830163,13.390236,19.939844,-1.0,-1.0,100.077271,-0.081909,-0.008129,0.017302,0.762347
879036.025778,-0.07708698000000001,-0.15253569,-9.82466595,0.003533,0.000493,0.004918,-78.195541,95.871277,-208.739532,60.187667,24.830163,13.390236,19.939844,-1.0,-1.0,100.077271,-0.081909,-0.008123,0.017304,0.762346
879036.045763,-0.07693983,-0.16615197,-9.80461431,0.004008,-9.9e-05,0.0034,-78.141891,95.968536,-209.176071,60.187667,24.830163,13.390236,19.939844,-1.0,-1.0,100.077271,-0.081909,-0.008107,0.017311,0.762354
879036.065748,-0.09100737,-0.16854560999999998,-9.846826740000001,0.001641,0.00026,0.003002,-77.991074,96.166,-208.844116,60.187667,24.830163,13.390236,19.939844,-1.0,-1.0,100.077271,-0.081909,-0.008113,0.017314,0.76235
879036.085733,-0.08038314,-0.17244018,-9.7954812,0.003697,-0.000164,0.002972,-78.146896,96.022095,-209.338669,60.187667,24.830163,13.390236,19.939844,-1.0,-1.0,100.077271,-0.081909,-0.008096,0.017307,0.762341
879036.105718,-0.07244685000000001,-0.16899687,-9.82946304,0.003404,-0.000512,0.004092,-78.096207,96.087296,-208.939468,60.187667,24.830163,13.390236,19.939844,-1.0,-1.0,100.077271,-0.081909,-0.008099,0.017302,0.762338
879036.125703,-0.07768539,-0.16226721000000002,-9.80670384,0.003881,-0.001318,0.005192,-77.947113,96.002579,-209.157608,60.187667,24.830163,13.390236,19.939844,-1.0,-1.0,100.077271,-0.081909,-0.008095,0.017292,0.762335
879036.145688,-0.07005321,-0.16854560999999998,-9.796678020000002,0.004474,-0.000677,0.004396,-78.119644,96.022919,-208.79686,60.187667,24.830163,13.390236,19.939844,-1.0,-1.0,100.077271,-0.081909,-0.008105,0.017291,0.762344
879036.165673,-0.09011466,-0.16734879000000003,-9.833053500000002,0.00353,-0.000473,0.004244,-78.124252,95.940063,-208.876953,60.187667,24.830163,13.390236,19.939844,-1.0,-1.0,100.077271,-0.081909,-0.008109,0.017297,0.76235
879036.185658,-0.07184844,-0.17035065,-9.79847325,0.00358,-0.000588,0.005285,-78.107269,95.954315,-208.896759,60.187667,24.830163,13.390236,19.939844,-1.0,-1.0,100.077271,-0.081909,-0.008103,0.017296,0.762357
879036.205643,-0.08188407,-0.17109621000000003,-9.82901178,0.003357,-0.001165,0.003372,-78.063675,95.941925,-209.060074,60.187667,24.830163,13.390236,19.939844,-1.0,-1.0,100.077271,-0.081909,-0.008104,0.017298,0.762359
879036.225628,-0.0811287,-0.17184177000000003,-9.80445735,0.002504,0.000281,0.004757,-77.931442,96.034546,-209.255417,60.187667,24.830163,13.390236,19.939844,-1.0,-1.0,100.077271,-0.081909,-0.008106,0.017291,0.762352
879036.245613,-0.07844076,-0.15672456,-9.81777933,0.001914,-0.000351,0.003223,-78.140305,96.020248,-209.069061,60.187667,24.830163,13.390236,19.939844,-1.0,-1.0,100.077271,-0.081909,-0.008098,0.017288,0.762351
879036.245613,-0.07844076,-0.15672456,-9.81777933,0.001914,-0.000351,0.003223,-78.140305,96.020248,-209.069061,60.187667,24.830163,13.390236,19.939844,-1.0,-1.0,100.077271,-0.081909,-0.008098,0.017288,0.762351
879036.285582,-0.07050447,-0.17842428,-9.79473564,0.003991,-0.000213,0.004343,-77.949539,95.89917,-208.803802,60.187667,24.830163,13.390236,19.939844,-1.0,-1.0,100.077271,-0.081909,-0.008087,0.017294,0.762352
879036.305567,-0.08262963000000001,-0.16346403,-9.844727400000002,0.003901,-0.000574,0.004373,-78.145782,95.990082,-209.045975,60.187667,24.830163,13.390236,19.939844,-1.0,-1.0,100.077271,-0.081909,-0.008085,0.017295,0.762364
879036.325552,-0.08636724,-0.173637,-9.80281908,0.005861,0.000664,0.003938,-77.963821,95.968353,-209.154053,60.187667,24.830163,13.390236,19.939844,-1.0,-1.0,100.077271,-0.081909,-0.008077,0.0173,0.762376
879036.345537,-0.07469334000000001,-0.1562733,-9.827814960000001,0.005287,-0.001332,0.003354,-78.039871,95.846909,-208.943741,60.187667,24.830163,13.390236,19.939844,-1.0,-1.0,100.077271,-0.081909,-0.008069,0.017337,0.762372
879036.365522,-0.08921214,-0.17334270000000002,-9.823469130000001,0.003128,-0.000383,0.005236,-78.15062,95.900269,-209.099335,60.187667,24.830163,13.390236,19.939844,-1.0,-1.0,100.077271,-0.081909,-0.00808,0.017344,0.762371
879036.385507,-0.07260381,-0.15478218000000002,-9.79593246,0.00234,-0.000945,0.004251,-78.162186,95.780579,-209.149918,60.187667,24.830163,13.390236,19.939844,-1.0,-1.0,100.077271,-0.081909,-0.008067,0.01735,0.762377
879036.405492,-0.09026181000000001,-0.17004654,-9.831709530000001,0.001767,-0.000156,0.003961,-77.878632,96.086578,-208.816849,60.187667,24.830163,13.390236,19.939844,-1.0,-1.0,100.077271,-0.081909,-0.008076,0.017346,0.762366
879036.425477,-0.07933347,-0.16585766999999998,-9.79742358,0.003335,-0.000484,0.003031,-77.878632,96.086578,-208.816849,60.187667,24.830163,13.390236,19.939844,-1.0,-1.0,100.077415,-0.092476,-0.008074,0.017327,0.762367
879036.445462,-0.08232552,-0.164808,-9.829610190000002,0.0038,-0.000446,0.002902,-78.008057,96.120453,-208.837723,60.187667,24.830163,13.390236,19.939844,-1.0,-1.0,100.077415,-0.092476,-0.008078,0.017335,0.762368
879036.465447,-0.07784234999999999,-0.16555356,-9.81583695,0.003887,0.000191,0.004914,-78.170029,95.951324,-208.639404,60.187667,24.830163,13.390236,19.939844,-1.0,-1.0,100.077415,-0.092476,-0.008076,0.017347,0.76237
879036.505417,-0.07784234999999999,-0.16165899,-9.83814489,0.00442,-0.001018,0.004114,-78.110519,95.978821,-209.002426,60.187667,24.830163,13.390236,19.939844,-1.0,-1.0,100.077415,-0.092476,-0.008092,0.017364,0.762368
879036.505417,-0.07784234999999999,-0.16165899,-9.83814489,0.00442,-0.001018,0.004114,-78.110519,95.978821,-209.002426,60.187667,24.830163,13.390236,19.939844,-1.0,-1.0,100.077415,-0.092476,-0.008092,0.017364,0.762368
879036.525402,-0.08098155,-0.17483382000000003,-9.80086689,0.003704,-0.000531,0.006274,-78.022354,96.132217,-208.81131,60.187667,24.830163,13.390236,19.939844,-1.0,-1.0,100.077415,-0.092476,-0.008091,0.017357,0.762362
879036.565372,-0.08861373,-0.15342840000000002,-9.80670384,0.0037,-0.000244,0.004186,-78.001968,95.960831,-208.728912,60.187667,24.830163,13.390236,19.939844,-1.0,-1.0,100.077415,-0.092476,-0.008098,0.017347,0.76236
879036.585357,-0.08203122,-0.16645608,-9.80670384,0.004183,-0.001548,0.004157,-78.081894,96.179291,-208.880981,60.187667,24.830163,13.390236,19.939844,-1.0,-1.0,100.077415,-0.092476,-0.008092,0.017356,0.762356
879036.605342,-0.08067744,-0.16450389,-9.84098979,0.003023,-0.000193,0.001668,-77.931839,96.116318,-208.860931,60.187667,24.830163,13.390236,19.939844,-1.0,-1.0,100.077415,-0.092476,-0.008107,0.017358,0.762359
879036.625327,-0.07933347,-0.15642045000000002,-9.80670384,0.00449,0.000103,0.005999,-78.092728,96.118439,-208.939255,60.187667,24.830163,13.390236,19.939844,-1.0,-1.0,100.077415,-0.092476,-0.008111,0.017346,0.762348
879036.645312,-0.09131148000000001,-0.17124336,-9.834397469999999,0.003577,-0.001135,0.00347,-78.069717,96.0914,-208.934158,60.187667,24.830163,13.390236,19.939844,-1.0,-1.0,100.077415,-0.092476,-0.008109,0.017349,0.762352
879036.645312,-0.09131148000000001,-0.17124336,-9.834397469999999,0.003577,-0.001135,0.00347,-78.069717,96.0914,-208.934158,60.187667,24.830163,13.390236,19.939844,-1.0,-1.0,100.077415,-0.092476,-0.008109,0.017349,0.762352
879036.685281,-0.09040896000000001,-0.16061913,-9.80775351,0.00454,-0.001134,0.005975,-77.918381,96.032257,-209.082718,60.187667,24.830163,13.390236,19.939844,-1.0,-1.0,100.077415,-0.092476,-0.008119,0.017335,0.762348
879036.685281,-0.09040896000000001,-0.16061913,-9.80775351,0.00454,-0.001134,0.005975,-77.918381,96.032257,-209.082718,60.187667,24.830163,13.390236,19.939844,-1.0,-1.0,100.077415,-0.092476,-0.008119,0.017335,0.762348
879036.725251,-0.07050447,-0.16420959000000002,-9.813590460000002,0.002615,0.000377,0.004482,-78.002914,96.007782,-209.181778,60.187667,24.830163,13.390236,19.939844,-1.0,-1.0,100.077415,-0.092476,-0.008139,0.01733,0.76238
879036.745236,-0.07813665,-0.17453952,-9.830502899999999,0.004197,-0.001031,0.003863,-77.966965,95.917435,-209.191132,60.187667,24.830163,13.390236,19.939844,-1.0,-1.0,100.077415,-0.092476,-0.008144,0.017326,0.762382
879036.765221,-0.07199559,-0.16884972000000004,-9.803260530000001,0.003704,-0.001103,0.002913,-78.068726,96.139236,-209.195602,60.187667,24.830163,13.390236,19.939844,-1.0,-1.0,100.077415,-0.092476,-0.008144,0.017338,0.762379
879036.785206,-0.08772102000000001,-0.17229302999999999,-9.8361927,0.003298,-0.000655,0.003364,-77.831985,96.272675,-208.976624,60.187667,24.830163,13.390236,19.939844,-1.0,-1.0,100.077415,-0.092476,-0.008145,0.017343,0.762371
879036.805191,-0.08322804,-0.16375833,-9.820928340000002,0.004019,0.000486,0.003759,-78.138245,96.130356,-208.942749,60.187667,24.830163,13.390236,19.939844,-1.0,-1.0,100.077415,-0.092476,-0.008147,0.017342,0.762375
879036.825176,-0.059428980000000006,-0.17124336,-9.80565417,0.003744,-0.001521,0.00497,-78.094406,96.109894,-208.946655,60.187667,24.830163,13.390236,19.939844,-1.0,-1.0,100.077415,-0.092476,-0.008135,0.017337,0.762369
879036.845161,-0.07170129,-0.16989939,-9.825715620000002,0.002941,4e-06,0.004814,-77.860199,96.143417,-209.235168,60.187667,24.830163,13.390236,19.939844,-1.0,-1.0,100.077415,-0.092476,-0.008138,0.017344,0.762369
879036.865146,-0.08427771,-0.17318574,-9.80595828,0.003544,-0.000593,0.004901,-77.903915,95.990112,-209.170456,60.187667,24.830163,13.390236,19.939844,-1.0,-1.0,100.077415,-0.092476,-0.008119,0.017345,0.762371
879036.885131,-0.07020036,-0.15777423000000002,-9.82631403,0.002841,-0.001295,0.004873,-78.207962,96.082504,-209.012405,60.187667,24.830163,13.390236,19.939844,-1.0,-1.0,100.077415,-0.092476,-0.008124,0.017356,0.762373
879036.905116,-0.07589016,-0.17019369,-9.82062423,0.002103,-6.6e-05,0.00446,-77.9823,96.148849,-209.171127,60.187667,24.830163,13.390236,19.939844,-1.0,-1.0,100.077415,-0.092476,-0.008124,0.017338,0.762381
879036.925101,-0.07963758,-0.16270866,-9.80550702,0.00402,5.6e-05,0.003218,-78.002686,96.165497,-209.178711,60.187667,24.830163,13.390236,19.939844,-1.0,-1.0,100.077415,-0.092476,-0.008104,0.017328,0.76238
879036.945086,-0.08188407,-0.16600482,-9.819731520000001,0.002532,-5.5e-05,0.004368,-77.94339,95.958557,-209.046295,60.187667,24.830163,13.390236,19.939844,-1.0,-1.0,100.077415,-0.092476,-0.00808,0.017327,0.762371
879036.965071,-0.07469334000000001,-0.17678601,-9.799974180000001,0.001986,-0.000729,0.003144,-77.958511,95.9646,-209.050552,60.187667,24.830163,13.390236,19.939844,-1.0,-1.0,100.077415,-0.092476,-0.008069,0.017314,0.762364
879036.985056,-0.08576883000000002,-0.17184177000000003,-9.82586277,0.001584,-0.000572,0.004863,-77.879929,95.938049,-209.138565,60.187667,24.830163,13.390236,19.939844,-1.0,-1.0,100.077415,-0.092476,-0.008066,0.017293,0.762354
879037.005041,-0.08756406,-0.17887554,-9.812246490000001,0.003232,0.000216,0.005063,-77.980484,96.104767,-208.881363,60.187667,24.830163,13.390236,19.939844,-1.0,-1.0,100.077415,-0.092476,-0.008059,0.017269,0.762357
879037.025026,-0.07993188000000001,-0.16660323000000002,-9.81928026,0.003658,-0.00011,0.002183,-77.891251,96.161499,-208.886246,60.187667,24.830163,13.390236,19.939844,-1.0,-1.0,100.077415,-0.092476,-0.008066,0.017262,0.762358
879037.045011,-0.08023599000000001,-0.16705449,-9.8213796,0.003239,0.000586,0.00531,-78.105118,95.886551,-209.266129,60.187667,24.830163,13.390236,19.939844,-1.0,-1.0,100.077415,-0.092476,-0.008053,0.017262,0.762346
879037.064996,-0.08308089000000002,-0.17603064000000002,-9.7986204,0.002539,-0.0001,0.003209,-77.953262,95.890182,-209.088638,60.187667,24.830163,13.390236,19.939844,-1.0,-1.0,100.077415,-0.092476,-0.008043,0.017259,0.762348
879037.084981,-0.07050447,-0.17499078,-9.835751250000001,0.002085,-4.1e-05,0.00459,-78.060318,95.93396,-208.939209,60.187667,24.830163,13.390236,19.939844,-1.0,-1.0,100.077415,-0.092476,-0.008038,0.017262,0.762334
879037.124951,-0.08562168,-0.16570071,-9.816739470000002,0.00362,-0.000793,0.003286,-77.813751,96.069199,-208.849182,60.187667,24.830163,13.390236,19.939844,-1.0,-1.0,100.077415,-0.092476,-0.008018,0.017239,0.76233
879037.144936,-0.07574301000000001,-0.16765290000000002,-9.824822910000002,0.004426,-7.5e-05,0.004432,-77.813751,96.069199,-208.849182,60.187667,24.830163,13.390236,19.939844,-1.0,-1.0,100.077415,-0.092476,-0.008019,0.017228,0.762322
879037.164921,-0.07724394000000001,-0.16720164,-9.807302250000001,0.003402,0.0003,0.005454,-78.006821,95.966141,-208.777618,60.187667,24.830163,13.390236,19.939844,-1.0,-1.0,100.077415,-0.092476,-0.008013,0.017231,0.762324
879037.184906,-0.0751446,-0.17198892,-9.83829204,0.002391,0.000427,0.004557,-77.910416,96.129227,-208.950089,60.187667,24.830163,13.390236,19.939844,-1.0,-1.0,100.077415,-0.092476,-0.008003,0.017233,0.76233
879037.204891,-0.07244685000000001,-0.16734879000000003,-9.80385894,0.002045,-0.000251,0.00464,-77.78688,95.940887,-208.951538,60.187667,24.830163,13.390236,19.939844,-1.0,-1.0,100.077415,-0.092476,-0.007983,0.017214,0.762334
879037.224876,-0.07844076,-0.16974243,-9.82078119,0.003543,0.000507,0.004014,-78.040436,95.941086,-208.84787,60.187667,24.830163,13.390236,19.939844,-1.0,-1.0,100.077415,-0.092476,-0.007983,0.017214,0.762333
879037.224876,-0.07844076,-0.16974243,-9.82078119,0.003543,0.000507,0.004014,-78.040436,95.941086,-208.84787,60.187667,24.830163,13.390236,19.939844,-1.0,-1.0,100.077415,-0.092476,-0.007983,0.017214,0.762333
879037.264846,-0.0751446,-0.16046217000000002,-9.811343970000001,0.003785,-0.000775,0.004079,-77.963181,95.956451,-208.845551,60.187667,24.830163,13.390236,19.939844,-1.0,-1.0,100.077415,-0.092476,-0.007973,0.017228,0.762325
879037.284831,-0.07155414,-0.16301277,-9.82975734,0.003044,-0.00028,0.004511,-78.020752,95.914047,-208.832672,60.187667,24.830163,13.390236,19.939844,-1.0,-1.0,100.077415,-0.092476,-0.007972,0.017217,0.762318
879037.304816,-0.08517042000000001,-0.16989939,-9.7954812,0.004012,7.7e-05,0.00451,-77.934708,95.960159,-209.010712,60.187667,24.830163,13.390236,19.939844,-1.0,-1.0,100.077415,-0.092476,-0.00798,0.017227,0.762314
879037.324801,-0.07844076,-0.18022932,-9.8333478,0.004176,-0.000333,0.003393,-77.889343,96.053009,-209.024109,60.187667,24.830163,13.390236,19.939844,-1.0,-1.0,100.077415,-0.092476,-0.007983,0.017239,0.762313
879037.344786,-0.0782838,-0.17064495000000002,-9.81254079,0.002857,-2.3e-05,0.004505,-77.908127,96.111847,-208.769073,60.187667,24.830163,13.390236,19.939844,-1.0,-1.0,100.077415,-0.092476,-0.007981,0.017255,0.762303
879037.364771,-0.07215255000000001,-0.164808,-9.81928026,0.004551,-0.000663,0.004483,-77.747696,95.963821,-208.653214,60.187667,24.830163,13.390236,19.939844,-1.0,-1.0,100.077415,-0.092476,-0.007987,0.017253,0.762299
879037.384756,-0.07260381,-0.16959528000000001,-9.82107549,0.002072,-0.000787,0.003397,-77.865082,95.905212,-208.966888,60.187667,24.830163,13.390236,19.939844,-1.0,-1.0,100.077415,-0.092476,-0.007991,0.017265,0.762297
879037.404741,-0.06840513000000001,-0.17887554,-9.80445735,0.003225,-0.000829,0.005123,-77.973755,95.915466,-209.036545,60.187667,24.830163,13.390236,19.939844,-1.0,-1.0,100.077415,-0.092476,-0.007986,0.017247,0.762295
879037.424725,-0.08592579,-0.16825131000000002,-9.82542132,0.002031,-0.000532,0.004228,-77.886475,95.944794,-208.99968,60.187667,24.830163,13.390236,19.939844,-1.0,-1.0,100.077415,-0.092476,-0.007984,0.017252,0.762292
879037.444711,-0.08007903000000001,-0.17169462000000002,-9.80954874,0.002715,-0.00183,0.003242,-77.821426,96.191315,-208.76416,60.187667,24.830163,13.390236,19.939844,-1.0,-1.0,100.077415,-0.092476,-0.007995,0.017233,0.762281
879037.464696,-0.0754389,-0.17408826000000002,-9.80565417,0.002463,-0.002516,0.005117,-77.702896,96.204941,-208.823395,60.187667,24.830163,13.390236,19.939844,-1.0,-1.0,100.077415,-0.092476,-0.008006,0.017234,0.762281
879037.48468,-0.06960195,-0.17198892,-9.81718092,0.003045,-9.6e-05,0.004536,-78.031036,96.113022,-209.038986,60.187667,24.830163,13.390236,19.939844,-1.0,-1.0,100.077415,-0.092476,-0.008018,0.017234,0.762279
879037.504666,-0.07873506000000001,-0.17289144,-9.820182780000001,0.004934,-0.001401,0.003813,-77.695358,96.103546,-208.932007,60.187667,24.830163,13.390236,19.939844,-1.0,-1.0,100.077415,-0.092476,-0.008018,0.017241,0.762275
879037.52465,-0.08248248000000001,-0.1761876,-9.81494424,0.003332,0.000716,0.003935,-77.947342,96.071899,-209.172348,60.187667,24.830163,13.390236,19.939844,-1.0,-1.0,100.077415,-0.092476,-0.008024,0.017262,0.762273
879037.544635,-0.08352234000000001,-0.17064495000000002,-9.818829,0.002678,-0.001135,0.003332,-77.811783,96.123306,-208.794937,60.187667,24.830163,13.390236,19.939844,-1.0,-1.0,100.077415,-0.092476,-0.008022,0.017268,0.762263
879037.56462,-0.08053028999999999,-0.15837263999999998,-9.816141060000001,0.003022,0.00065,0.004681,-78.202255,95.99614,-209.242386,60.187667,24.830163,13.390236,19.939844,-1.0,-1.0,100.077415,-0.092476,-0.00803,0.017287,0.762247
879037.584605,-0.07380063,-0.16450389,-9.832307940000002,0.003878,-0.000929,0.00372,-77.996948,95.963364,-209.202164,60.187667,24.830163,13.390236,19.939844,-1.0,-1.0,100.077415,-0.092476,-0.008007,0.017292,0.762251
879037.60459,-0.07184844,-0.17678601,-9.81688662,0.003514,-0.000506,0.00267,-78.113541,95.917191,-209.141724,60.187667,24.830163,13.390236,19.939844,-1.0,-1.0,100.077415,-0.092476,-0.008014,0.017303,0.762238
879037.624575,-0.07993188000000001,-0.16555356,-9.81164808,0.002513,-0.00058,0.00502,-77.652206,96.17514,-209.117752,60.187667,24.830163,13.390236,19.939844,-1.0,-1.0,100.077415,-0.092476,-0.008023,0.017312,0.76222
879037.64456,-0.08921214,-0.15387966,-9.817485030000002,0.004217,-0.000446,0.003461,-77.954712,95.904068,-209.303162,60.187667,24.830163,13.390236,19.939844,-1.0,-1.0,100.077415,-0.092476,-0.008026,0.017306,0.762224
879037.664545,-0.07229970000000001,-0.18411408,-9.811343970000001,0.003811,2.3e-05,0.005798,-77.889008,95.999802,-209.550064,60.187667,24.830163,13.390236,19.939844,-1.0,-1.0,100.077415,-0.092476,-0.008026,0.017312,0.762208
879037.684531,-0.06571719000000001,-0.16466085000000003,-9.83350476,0.004355,-0.000872,0.004831,-77.857224,96.206543,-209.184174,60.187667,24.830163,13.390236,19.939844,-1.0,-1.0,100.077415,-0.092476,-0.008026,0.01731,0.762213
879037.704515,-0.07110288000000001,-0.16765290000000002,-9.819427410000001,0.004175,0.000258,0.005323,-77.664886,96.086212,-209.195358,60.187667,24.830163,13.390236,19.939844,-1.0,-1.0,100.077415,-0.092476,-0.00803,0.017328,0.762217
879037.7245,-0.07439904,-0.16420959000000002,-9.81344331,0.002657,-2.8e-05,0.00448,-77.891785,95.939728,-209.128937,60.187667,24.830163,13.390236,19.939844,-1.0,-1.0,100.077415,-0.092476,-0.008023,0.017336,0.762219
879037.744486,-0.07304526,-0.16720164,-9.820477080000002,0.002562,-0.000633,0.004947,-77.855957,96.065231,-208.721695,60.187667,24.830163,13.390236,19.939844,-1.0,-1.0,100.077415,-0.092476,-0.008029,0.01733,0.762231
879037.764471,-0.07244685000000001,-0.17229302999999999,-9.80445735,0.003194,-0.000153,0.003233,-77.954086,96.035202,-208.896118,60.187667,24.830163,13.390236,19.939844,-1.0,-1.0,100.077415,-0.092476,-0.00802,0.017338,0.762223
879037.804441,-0.07993188000000001,-0.1651023,-9.823469130000001,0.003635,-0.000532,0.00508,-77.99057,96.000214,-209.28833,60.187667,24.830163,13.390236,19.939844,-1.0,-1.0,100.077415,-0.092476,-0.008011,0.01733,0.762197
879037.804441,-0.07993188000000001,-0.1651023,-9.823469130000001,0.003635,-0.000532,0.00508,-77.99057,96.000214,-209.28833,60.187667,24.830163,13.390236,19.939844,-1.0,-1.0,100.077415,-0.092476,-0.008011,0.01733,0.762197
879037.844411,-0.07499745000000001,-0.17064495000000002,-9.8213796,0.00344,0.000244,0.004356,-77.937973,96.001495,-209.122345,60.187667,24.830163,13.390236,19.939844,-1.0,-1.0,100.077415,-0.092476,-0.008012,0.017331,0.762211
879037.844411,-0.07499745000000001,-0.17064495000000002,-9.8213796,0.00344,0.000244,0.004356,-77.937973,96.001495,-209.122345,60.187667,24.830163,13.390236,19.939844,-1.0,-1.0,100.077415,-0.092476,-0.008012,0.017331,0.762211
879037.884381,-0.09071307,-0.16390548000000002,-9.83274939,0.002264,0.000418,0.003529,-78.217255,95.995956,-209.178406,60.187667,24.830163,13.390236,19.939844,-1.0,-1.0,100.077415,-0.092476,-0.007997,0.017323,0.762213
879037.904366,-0.07229970000000001,-0.17139051000000002,-9.819133110000001,0.002353,0.001141,0.003979,-77.924652,96.025681,-208.962784,60.187667,24.830163,13.390236,19.939844,-1.0,-1.0,100.077415,-0.092476,-0.00799,0.017313,0.762209
879037.924351,-0.0666099,-0.17169462000000002,-9.81464013,0.003267,-0.000142,0.004928,-77.852005,96.144989,-209.179504,60.187667,24.830163,13.390236,19.939844,-1.0,-1.0,100.077415,-0.092476,-0.007978,0.017313,0.762209
879037.944336,-0.07275096,-0.16660323000000002,-9.83814489,0.00432,-0.000325,0.004698,-77.87825,96.26474,-208.802475,60.187667,24.830163,13.390236,19.939844,-1.0,-1.0,100.077415,-0.092476,-0.007971,0.017326,0.762202
879037.964321,-0.08442486000000002,-0.18576216000000004,-9.799071660000001,0.003652,-0.000367,0.00331,-78.009354,95.954086,-209.029068,60.187667,24.830163,13.390236,19.939844,-1.0,-1.0,100.077415,-0.092476,-0.007964,0.017334,0.7622
879037.984306,-0.07304526,-0.16690734000000002,-9.839037600000001,0.004171,-0.00066,0.00364,-78.011551,95.956726,-209.053329,60.187667,24.830163,13.390236,19.939844,-1.0,-1.0,100.077415,-0.092476,-0.007972,0.017325,0.762197
879038.004291,-0.07334937000000001,-0.17917965,-9.812246490000001,0.004146,0.000268,0.004235,-78.008301,96.20578,-208.841095,60.187667,24.830163,13.390236,19.939844,-1.0,-1.0,100.077415,-0.092476,-0.007974,0.017325,0.762197
879038.024276,-0.07184844,-0.173637,-9.819584370000001,0.002878,-0.000705,0.004873,-77.933212,95.997986,-209.127899,60.187667,24.830163,13.390236,19.939844,-1.0,-1.0,100.077415,-0.092476,-0.007962,0.017334,0.762207
879038.044261,-0.07619427,-0.17019369,-9.836045550000001,0.002867,-4.8e-05,0.003989,-78.031006,96.085388,-208.926346,60.187667,24.830163,13.390236,19.939844,-1.0,-1.0,100.077415,-0.092476,-0.007966,0.017328,0.762215
879038.064246,-0.07260381,-0.17274429,-9.79398027,0.003062,0.000664,0.004993,-78.031586,96.010162,-208.889069,60.187667,24.830163,13.390236,19.939844,-1.0,-1.0,100.077415,-0.092476,-0.007956,0.017335,0.762203
879038.084231,-0.08337519,-0.17423541,-9.83769363,0.004161,-0.000323,0.003857,-78.092545,96.015701,-208.805466,60.187667,24.830163,13.390236,19.939844,-1.0,-1.0,100.077415,-0.092476,-0.007955,0.017337,0.762205
879038.104216,-0.07559586,-0.17109621000000003,-9.8068608,0.003095,0.00079,0.004633,-78.020401,96.045532,-209.03476,60.187667,24.830163,13.390236,19.939844,-1.0,-1.0,100.077415,-0.092476,-0.007956,0.017352,0.762201
879038.124201,-0.07439904,-0.16165899,-9.82856052,0.004656,-0.001552,0.003814,-78.069122,95.959503,-208.866302,60.187667,24.830163,13.390236,19.939844,-1.0,-1.0,100.077415,-0.092476,-0.007949,0.017359,0.762196
879038.144186,-0.07948062,-0.16406244,-9.818829,0.003929,-0.000232,0.003744,-77.99971,96.023544,-208.809692,60.187667,24.830163,13.390236,19.939844,-1.0,-1.0,100.077415,-0.092476,-0.007965,0.017369,0.762196
879038.164171,-0.07978473,-0.17499078,-9.793087560000002,0.003944,-0.002769,0.001794,-77.996597,96.032318,-209.113678,60.187667,24.830163,13.390236,19.939844,-1.0,-1.0,100.077415,-0.092476,-0.007964,0.01737,0.762187
879038.184156,-0.07679268,-0.15942231,-9.84218661,0.002854,-0.00062,0.003507,-77.673096,96.144089,-208.70462,60.187667,24.830163,13.390236,19.939844,-1.0,-1.0,100.077415,-0.092476,-0.007984,0.017372,0.762163
879038.204141,-0.0754389,-0.17992521,-9.799071660000001,0.004327,0.000388,0.004238,-78.05838,96.149063,-208.857071,60.187667,24.830163,13.390236,19.939844,-1.0,-1.0,100.077415,-0.092476,-0.007982,0.01737,0.762149
879038.224126,-0.07184844,-0.16091343000000002,-9.81449298,0.002714,-0.000835,0.00425,-78.186142,96.152039,-208.768677,60.187667,24.830163,13.390236,19.939844,-1.0,-1.0,100.077415,-0.092476,-0.007991,0.017376,0.762142
879038.244111,-0.07648857,-0.17109621000000003,-9.828707670000002,0.003174,-0.001069,0.002612,-78.134262,96.171417,-208.893738,60.187667,24.830163,13.390236,19.939844,-1.0,-1.0,100.077415,-0.092476,-0.007991,0.017359,0.762143
879038.264096,-0.06301944000000001,-0.17812998000000002,-9.80521272,0.002792,-0.001332,0.003201,-77.887405,96.018509,-208.95578,60.187667,24.830163,13.390236,19.939844,-1.0,-1.0,100.077415,-0.092476,-0.007998,0.017366,0.762115
879038.284081,-0.07589016,-0.16870257000000002,-9.8302086,0.003772,-0.000205,0.003731,-77.915161,96.066345,-209.313797,60.187667,24.830163,13.390236,19.939844,-1.0,-1.0,100.077415,-0.092476,-0.008019,0.017357,0.762089
879038.304066,-0.0868185,-0.16705449,-9.81733788,0.0034,-0.000946,0.005292,-78.034348,96.00528,-209.001465,60.187667,24.830163,13.390236,19.939844,-1.0,-1.0,100.077415,-0.092476,-0.008024,0.017354,0.762083
879038.324051,-0.06811083000000001,-0.16525926000000002,-9.833053500000002,0.003948,-0.000749,0.004175,-78.209839,96.175705,-208.950668,60.187667,24.830163,13.390236,19.939844,-1.0,-1.0,100.077415,-0.092476,-0.008045,0.017363,0.762091
879038.344036,-0.08562168,-0.16165899,-9.80655669,0.002114,0.000487,0.002934,-78.094055,96.105835,-209.273682,60.187667,24.830163,13.390236,19.939844,-1.0,-1.0,100.077415,-0.092476,-0.008057,0.017369,0.762091
879038.364021,-0.07739109000000001,-0.16944813,-9.81389457,0.004009,-0.00099,0.003197,-78.041183,96.161545,-209.045975,60.187667,24.830163,13.390236,19.939844,-1.0,-1.0,100.077415,-0.092476,-0.008041,0.017367,0.762087
879038.384006,-0.07768539,-0.17214588000000003,-9.838890450000001,0.003142,0.000677,0.003434,-77.975967,96.102905,-208.817795,60.187667,24.830163,13.390236,19.939844,-1.0,-1.0,100.077415,-0.092476,-0.008035,0.017367,0.762074
879038.403991,-0.06975891000000001,-0.16780005,-9.783208890000001,0.003169,-0.00132,0.004919,-78.147598,96.011917,-208.980133,60.187667,24.830163,13.390236,19.939844,-1.0,-1.0,100.077415,-0.092476,-0.008039,0.017369,0.762068
879038.423976,-0.07559586,-0.17633475,-9.838890450000001,0.002046,0.000292,0.003534,-78.002594,96.03772,-208.851273,60.187667,24.830163,13.390236,19.939844,-1.0,-1.0,100.077415,-0.092476,-0.008043,0.017376,0.762087
879038.443962,-0.08696565,-0.17109621000000003,-9.8043102,0.00305,-0.001017,0.004894,-78.047058,96.17218,-208.837372,60.187667,24.830163,13.390236,19.939844,-1.0,-1.0,100.077415,-0.092476,-0.008037,0.017355,0.762081
879038.483932,-0.06945480000000001,-0.17169462000000002,-9.846522629999999,0.002722,0.000593,0.00349,-78.009796,96.071045,-208.931122,60.187667,24.830163,13.390236,19.939844,-1.0,-1.0,100.077415,-0.092476,-0.008028,0.017367,0.762086
879038.503917,-0.08038314,-0.17139051000000002,-9.80026848,0.00449,0.000741,0.004998,-77.991638,95.99762,-209.084854,60.187667,24.830163,13.390236,19.939844,-1.0,-1.0,100.077415,-0.092476,-0.008016,0.017363,0.762084
879038.503917,-0.08038314,-0.17139051000000002,-9.80026848,0.00449,0.000741,0.004998,-77.991638,95.99762,-209.084854,60.187667,24.830163,13.390236,19.939844,-1.0,-1.0,100.077415,-0.092476,-0.008016,0.017363,0.762084
879038.543887,-0.07724394000000001,-0.16630893,-9.78904584,0.002905,-0.000429,0.003422,-77.945587,95.855942,-208.988052,60.187667,24.830163,13.390236,19.939844,-1.0,-1.0,100.077415,-0.092476,-0.008006,0.017352,0.762088
879038.543887,-0.07724394000000001,-0.16630893,-9.78904584,0.002905,-0.000429,0.003422,-77.945587,95.855942,-208.988052,60.187667,24.830163,13.390236,19.939844,-1.0,-1.0,100.077415,-0.092476,-0.008006,0.017352,0.762088
879038.583857,-0.07020036,-0.17423541,-9.82272357,0.00308,0.000729,0.004924,-78.096802,96.014374,-208.920303,60.187667,24.830163,13.390236,19.939844,-1.0,-1.0,100.078011,-0.142685,-0.00801,0.017363,0.762088
879038.603842,-0.08457201,-0.17453952,-9.800121330000001,0.004518,0.001567,0.003622,-77.60054,96.120178,-208.577042,60.187667,24.830163,13.390236,19.939844,-1.0,-1.0,100.078011,-0.142685,-0.008003,0.017349,0.762087
879038.603842,-0.08457201,-0.17453952,-9.800121330000001,0.004518,0.001567,0.003622,-77.60054,96.120178,-208.577042,60.187667,24.830163,13.390236,19.939844,-1.0,-1.0,100.078011,-0.142685,-0.008003,0.017349,0.762087
879038.643812,-0.07648857,-0.16750575,-9.81718092,0.003722,-0.001044,0.003262,-77.816788,96.11644,-209.194839,60.187667,24.830163,13.390236,19.939844,-1.0,-1.0,100.078011,-0.142685,-0.007992,0.017336,0.76206
879038.663797,-0.06452037000000001,-0.17423541,-9.83858634,0.002932,8.8e-05,0.004879,-78.101807,95.99353,-209.14798,60.187667,24.830163,13.390236,19.939844,-1.0,-1.0,100.078011,-0.142685,-0.007989,0.017331,0.762049
879038.683782,-0.0751446,-0.16825131000000002,-9.813590460000002,0.002442,-0.000468,0.004758,-77.941055,95.940491,-208.86969,60.187667,24.830163,13.390236,19.939844,-1.0,-1.0,100.078011,-0.142685,-0.00798,0.017326,0.762059
879038.703767,-0.07603731000000001,-0.17318574,-9.81209934,0.003583,-0.000478,0.004265,-77.724442,95.961716,-208.958008,60.187667,24.830163,13.390236,19.939844,-1.0,-1.0,100.078011,-0.142685,-0.00798,0.017325,0.762058
879038.723752,-0.07529175,-0.16765290000000002,-9.83200383,0.003046,-0.000591,0.004572,-78.029694,95.970444,-208.65625,60.187667,24.830163,13.390236,19.939844,-1.0,-1.0,100.078011,-0.142685,-0.007979,0.017323,0.76207
879038.743737,-0.07753824,-0.17019369,-9.80266212,0.004843,0.000534,0.004903,-77.919205,95.998367,-208.925171,60.187667,24.830163,13.390236,19.939844,-1.0,-1.0,100.078011,-0.142685,-0.007974,0.017311,0.762065
879038.763722,-0.07873506000000001,-0.16675038,-9.835751250000001,0.003692,6.5e-05,0.005477,-77.89006,95.990448,-209.110794,60.187667,24.830163,13.390236,19.939844,-1.0,-1.0,100.078011,-0.142685,-0.007968,0.017322,0.762071
879038.783707,-0.07364367000000001,-0.17348985,-9.81194238,0.003808,0.000176,0.004629,-77.642029,96.029114,-208.84465,60.187667,24.830163,13.390236,19.939844,-1.0,-1.0,100.078011,-0.142685,-0.007952,0.01732,0.762079
879038.803692,-0.07978473,-0.16974243,-9.8128449,0.004903,-0.000541,0.00301,-77.767639,96.097275,-208.779358,60.187667,24.830163,13.390236,19.939844,-1.0,-1.0,100.078011,-0.142685,-0.007938,0.017322,0.762089
879038.823678,-0.08308089000000002,-0.16870257000000002,-9.827363700000001,0.002035,-0.000849,0.005124,-78.017258,96.007156,-209.050919,60.187667,24.830163,13.390236,19.939844,-1.0,-1.0,100.078011,-0.142685,-0.007937,0.017334,0.762076
879038.843663,-0.08382645000000001,-0.16106057999999998,-9.80940159,0.002523,-0.000867,0.003714,-78.054733,95.752884,-208.862289,60.187667,24.830163,13.390236,19.939844,-1.0,-1.0,100.078011,-0.142685,-0.007941,0.017315,0.762081
879038.863648,-0.07603731000000001,-0.16390548000000002,-9.827363700000001,0.002682,0.000208,0.005155,-77.590942,95.868546,-208.872177,60.187667,24.830163,13.390236,19.939844,-1.0,-1.0,100.078011,-0.142685,-0.007943,0.017314,0.762089
879038.883633,-0.08203122,-0.17603064000000002,-9.79562835,0.003193,-0.001015,0.004424,-78.203583,95.884064,-209.370743,60.187667,24.830163,13.390236,19.939844,-1.0,-1.0,100.078011,-0.142685,-0.007932,0.017306,0.762103
879038.903618,-0.07139718,-0.17573634,-9.83200383,0.003905,-0.000862,0.004057,-77.976212,95.936935,-209.218536,60.187667,24.830163,13.390236,19.939844,-1.0,-1.0,100.078011,-0.142685,-0.00795,0.017307,0.762104
879038.923603,-0.08232552,-0.17408826000000002,-9.823027680000001,0.002802,-0.001594,0.004867,-78.122238,96.133194,-209.115143,60.187667,24.830163,13.390236,19.939844,-1.0,-1.0,100.078011,-0.142685,-0.007956,0.017319,0.762112
879038.943588,-0.08038314,-0.18217170000000002,-9.81538569,0.003825,-0.000974,0.004295,-78.129135,96.0504,-209.121826,60.187667,24.830163,13.390236,19.939844,-1.0,-1.0,100.078011,-0.142685,-0.007972,0.017314,0.762122
879038.963573,-0.09205704,-0.16420959000000002,-9.84307932,0.002836,-0.000271,0.004448,-78.285233,95.979919,-209.17157,60.187667,24.830163,13.390236,19.939844,-1.0,-1.0,100.078011,-0.142685,-0.007979,0.017311,0.762121
879038.983558,-0.07784234999999999,-0.16555356,-9.823469130000001,0.004531,-0.00169,0.005688,-78.266296,96.050674,-209.21254,60.187667,24.830163,13.390236,19.939844,-1.0,-1.0,100.078011,-0.142685,-0.007974,0.0173,0.762128
879039.003543,-0.07095573000000001,-0.16585766999999998,-9.820477080000002,0.003944,-0.000349,0.004295,-78.289154,95.952789,-209.177628,60.187667,24.830163,13.390236,19.939844,-1.0,-1.0,100.078011,-0.142685,-0.007983,0.01731,0.762141
879039.023528,-0.07394778,-0.16884972000000004,-9.82466595,0.003493,-0.000915,0.003123,-77.968811,95.89119,-209.291763,60.187667,24.830163,13.390236,19.939844,-1.0,-1.0,100.078011,-0.142685,-0.007982,0.017322,0.762138
879039.043513,-0.06675705000000001,-0.15672456,-9.82841337,0.003505,-0.001453,0.003788,-78.104324,95.937149,-209.04332,60.187667,24.830163,13.390236,19.939844,-1.0,-1.0,100.078011,-0.142685,-0.007986,0.017331,0.762144
879039.063498,-0.09176274,-0.16375833,-9.82078119,0.001898,-0.001113,0.003675,-78.111862,95.934357,-209.028778,60.187667,24.830163,13.390236,19.939844,-1.0,-1.0,100.078011,-0.142685,-0.008016,0.017339,0.762141
879039.083483,-0.07903917,-0.17394111,-9.81344331,0.004113,-0.000948,0.003557,-78.115372,95.812424,-209.395477,60.187667,24.830163,13.390236,19.939844,-1.0,-1.0,100.078011,-0.142685,-0.008035,0.017321,0.762139
879039.103469,-0.07260381,-0.17094906,-9.82107549,0.003232,-0.000228,0.003982,-78.114044,96.040512,-209.334824,60.187667,24.830163,13.390236,19.939844,-1.0,-1.0,100.078011,-0.142685,-0.008036,0.017325,0.762139
879039.123454,-0.08067744,-0.16645608,-9.811795230000001,0.003759,-0.000957,0.003468,-78.213455,95.993301,-209.090286,60.187667,24.830163,13.390236,19.939844,-1.0,-1.0,100.078011,-0.142685,-0.00804,0.017327,0.76213
879039.143439,-0.06706116000000001,-0.16091343000000002,-9.82721655,0.002764,-0.000815,0.003873,-78.010864,95.776382,-209.43187,60.187667,24.830163,13.390236,19.939844,-1.0,-1.0,100.078011,-0.142685,-0.008053,0.017335,0.762125
879039.163424,-0.07020036,-0.16780005,-9.807155100000001,0.0033,-0.000127,0.002623,-78.028091,95.7155,-209.274567,60.187667,24.830163,13.390236,19.939844,-1.0,-1.0,100.078011,-0.142685,-0.008058,0.017332,0.762117
879039.183409,-0.08412075,-0.1704978,-9.82631403,0.003221,-0.001093,0.004045,-78.092545,95.804398,-209.131714,60.187667,24.830163,13.390236,19.939844,-1.0,-1.0,100.078011,-0.142685,-0.008057,0.017328,0.762105
879039.203394,-0.0811287,-0.164808,-9.82212516,0.001537,0.000887,0.004917,-78.187744,95.714096,-209.379929,60.187667,24.830163,13.390236,19.939844,-1.0,-1.0,100.078011,-0.142685,-0.008059,0.017318,0.762099
879039.243364,-0.08412075,-0.16091343000000002,-9.835143030000001,0.002963,0.001232,0.003933,-78.202972,96.0569,-209.279037,60.187667,24.830163,13.390236,19.939844,-1.0,-1.0,100.078011,-0.142685,-0.008055,0.017324,0.762101
879039.263349,-0.07753824,-0.1591182,-9.80416305,0.004234,-0.000472,0.002755,-78.230301,96.169754,-209.039215,60.187667,24.830163,13.390236,19.939844,-1.0,-1.0,100.078011,-0.142685,-0.008043,0.017332,0.762104
879039.283334,-0.07260381,-0.17334270000000002,-9.83425032,0.002504,-0.000319,0.004127,-78.230301,96.169754,-209.039215,60.187667,24.830163,13.390236,19.939844,-1.0,-1.0,100.078011,-0.142685,-0.008049,0.01733,0.762106
879039.303319,-0.07663572,-0.16825131000000002,-9.82062423,0.004751,-0.000102,0.003618,-78.076416,96.058624,-209.268646,60.187667,24.830163,13.390236,19.939844,-1.0,-1.0,100.078011,-0.142685,-0.008036,0.017326,0.762106
879039.323304,-0.07380063,-0.18306441,-9.80909748,0.002999,-0.002324,0.003132,-78.171188,95.899796,-209.095184,60.187667,24.830163,13.390236,19.939844,-1.0,-1.0,100.078011,-0.142685,-0.008037,0.017337,0.762104
879039.343289,-0.06945480000000001,-0.17198892,-9.83798793,0.00276,9e-05,0.004944,-78.019302,96.136612,-209.202133,60.187667,24.830163,13.390236,19.939844,-1.0,-1.0,100.078011,-0.142685,-0.008056,0.017336,0.762093
879039.363275,-0.07304526,-0.17693316,-9.78904584,0.004003,-0.000562,0.005841,-77.890106,96.075928,-209.401978,60.187667,24.830163,13.390236,19.939844,-1.0,-1.0,100.078011,-0.142685,-0.00805,0.01733,0.762098
879039.38326,-0.07693983,-0.17154747,-9.83634966,0.003045,-0.000173,0.003942,-78.032288,96.138565,-209.156281,60.187667,24.830163,13.390236,19.939844,-1.0,-1.0,100.078011,-0.142685,-0.008056,0.017339,0.762104
879039.403245,-0.07529175,-0.16705449,-9.81014715,0.003572,-0.000508,0.002403,-77.830399,96.053894,-209.153275,60.187667,24.830163,13.390236,19.939844,-1.0,-1.0,100.078011,-0.142685,-0.008047,0.017331,0.762107
879039.42323,-0.07349652000000001,-0.16810416,-9.81329616,0.003457,-0.001842,0.003936,-78.036041,95.724823,-209.372482,60.187667,24.830163,13.390236,19.939844,-1.0,-1.0,100.078011,-0.142685,-0.008042,0.017352,0.762087
879039.443215,-0.07304526,-0.1704978,-9.827814960000001,0.003637,-0.000473,0.004659,-78.170319,95.876892,-209.22493,60.187667,24.830163,13.390236,19.939844,-1.0,-1.0,100.078011,-0.142685,-0.008052,0.017336,0.762083
879039.4632,-0.06885639,-0.16301277,-9.81119682,0.002957,-0.000119,0.004388,-78.139542,95.949112,-209.191513,60.187667,24.830163,13.390236,19.939844,-1.0,-1.0,100.078011,-0.142685,-0.008046,0.017324,0.762078
879039.483185,-0.09100737,-0.16241436,-9.83679111,0.002846,0.000245,0.003237,-78.222687,95.989883,-208.849167,60.187667,24.830163,13.390236,19.939844,-1.0,-1.0,100.078011,-0.142685,-0.008039,0.017322,0.762095
879039.503171,-0.06885639,-0.16780005,-9.787397760000001,0.003972,-0.000638,0.00511,-78.076889,95.859589,-208.75296,60.187667,24.830163,13.390236,19.939844,-1.0,-1.0,100.078011,-0.142685,-0.008035,0.017314,0.762092
879039.523156,-0.0751446,-0.164808,-9.837840779999999,0.00287,-0.000595,0.004916,-78.00618,95.9879,-209.041046,60.187667,24.830163,13.390236,19.939844,-1.0,-1.0,100.078011,-0.142685,-0.008033,0.017303,0.762094
879039.543141,-0.07933347,-0.16226721000000002,-9.811500930000001,0.001814,-3.1e-05,0.004191,-77.967163,95.942474,-209.164871,60.187667,24.830163,13.390236,19.939844,-1.0,-1.0,100.078011,-0.142685,-0.008038,0.017297,0.762106
879039.563126,-0.07603731000000001,-0.16660323000000002,-9.807302250000001,0.00349,-0.000199,0.003646,-78.133987,96.020828,-209.015106,60.187667,24.830163,13.390236,19.939844,-1.0,-1.0,100.078011,-0.142685,-0.008034,0.017291,0.762109
879039.583112,-0.0782838,-0.15792138000000003,-9.84353058,0.00394,-0.000166,0.004613,-77.92569,95.785248,-209.142654,60.187667,24.830163,13.390236,19.939844,-1.0,-1.0,100.078011,-0.142685,-0.008035,0.017292,0.762104
879039.603097,-0.07559586,-0.17035065,-9.80490861,0.00486,0.000178,0.004545,-78.310303,95.962631,-209.226822,60.187667,24.830163,13.390236,19.939844,-1.0,-1.0,100.078011,-0.142685,-0.008016,0.017295,0.762104
879039.623082,-0.06481467,-0.16675038,-9.852065280000001,0.00334,-0.000124,0.003788,-78.021057,95.969742,-209.056778,60.187667,24.830163,13.390236,19.939844,-1.0,-1.0,100.078011,-0.142685,-0.008016,0.017306,0.762098
879039.643067,-0.06825798,-0.16286562,-9.799670070000001,0.003572,-0.001214,0.005307,-78.051025,96.090179,-209.51033,60.187667,24.830163,13.390236,19.939844,-1.0,-1.0,100.078766,-0.2061,-0.008004,0.0173,0.762084
879039.663052,-0.06870924,-0.15701886,-9.829610190000002,0.003285,0.00109,0.00261,-78.078583,95.884079,-209.082199,60.187667,24.830163,13.390236,19.939844,-1.0,-1.0,100.078766,-0.2061,-0.008005,0.017298,0.762078
879039.683037,-0.08382645000000001,-0.1707921,-9.83274939,0.003159,0.000659,0.004602,-78.178635,95.984375,-209.207687,60.187667,24.830163,13.390236,19.939844,-1.0,-1.0,100.078766,-0.2061,-0.007985,0.017296,0.762069
879039.703022,-0.06930765,-0.16914402,-9.80445735,0.00444,-0.001539,0.004544,-78.278564,95.937836,-209.203354,60.187667,24.830163,13.390236,19.939844,-1.0,-1.0,100.078766,-0.2061,-0.007981,0.017299,0.762074
879039.723007,-0.08607294000000001,-0.15942231,-9.835143030000001,0.0036,-0.000765,0.006253,-78.235046,95.961243,-209.212677,60.187667,24.830163,13.390236,19.939844,-1.0,-1.0,100.078766,-0.2061,-0.007991,0.017308,0.762083
879039.742992,-0.07813665,-0.16495515000000002,-9.80610543,0.004245,-0.001754,0.003699,-78.245102,95.949661,-209.226959,60.187667,24.830163,13.390236,19.939844,-1.0,-1.0,100.078766,-0.2061,-0.007988,0.017308,0.762106
879039.762977,-0.07574301000000001,-0.17543223,-9.820182780000001,0.004542,-0.001246,0.004278,-78.238876,95.656784,-209.205963,60.187667,24.830163,13.390236,19.939844,-1.0,-1.0,100.078766,-0.2061,-0.007994,0.017307,0.762106
879039.782962,-0.08337519,-0.17154747,-9.82197801,0.002505,-0.001134,0.003956,-78.123795,95.887192,-209.296448,60.187667,24.830163,13.390236,19.939844,-1.0,-1.0,100.078766,-0.2061,-0.007995,0.017311,0.762098
879039.802948,-0.0782838,-0.18157329000000003,-9.81239364,0.002868,-0.002613,0.002442,-78.275208,95.90741,-209.263809,60.187667,24.830163,13.390236,19.939844,-1.0,-1.0,100.078766,-0.2061,-0.007995,0.017306,0.762101
879039.822933,-0.07409493,-0.15942231,-9.843226470000001,0.002736,-0.000553,0.004861,-78.135437,95.87088,-209.091721,60.187667,24.830163,13.390236,19.939844,-1.0,-1.0,100.078766,-0.2061,-0.008009,0.017285,0.762084
879039.842918,-0.07349652000000001,-0.16810416,-9.81373761,0.002748,0.000195,0.003875,-77.964432,95.946854,-209.22435,60.187667,24.830163,13.390236,19.939844,-1.0,-1.0,100.078766,-0.2061,-0.008007,0.017279,0.762091
879039.862903,-0.07559586,-0.15088761,-9.84262806,0.003486,-0.000286,0.005501,-78.003174,96.017242,-209.337372,60.187667,24.830163,13.390236,19.939844,-1.0,-1.0,100.078766,-0.2061,-0.00801,0.017285,0.762095
879039.882888,-0.0782838,-0.16270866,-9.81418887,0.002139,-0.000105,0.004534,-77.935867,96.0448,-209.261536,60.187667,24.830163,13.390236,19.939844,-1.0,-1.0,100.078766,-0.2061,-0.008001,0.017281,0.762096
879039.902873,-0.06271533,-0.17214588000000003,-9.81254079,0.003245,-0.001306,0.00506,-77.898804,95.894104,-208.972046,60.187667,24.830163,13.390236,19.939844,-1.0,-1.0,100.078766,-0.2061,-0.008013,0.017278,0.762098
879039.922858,-0.08248248000000001,-0.16570071,-9.813590460000002,0.004467,0.000182,0.005989,-78.05365,95.984711,-209.044128,60.187667,24.830163,13.390236,19.939844,-1.0,-1.0,100.078766,-0.2061,-0.00801,0.017265,0.7621
879039.962828,-0.07768539,-0.17244018,-9.81329616,0.003596,-0.000501,0.005017,-77.965378,95.894836,-209.222961,60.187667,24.830163,13.390236,19.939844,-1.0,-1.0,100.078766,-0.2061,-0.008004,0.017277,0.762123
879039.962828,-0.07768539,-0.17244018,-9.81329616,0.003596,-0.000501,0.005017,-77.965378,95.894836,-209.222961,60.187667,24.830163,13.390236,19.939844,-1.0,-1.0,100.078766,-0.2061,-0.008004,0.017277,0.762123
879040.002799,-0.07529175,-0.17303859,-9.83290635,0.00452,-0.000946,0.004992,-77.975571,95.628036,-209.334152,60.187667,24.830163,13.390236,19.939844,-1.0,-1.0,100.078766,-0.2061,-0.007986,0.017274,0.762122
879040.002799,-0.07529175,-0.17303859,-9.83290635,0.00452,-0.000946,0.004992,-77.975571,95.628036,-209.334152,60.187667,24.830163,13.390236,19.939844,-1.0,-1.0,100.078766,-0.2061,-0.007986,0.017274,0.762122
879040.022784,-0.06945480000000001,-0.16211025,-9.808803180000002,0.003435,0.000286,0.004264,-77.879913,95.945068,-209.283096,60.187667,24.830163,13.390236,19.939844,-1.0,-1.0,100.078766,-0.2061,-0.007985,0.017288,0.76214
879040.062754,-0.06301944000000001,-0.17558919000000003,-9.803711790000001,0.003045,0.000288,0.004927,-77.975922,95.884827,-209.19516,60.187667,24.830163,13.390236,19.939844,-1.0,-1.0,100.078766,-0.2061,-0.007979,0.017284,0.762144
879040.082739,-0.0865242,-0.16286562,-9.82721655,0.003932,-0.001669,0.004019,-77.959808,95.870071,-209.209351,60.187667,24.830163,13.390236,19.939844,-1.0,-1.0,100.078766,-0.2061,-0.007976,0.017285,0.762138
879040.082739,-0.0865242,-0.16286562,-9.82721655,0.003932,-0.001669,0.004019,-77.959808,95.870071,-209.209351,60.187667,24.830163,13.390236,19.939844,-1.0,-1.0,100.078766,-0.2061,-0.007976,0.017285,0.762138
879040.122709,-0.06856209,-0.17229302999999999,-9.8068608,0.003315,-0.000683,0.003341,-78.089767,95.899231,-209.11528,60.187667,24.830163,13.390236,19.939844,-1.0,-1.0,100.078766,-0.2061,-0.007957,0.017287,0.76215
879040.142694,-0.08772102000000001,-0.16375833,-9.83274939,0.003106,-5.2e-05,0.004748,-78.181259,95.779297,-209.438461,60.187667,24.830163,13.390236,19.939844,-1.0,-1.0,100.078766,-0.2061,-0.007953,0.017282,0.762151
879040.162679,-0.07753824,-0.18126918000000003,-9.79892451,0.001811,-0.000472,0.004845,-78.025589,95.978149,-209.178558,60.187667,24.830163,13.390236,19.939844,-1.0,-1.0,100.078766,-0.2061,-0.007955,0.017286,0.762147
879040.182665,-0.07634142000000001,-0.16705449,-9.82631403,0.003358,-0.001075,0.004071,-78.007935,95.982086,-209.330933,60.187667,24.830163,13.390236,19.939844,-1.0,-1.0,100.078766,-0.2061,-0.007957,0.017287,0.762164
879040.20265,-0.08172711,-0.17244018,-9.81777933,0.002486,-0.00041,0.004001,-77.907043,95.909927,-209.205658,60.187667,24.830163,13.390236,19.939844,-1.0,-1.0,100.078766,-0.2061,-0.007966,0.017277,0.762158
879040.222635,-0.07648857,-0.16525926000000002,-9.8242245,0.003564,5.8e-05,0.004185,-77.832855,95.765793,-209.283051,60.187667,24.830163,13.390236,19.939844,-1.0,-1.0,100.078766,-0.2061,-0.007957,0.017266,0.762151
879040.24262,-0.07005321,-0.17842428,-9.83200383,0.003837,-0.000732,0.004108,-77.940811,96.07518,-209.365067,60.187667,24.830163,13.390236,19.939844,-1.0,-1.0,100.078766,-0.2061,-0.00796,0.017271,0.76215
879040.262605,-0.07184844,-0.17289144,-9.80969589,0.002054,-0.001499,0.004533,-78.089798,96.004715,-208.91008,60.187667,24.830163,13.390236,19.939844,-1.0,-1.0,100.078766,-0.2061,-0.007962,0.017266,0.762144
879040.28259,-0.08292393,-0.15837263999999998,-9.83035575,0.003087,0.000653,0.004289,-77.753906,95.902603,-208.778809,60.187667,24.830163,13.390236,19.939844,-1.0,-1.0,100.078766,-0.2061,-0.007973,0.017262,0.762142
879040.302575,-0.07349652000000001,-0.17708031000000002,-9.824371650000002,0.003174,0.000319,0.00414,-77.971451,95.910904,-209.172348,60.187667,24.830163,13.390236,19.939844,-1.0,-1.0,100.078766,-0.2061,-0.00796,0.017241,0.762143
879040.32256,-0.07095573000000001,-0.16780005,-9.82107549,0.002502,-0.001572,0.004253,-78.105087,95.804153,-208.887848,60.187667,24.830163,13.390236,19.939844,-1.0,-1.0,100.078766,-0.2061,-0.007957,0.017244,0.762146
879040.342545,-0.09071307,-0.17303859,-9.83350476,0.001907,0.000437,0.003756,-77.932388,95.984222,-209.190277,60.187667,24.830163,13.390236,19.939844,-1.0,-1.0,100.078766,-0.2061,-0.007957,0.017235,0.762139
879040.362531,-0.07275096,-0.1651023,-9.80236782,0.004798,-0.000843,0.004145,-77.933243,96.022751,-209.401382,60.187667,24.830163,13.390236,19.939844,-1.0,-1.0,100.078766,-0.2061,-0.007941,0.017227,0.762123
879040.382516,-0.08427771,-0.16750575,-9.841284090000002,0.002752,0.000179,0.003649,-77.941772,95.898148,-209.116852,60.187667,24.830163,13.390236,19.939844,-1.0,-1.0,100.078766,-0.2061,-0.007942,0.017245,0.762111
879040.402501,-0.07619427,-0.16495515000000002,-9.79248915,0.002959,-0.000236,0.003103,-78.00058,96.014359,-208.943634,60.187667,24.830163,13.390236,19.939844,-1.0,-1.0,100.078766,-0.2061,-0.007933,0.017241,0.762101
879040.422486,-0.08292393,-0.17394111,-9.83065986,0.003689,-0.001081,0.005228,-77.961945,95.885818,-209.418365,60.187667,24.830163,13.390236,19.939844,-1.0,-1.0,100.078766,-0.2061,-0.007933,0.017245,0.7621
879040.442471,-0.07454619,-0.18172044,-9.810304109999999,0.002475,-0.000145,0.005293,-78.042267,96.073761,-209.178162,60.187667,24.830163,13.390236,19.939844,-1.0,-1.0,100.078766,-0.2061,-0.007932,0.017234,0.762105
879040.462456,-0.0779895,-0.17019369,-9.79712928,0.004383,-0.001694,0.006144,-77.965897,95.925751,-209.154984,60.187667,24.830163,13.390236,19.939844,-1.0,-1.0,100.078766,-0.2061,-0.007948,0.017223,0.762121
879040.482441,-0.07918631999999999,-0.16495515000000002,-9.839940120000001,0.002589,-0.001665,0.003118,-78.079056,95.958542,-208.90242,60.187667,24.830163,13.390236,19.939844,-1.0,-1.0,100.078766,-0.2061,-0.007967,0.017234,0.762139
879040.502425,-0.06137136000000001,-0.16899687,-9.7894971,0.004459,-0.000992,0.002523,-78.125381,96.049561,-209.140442,60.187667,24.830163,13.390236,19.939844,-1.0,-1.0,100.078766,-0.2061,-0.007979,0.01723,0.762132
879040.522411,-0.0896634,-0.17438256000000002,-9.839783160000001,0.00206,-0.001332,0.005024,-78.365311,95.989471,-209.344818,60.187667,24.830163,13.390236,19.939844,-1.0,-1.0,100.078766,-0.2061,-0.007989,0.017233,0.762131
879040.562381,-0.07993188000000001,-0.17499078,-9.80909748,0.003732,-0.000444,0.002937,-78.162827,95.973846,-209.71405,60.187677,24.830166,13.217201,19.867978,-1.0,-1.0,100.078766,-0.2061,-0.007983,0.017228,0.762158
879040.582366,-0.08217837000000001,-0.18306441,-9.83769363,0.00352,-0.000952,0.001767,-78.057068,95.969376,-209.201279,60.187677,24.830166,13.217201,19.867978,-1.0,-1.0,100.078766,-0.2061,-0.007996,0.017217,0.762159
879040.602351,-0.0865242,-0.17499078,-9.796373910000002,0.003692,-0.000725,0.004528,-78.187271,95.847168,-209.511978,60.187677,24.830166,13.217201,19.867978,-1.0,-1.0,100.078766,-0.2061,-0.007999,0.017211,0.762149
879040.622336,-0.07784234999999999,-0.16675038,-9.826912440000001,0.004525,-0.000369,0.003297,-78.361115,95.759415,-209.615311,60.187677,24.830166,13.217201,19.867978,-1.0,-1.0,100.078766,-0.2061,-0.008019,0.017217,0.762135
879040.642321,-0.07139718,-0.16420959000000002,-9.80805762,0.003691,-0.000959,0.00601,-78.171356,95.904587,-209.399368,60.187677,24.830166,13.217201,19.867978,-1.0,-1.0,100.078766,-0.2061,-0.008013,0.017218,0.762123
879040.662306,-0.07753824,-0.16854560999999998,-9.816739470000002,0.002611,-0.00154,0.003827,-78.055328,95.885345,-209.319153,60.187677,24.830166,13.217201,19.867978,-1.0,-1.0,100.078766,-0.2061,-0.00801,0.017219,0.76214
879040.682292,-0.07559586,-0.17229302999999999,-9.8333478,0.002083,0.0009,0.004923,-77.958511,95.809921,-208.952637,60.187677,24.830166,13.217201,19.867978,-1.0,-1.0,100.078766,-0.2061,-0.008029,0.017221,0.762145
879040.702277,-0.06870924,-0.17258733,-9.813139200000002,0.003374,-1.9e-05,0.003146,-77.958511,95.809921,-208.952637,60.187677,24.830166,13.217201,19.867978,-1.0,-1.0,100.078766,-0.2061,-0.008022,0.017215,0.762145
879040.722262,-0.07439904,-0.16899687,-9.830502899999999,0.002671,-0.000486,0.005886,-78.098694,95.912613,-209.242554,60.187677,24.830166,13.217201,19.867978,-1.0,-1.0,100.079323,-0.253662,-0.008019,0.017216,0.762141
879040.742247,-0.08876088000000001,-0.16720164,-9.808499070000002,0.003223,2.9e-05,0.004688,-78.156937,95.869141,-209.098221,60.187677,24.830166,13.217201,19.867978,-1.0,-1.0,100.079323,-0.253662,-0.008025,0.017199,0.762154
879040.762232,-0.08532738,-0.1651023,-9.83320065,0.003531,-0.000614,0.003742,-77.793884,95.740692,-209.259766,60.187677,24.830166,13.217201,19.867978,-1.0,-1.0,100.079323,-0.253662,-0.008018,0.0172,0.762143
879040.782217,-0.08576883000000002,-0.18456534000000002,-9.80760636,0.001935,-0.000629,0.004331,-78.022354,95.717499,-209.477783,60.187677,24.830166,13.217201,19.867978,-1.0,-1.0,100.079323,-0.253662,-0.008018,0.017205,0.762128
879040.802202,-0.08622009,-0.17408826000000002,-9.81583695,0.002562,-0.000161,0.003357,-78.16069,95.882507,-209.339676,60.187677,24.830166,13.217201,19.867978,-1.0,-1.0,100.079323,-0.253662,-0.008012,0.017202,0.762114
879040.822187,-0.08128566000000001,-0.1619631,-9.827363700000001,0.004013,0.001247,0.004295,-78.220123,95.664291,-209.457504,60.187677,24.830166,13.217201,19.867978,-1.0,-1.0,100.079323,-0.253662,-0.007998,0.017205,0.762101
879040.842173,-0.0836793,-0.16555356,-9.81418887,0.002276,-0.000684,0.004506,-78.240677,95.535355,-209.207657,60.187677,24.830166,13.217201,19.867978,-1.0,-1.0,100.079323,-0.253662,-0.007992,0.017199,0.762083
879040.862158,-0.07963758,-0.17184177000000003,-9.832307940000002,0.002569,-0.000423,0.004445,-78.142441,95.810028,-209.256775,60.187677,24.830166,13.217201,19.867978,-1.0,-1.0,100.079323,-0.253662,-0.007989,0.017192,0.762089
879040.882143,-0.0836793,-0.16690734000000002,-9.81554265,0.004158,-0.000284,0.003693,-78.433014,95.845032,-209.168625,60.187677,24.830166,13.217201,19.867978,-1.0,-1.0,100.079323,-0.253662,-0.007991,0.01719,0.762084
879040.902128,-0.0782838,-0.16450389,-9.83634966,0.001541,0.001056,0.003502,-78.09407,95.873627,-209.234726,60.187677,24.830166,13.217201,19.867978,-1.0,-1.0,100.079323,-0.253662,-0.007992,0.017201,0.762076
879040.922113,-0.07693983,-0.16181595000000001,-9.808499070000002,0.003706,0.001669,0.003268,-77.910522,96.025391,-209.402237,60.187677,24.830166,13.217201,19.867978,-1.0,-1.0,100.079323,-0.253662,-0.007981,0.017188,0.762071
879040.942098,-0.08935929000000001,-0.16959528000000001,-9.82212516,0.00351,-0.000207,0.005563,-77.998657,95.801559,-209.344559,60.187677,24.830166,13.217201,19.867978,-1.0,-1.0,100.079323,-0.253662,-0.007981,0.017179,0.762066
879040.962083,-0.0754389,-0.17229302999999999,-9.80581113,0.002981,-0.000779,0.00394,-78.284576,95.706253,-209.453918,60.187677,24.830166,13.217201,19.867978,-1.0,-1.0,100.079323,-0.253662,-0.007983,0.017171,0.762078
879040.982069,-0.07439904,-0.16615197,-9.81763218,0.002904,-0.000901,0.004764,-78.010788,95.852798,-208.891586,60.187677,24.830166,13.217201,19.867978,-1.0,-1.0,100.079323,-0.253662,-0.007979,0.017182,0.762077
879041.002054,-0.07454619,-0.16301277,-9.807302250000001,0.00347,0.000623,0.004449,-78.120438,95.794922,-209.147614,60.187677,24.830166,13.217201,19.867978,-1.0,-1.0,100.079323,-0.253662,-0.00797,0.017182,0.762072
879041.022039,-0.07125003,-0.16630893,-9.8159841,0.002538,-0.000296,0.00518,-78.028198,95.776611,-208.901489,60.187677,24.830166,13.217201,19.867978,-1.0,-1.0,100.079323,-0.253662,-0.007951,0.017186,0.762074
879041.042024,-0.08517042000000001,-0.16780005,-9.821821049999999,0.003634,-0.000774,0.003366,-78.326675,95.65242,-209.11763,60.187677,24.830166,13.217201,19.867978,-1.0,-1.0,100.079323,-0.253662,-0.007953,0.017179,0.762078
879041.062009,-0.0779895,-0.18112203000000002,-9.80505576,0.003645,-0.001301,0.005495,-78.208893,95.736801,-209.227753,60.187677,24.830166,13.217201,19.867978,-1.0,-1.0,100.079323,-0.253662,-0.007961,0.017183,0.762075
879041.081994,-0.07768539,-0.16315992,-9.82676529,0.002876,-0.000497,0.003097,-78.106583,95.856064,-209.10556,60.187677,24.830166,13.217201,19.867978,-1.0,-1.0,100.079323,-0.253662,-0.00796,0.017187,0.762072
879041.101979,-0.06945480000000001,-0.1761876,-9.818377739999999,0.003293,0.000267,0.004246,-78.089691,95.873199,-209.319412,60.187677,24.830166,13.217201,19.867978,-1.0,-1.0,100.079323,-0.253662,-0.007965,0.017191,0.762054
879041.121965,-0.07768539,-0.16839846000000003,-9.817033770000002,0.004304,-0.001035,0.004003,-78.150986,95.918182,-209.268829,60.187677,24.830166,13.217201,19.867978,-1.0,-1.0,100.079323,-0.253662,-0.007961,0.0172,0.762047
879041.161935,-0.06675705000000001,-0.16630893,-9.80581113,0.003573,-0.001431,0.003758,-78.127884,95.772934,-209.379898,60.187677,24.830166,13.217201,19.867978,-1.0,-1.0,100.079323,-0.253662,-0.007962,0.017199,0.762053
879041.18192,-0.0865242,-0.17633475,-9.83664396,0.003318,0.000232,0.003997,-78.240417,95.752609,-209.54451,60.187677,24.830166,13.217201,19.867978,-1.0,-1.0,100.079323,-0.253662,-0.007969,0.017204,0.762049
879041.201905,-0.07184844,-0.16600482,-9.812246490000001,0.0028,0.00054,0.003622,-78.397888,95.628891,-209.671158,60.187677,24.830166,13.217201,19.867978,-1.0,-1.0,100.079323,-0.253662,-0.007965,0.017202,0.762055
879041.201905,-0.07184844,-0.16600482,-9.812246490000001,0.0028,0.00054,0.003622,-78.397888,95.628891,-209.671158,60.187677,24.830166,13.217201,19.867978,-1.0,-1.0,100.079323,-0.253662,-0.007965,0.017202,0.762055
879041.241875,-0.07424208,-0.16615197,-9.831709530000001,0.00333,-0.001101,0.003866,-78.012192,95.775864,-209.441406,60.187677,24.830166,13.217201,19.867978,-1.0,-1.0,100.079323,-0.253662,-0.007963,0.017212,0.762038
879041.261861,-0.07155414,-0.16944813,-9.7929306,0.004018,-0.000883,0.00467,-78.137421,95.74086,-209.236298,60.187677,24.830166,13.217201,19.867978,-1.0,-1.0,100.079323,-0.253662,-0.007963,0.017218,0.762035
879041.281846,-0.0751446,-0.16375833,-9.8532621,0.001079,-0.001679,0.003508,-78.04483,95.752197,-209.232712,60.187677,24.830166,13.217201,19.867978,-1.0,-1.0,100.079323,-0.253662,-0.007977,0.017215,0.762033
879041.281846,-0.0751446,-0.16375833,-9.8532621,0.001079,-0.001679,0.003508,-78.04483,95.752197,-209.232712,60.187677,24.830166,13.217201,19.867978,-1.0,-1.0,100.079323,-0.253662,-0.007977,0.017215,0.762033
879041.321816,-0.07484049000000001,-0.16720164,-9.83379906,0.002885,-0.00106,0.005904,-78.319,95.840332,-209.021515,60.187677,24.830166,13.217201,19.867978,-1.0,-1.0,100.079323,-0.253662,-0.008005,0.017202,0.76202
879041.341801,-0.09924777,-0.17198892,-9.831258270000001,0.003147,-0.00145,0.003692,-78.12973,95.781052,-209.312714,60.187677,24.830166,13.217201,19.867978,-1.0,-1.0,100.079323,-0.253662,-0.008012,0.017216,0.762033
879041.361786,-0.07095573000000001,-0.15897105,-9.79233219,0.003589,0.000644,0.00374,-78.195801,95.863907,-209.435806,60.187677,24.830166,13.217201,19.867978,-1.0,-1.0,100.079323,-0.253662,-0.008014,0.017216,0.762031
879041.381772,-0.07380063,-0.16675038,-9.857755080000002,0.002726,1.5e-05,0.004657,-78.09938,95.812958,-209.409271,60.187677,24.830166,13.217201,19.867978,-1.0,-1.0,100.079323,-0.253662,-0.007998,0.017222,0.762027
879041.401757,-0.08157996,-0.17064495000000002,-9.80086689,0.002939,-0.000769,0.004635,-78.09938,95.812958,-209.409271,60.187677,24.830166,13.217201,19.867978,-1.0,-1.0,100.079323,-0.253662,-0.007991,0.017214,0.762026
879041.421742,-0.06975891000000001,-0.15328125,-9.830807010000001,0.003698,-0.001071,0.00419,-78.423233,95.845078,-209.254028,60.187677,24.830166,13.217201,19.867978,-1.0,-1.0,100.079323,-0.253662,-0.007991,0.017215,0.762024
879041.441727,-0.0836793,-0.17064495000000002,-9.81449298,0.003727,-0.001001,0.003919,-78.290176,95.76329,-209.589676,60.187677,24.830166,13.217201,19.867978,-1.0,-1.0,100.079323,-0.253662,-0.007994,0.017222,0.762032
879041.461712,-0.06900354,-0.16810416,-9.803113380000001,0.003941,-0.000672,0.004951,-78.299683,95.748352,-209.325714,60.187677,24.830166,13.217201,19.867978,-1.0,-1.0,100.079323,-0.253662,-0.007999,0.017233,0.762032
879041.481697,-0.08232552,-0.18636057,-9.830502899999999,0.003541,9.6e-05,0.003971,-78.195328,95.827957,-209.373993,60.187677,24.830166,13.217201,19.867978,-1.0,-1.0,100.079323,-0.253662,-0.007996,0.01724,0.762037
879041.501682,-0.08203122,-0.16825131000000002,-9.799974180000001,0.004574,-0.000174,0.003724,-77.971283,95.684799,-209.584991,60.187677,24.830166,13.217201,19.867978,-1.0,-1.0,100.079323,-0.253662,-0.007998,0.017246,0.76205
879041.521668,-0.08442486000000002,-0.16091343000000002,-9.83140542,0.002402,-0.001405,0.004117,-78.190689,95.676773,-209.335617,60.187677,24.830166,13.217201,19.867978,-1.0,-1.0,100.079323,-0.253662,-0.008004,0.01726,0.76206
879041.541653,-0.07424208,-0.17035065,-9.808499070000002,0.003856,-0.001854,0.005158,-78.20282,95.985977,-209.508392,60.187677,24.830166,13.217201,19.867978,-1.0,-1.0,100.079323,-0.253662,-0.008005,0.017268,0.762056
879041.561638,-0.0754389,-0.16899687,-9.82856052,0.004155,-0.000892,0.004339,-78.116959,95.779831,-209.721359,60.187677,24.830166,13.217201,19.867978,-1.0,-1.0,100.079323,-0.253662,-0.008015,0.017289,0.762056
879041.561638,-0.0754389,-0.16899687,-9.82856052,0.004155,-0.000892,0.004339,-78.116959,95.779831,-209.721359,60.187677,24.830166,13.217201,19.867978,-1.0,-1.0,100.079323,-0.253662,-0.008015,0.017289,0.762056
879041.601608,-0.07739109000000001,-0.17258733,-9.80909748,0.003834,-0.000697,0.005367,-78.365891,95.711777,-209.788452,60.187677,24.830166,13.217201,19.867978,-1.0,-1.0,100.079323,-0.253662,-0.008014,0.017312,0.762066
879041.621593,-0.07184844,-0.17573634,-9.83290635,0.002735,0.000312,0.004143,-78.350418,95.676636,-209.483902,60.187677,24.830166,13.217201,19.867978,-1.0,-1.0,100.079323,-0.253662,-0.008013,0.017332,0.762073
879041.641579,-0.07918631999999999,-0.17573634,-9.8014653,0.003201,-0.00036,0.004275,-78.141724,95.881821,-210.017441,60.187677,24.830166,13.217201,19.867978,-1.0,-1.0,100.079323,-0.253662,-0.008007,0.01732,0.762083
879041.641579,-0.07918631999999999,-0.17573634,-9.8014653,0.003201,-0.00036,0.004275,-78.141724,95.881821,-210.017441,60.187677,24.830166,13.217201,19.867978,-1.0,-1.0,100.079323,-0.253662,-0.008007,0.01732,0.762083
879041.681549,-0.08576883000000002,-0.17258733,-9.813590460000002,0.004346,0.000562,0.00508,-78.029449,95.639343,-209.45015,60.187677,24.830166,13.217201,19.867978,-1.0,-1.0,100.079323,-0.253662,-0.008014,0.017325,0.762095
879041.701534,-0.06811083000000001,-0.17408826000000002,-9.803260530000001,0.003361,-0.000323,0.003622,-78.198868,95.886292,-209.239166,60.187677,24.830166,13.217201,19.867978,-1.0,-1.0,100.079323,-0.253662,-0.007999,0.017349,0.762109
879041.721519,-0.0896634,-0.17318574,-9.84412899,0.002965,-7e-05,0.004591,-78.250793,95.906189,-209.428741,60.187677,24.830166,13.217201,19.867978,-1.0,-1.0,100.079323,-0.253662,-0.007993,0.017342,0.762098
879041.741504,-0.06780672,-0.16645608,-9.801171,0.002695,-0.000326,0.003414,-78.361115,95.490997,-209.330231,60.187677,24.830166,13.217201,19.867978,-1.0,-1.0,100.079323,-0.253662,-0.007984,0.017338,0.762105
879041.76149,-0.07170129,-0.155979,-9.82377324,0.003941,-0.000892,0.004939,-78.259598,95.915665,-209.344498,60.187677,24.830166,13.217201,19.867978,-1.0,-1.0,100.079323,-0.253662,-0.007982,0.017344,0.762082
879041.781475,-0.08128566000000001,-0.16839846000000003,-9.80535987,0.002103,-0.000251,0.004246,-78.108047,95.844879,-209.416199,60.187677,24.830166,13.217201,19.867978,-1.0,-1.0,100.079323,-0.253662,-0.007996,0.017352,0.762085
879041.80146,-0.08277678,-0.16600482,-9.82406754,0.003,-0.000752,0.003621,-78.368011,95.678543,-209.111145,60.187677,24.830166,13.217201,19.867978,-1.0,-1.0,100.079994,-0.309151,-0.007983,0.017351,0.762078
879041.84143,-0.08667135000000001,-0.16346403,-9.81688662,0.003262,-0.000661,0.002911,-78.189102,95.921356,-209.533722,60.187677,24.830166,13.217201,19.867978,-1.0,-1.0,100.079994,-0.309151,-0.007974,0.017341,0.762058
879041.84143,-0.08667135000000001,-0.16346403,-9.81688662,0.003262,-0.000661,0.002911,-78.189102,95.921356,-209.533722,60.187677,24.830166,13.217201,19.867978,-1.0,-1.0,100.079994,-0.309151,-0.007974,0.017341,0.762058
879041.881401,-0.0634707,-0.17738442000000001,-9.80820477,0.004063,-0.000849,0.003109,-78.229141,95.809494,-209.70401,60.187677,24.830166,13.217201,19.867978,-1.0,-1.0,100.079994,-0.309151,-0.007962,0.017335,0.76205
879041.901386,-0.07753824,-0.17035065,-9.823920390000001,0.002489,-0.001806,0.002572,-78.012787,95.804428,-210.086365,60.187677,24.830166,13.217201,19.867978,-1.0,-1.0,100.079994,-0.309151,-0.007962,0.017341,0.762047
879041.921371,-0.07648857,-0.17004654,-9.81209934,0.004153,-0.001911,0.004976,-78.286163,95.948364,-209.592667,60.187677,24.830166,13.217201,19.867978,-1.0,-1.0,100.079994,-0.309151,-0.007969,0.017341,0.76204
879041.941356,-0.08382645000000001,-0.16600482,-9.83290635,0.002883,-0.000436,0.003406,-78.226227,95.61586,-210.032196,60.187677,24.830166,13.217201,19.867978,-1.0,-1.0,100.079994,-0.309151,-0.007976,0.017355,0.762029
879041.961341,-0.07963758,-0.17244018,-9.79787484,0.002496,-9.8e-05,0.003933,-78.338806,96.022644,-209.559097,60.187677,24.830166,13.217201,19.867978,-1.0,-1.0,100.079994,-0.309151,-0.007982,0.017362,0.762025
879041.961341,-0.07963758,-0.17244018,-9.79787484,0.002496,-9.8e-05,0.003933,-78.338806,96.022644,-209.559097,60.187677,24.830166,13.217201,19.867978,-1.0,-1.0,100.079994,-0.309151,-0.007982,0.017362,0.762025
879042.001312,-0.06795387,-0.16974243,-9.81059841,0.00331,0.000817,0.003925,-78.448212,95.679764,-209.845108,60.187677,24.830166,13.217201,19.867978,-1.0,-1.0,100.079994,-0.309151,-0.007975,0.017368,0.762015
879042.021297,-0.08308089000000002,-0.16450389,-9.80820477,0.002855,-0.000458,0.004723,-78.228439,95.670349,-209.518005,60.187677,24.830166,13.217201,19.867978,-1.0,-1.0,100.079994,-0.309151,-0.007969,0.017367,0.762017
879042.041282,-0.08382645000000001,-0.18007236000000001,-9.84622833,0.002756,-0.000383,0.004075,-78.347672,95.982483,-209.472702,60.187677,24.830166,13.217201,19.867978,-1.0,-1.0,100.079994,-0.309151,-0.007976,0.017352,0.762012
879042.041282,-0.08382645000000001,-0.18007236000000001,-9.84622833,0.002756,-0.000383,0.004075,-78.347672,95.982483,-209.472702,60.187677,24.830166,13.217201,19.867978,-1.0,-1.0,100.079994,-0.309151,-0.007976,0.017352,0.762012
879042.081252,-0.07844076,-0.17588349,-9.84083283,0.003963,-0.000565,0.003933,-78.516327,95.599014,-209.453766,60.187677,24.830166,13.217201,19.867978,-1.0,-1.0,100.079994,-0.309151,-0.007993,0.017342,0.762002
879042.101238,-0.09415638000000001,-0.16630893,-9.81014715,0.003002,-0.001523,0.005081,-78.371063,95.742172,-209.841553,60.187677,24.830166,13.217201,19.867978,-1.0,-1.0,100.079994,-0.309151,-0.007994,0.01735,0.761993
879042.121223,-0.07844076,-0.16450389,-9.81928026,0.002951,-0.000821,0.004438,-78.371063,95.742172,-209.841553,60.187677,24.830166,13.217201,19.867978,-1.0,-1.0,100.079994,-0.309151,-0.007992,0.017348,0.762001
879042.141208,-0.08172711,-0.15313410000000002,-9.84233376,0.002044,0.00013,0.002874,-78.492233,95.574081,-209.87178,60.187677,24.830166,13.217201,19.867978,-1.0,-1.0,100.079994,-0.309151,-0.007996,0.017341,0.762
879042.161193,-0.07739109000000001,-0.16016787000000002,-9.81389457,0.002965,0.001107,0.00424,-78.415939,95.817871,-209.645691,60.187677,24.830166,13.217201,19.867978,-1.0,-1.0,100.079994,-0.309151,-0.007982,0.01732,0.761995
879042.181178,-0.07708698000000001,-0.17258733,-9.84547296,0.00334,-0.000339,0.005251,-78.271896,95.887299,-209.719147,60.187677,24.830166,13.217201,19.867978,-1.0,-1.0,100.079994,-0.309151,-0.007982,0.017323,0.761995
879042.201164,-0.07978473,-0.16899687,-9.79473564,0.003564,0.000202,0.004841,-78.362595,95.720245,-209.838562,60.187677,24.830166,13.217201,19.867978,-1.0,-1.0,100.079994,-0.309151,-0.007989,0.017314,0.761999
879042.221149,-0.08007903000000001,-0.16435674000000003,-9.81464013,0.003829,0.001009,0.004945,-78.181793,95.783432,-209.678467,60.187677,24.830166,13.217201,19.867978,-1.0,-1.0,100.079994,-0.309151,-0.007991,0.017317,0.762
879042.241134,-0.08592579,-0.17438256000000002,-9.81344331,0.002031,0.000906,0.004876,-78.363098,95.776169,-209.49025,60.187677,24.830166,13.217201,19.867978,-1.0,-1.0,100.079994,-0.309151,-0.007975,0.017321,0.761997
879042.241134,-0.08592579,-0.17438256000000002,-9.81344331,0.002031,0.000906,0.004876,-78.363098,95.776169,-209.49025,60.187677,24.830166,13.217201,19.867978,-1.0,-1.0,100.079994,-0.309151,-0.007975,0.017321,0.761997
879042.241134,-0.08592579,-0.17438256000000002,-9.81344331,0.002031,0.000906,0.004876,-78.363098,95.776169,-209.49025,60.187677,24.830166,13.217201,19.867978,-1.0,-1.0,100.079994,-0.309151,-0.007975,0.017321,0.761997
879042.301089,-0.08726976,-0.16241436,-9.80101404,0.003528,-0.001743,0.004492,-78.511505,95.711884,-209.676285,60.187677,24.830166,13.217201,19.867978,-1.0,-1.0,100.079994,-0.309151,-0.007954,0.017314,0.76199
879042.321075,-0.07873506000000001,-0.17139051000000002,-9.82975734,0.003713,-0.000746,0.003665,-78.507767,95.652954,-209.480774,60.187677,24.830166,13.217201,19.867978,-1.0,-1.0,100.079994,-0.309151,-0.007959,0.017319,0.761989
879042.34106,-0.08067744,-0.16466085000000003,-9.82078119,0.004919,-0.001373,0.004015,-78.330917,95.776138,-209.542831,60.187677,24.830166,13.217201,19.867978,-1.0,-1.0,100.079994,-0.309151,-0.007955,0.017322,0.761971
879042.361045,-0.08337519,-0.16959528000000001,-9.81643536,0.003683,-0.001322,0.005611,-78.433762,95.912491,-209.193344,60.187677,24.830166,13.217201,19.867978,-1.0,-1.0,100.079994,-0.309151,-0.007958,0.017333,0.761964
879042.38103,-0.08607294000000001,-0.16435674000000003,-9.83065986,0.003622,-0.000495,0.005335,-78.48024,95.845215,-209.266373,60.187677,24.830166,13.217201,19.867978,-1.0,-1.0,100.079994,-0.309151,-0.007951,0.017343,0.76197
879042.401015,-0.07364367000000001,-0.17858124000000003,-9.78620094,0.003312,-0.000671,0.00409,-78.302826,96.067383,-209.550766,60.187677,24.830166,13.217201,19.867978,-1.0,-1.0,100.079994,-0.309151,-0.007942,0.01734,0.761988
879042.421001,-0.0953532,-0.16002072,-9.82930608,0.004108,0.000347,0.005277,-78.499527,95.778854,-209.435211,60.187677,24.830166,13.217201,19.867978,-1.0,-1.0,100.079994,-0.309151,-0.007949,0.017334,0.761984
879042.440986,-0.07215255000000001,-0.18112203000000002,-9.81389457,0.004173,-0.000127,0.003168,-78.550537,95.66655,-209.243759,60.187677,24.830166,13.217201,19.867978,-1.0,-1.0,100.079994,-0.309151,-0.007937,0.017335,0.761987
879042.460971,-0.08262963000000001,-0.15762708,-9.811795230000001,0.002988,-0.001369,0.003701,-78.169998,95.851913,-209.329208,60.187677,24.830166,13.217201,19.867978,-1.0,-1.0,100.079994,-0.309151,-0.007936,0.017346,0.761981
879042.500941,-0.08067744,-0.16794720000000002,-9.80640954,0.004552,-0.000524,0.005254,-78.473495,95.751877,-209.658737,60.187677,24.830166,13.217201,19.867978,-1.0,-1.0,100.079994,-0.309151,-0.007951,0.017351,0.761982
879042.500941,-0.08067744,-0.16794720000000002,-9.80640954,0.004552,-0.000524,0.005254,-78.473495,95.751877,-209.658737,60.187677,24.830166,13.217201,19.867978,-1.0,-1.0,100.079994,-0.309151,-0.007951,0.017351,0.761982
879042.520927,-0.08023599000000001,-0.16690734000000002,-9.84607137,0.004557,-0.000262,0.003852,-78.452255,95.762741,-209.411667,60.187677,24.830166,13.217201,19.867978,-1.0,-1.0,100.079994,-0.309151,-0.007962,0.017367,0.761999
879042.560897,-0.06571719000000001,-0.16959528000000001,-9.83798793,0.003517,-0.001122,0.004455,-78.428543,95.84024,-209.458786,60.187677,24.830166,13.217201,19.867978,-1.0,-1.0,100.079994,-0.309151,-0.007977,0.01738,0.762001
879042.580882,-0.08292393,-0.16585766999999998,-9.82526436,0.003062,-0.000213,0.0023,-78.372513,95.812775,-209.304672,60.187677,24.830166,13.217201,19.867978,-1.0,-1.0,100.079994,-0.309151,-0.007969,0.01737,0.762003
879042.600867,-0.08996751000000001,-0.1704978,-9.8128449,0.00292,-0.002043,0.003302,-78.621948,95.639938,-209.830612,60.187677,24.830166,13.217201,19.867978,-1.0,-1.0,100.079994,-0.309151,-0.007966,0.01737,0.761992
879042.600867,-0.08996751000000001,-0.1704978,-9.8128449,0.00292,-0.002043,0.003302,-78.621948,95.639938,-209.830612,60.187677,24.830166,13.217201,19.867978,-1.0,-1.0,100.079994,-0.309151,-0.007966,0.01737,0.761992
879042.640838,-0.07484049000000001,-0.17753157,-9.802966230000001,0.002648,-0.001083,0.003459,-78.425537,95.637741,-209.562775,60.187677,24.830166,13.217201,19.867978,-1.0,-1.0,100.079994,-0.309151,-0.007978,0.017364,0.761966
879042.660823,-0.07739109000000001,-0.17499078,-9.81045126,0.002474,-0.000903,0.004265,-78.15947,95.878311,-209.524521,60.187677,24.830166,13.217201,19.867978,-1.0,-1.0,100.079994,-0.309151,-0.007992,0.017373,0.761961
879042.680808,-0.08128566000000001,-0.16944813,-9.828266220000001,0.00184,0.000702,0.003746,-78.373749,95.895081,-209.760773,60.187677,24.830166,13.217201,19.867978,-1.0,-1.0,100.079994,-0.309151,-0.007988,0.01736,0.761963
879042.700793,-0.08143281,-0.16406244,-9.802966230000001,0.003882,-0.000606,0.003418,-78.402908,95.667282,-209.669952,60.187677,24.830166,13.217201,19.867978,-1.0,-1.0,100.079994,-0.309151,-0.007979,0.017347,0.761965
879042.720779,-0.08607294000000001,-0.16825131000000002,-9.834397469999999,0.002751,-0.000493,0.004514,-78.446808,95.875031,-209.741959,60.187677,24.830166,13.217201,19.867978,-1.0,-1.0,100.079994,-0.309151,-0.007979,0.017352,0.761957
879042.740764,-0.07663572,-0.16959528000000001,-9.815689800000001,0.003242,-0.000839,0.005441,-78.248871,95.863861,-209.845535,60.187677,24.830166,13.217201,19.867978,-1.0,-1.0,100.079994,-0.309151,-0.007986,0.017358,0.761964
879042.740764,-0.07663572,-0.16959528000000001,-9.815689800000001,0.003242,-0.000839,0.005441,-78.248871,95.863861,-209.845535,60.187677,24.830166,13.217201,19.867978,-1.0,-1.0,100.079994,-0.309151,-0.007986,0.017358,0.761964
879042.740764,-0.07663572,-0.16959528000000001,-9.815689800000001,0.003242,-0.000839,0.005441,-78.248871,95.863861,-209.845535,60.187677,24.830166,13.217201,19.867978,-1.0,-1.0,100.079994,-0.309151,-0.007986,0.017358,0.761964
879042.800719,-0.07005321,-0.16226721000000002,-9.817485030000002,0.002745,-0.000287,0.006436,-78.07962,95.928024,-210.036255,60.187677,24.830166,13.217201,19.867978,-1.0,-1.0,100.079994,-0.309151,-0.007987,0.017348,0.76198
879042.820705,-0.07110288000000001,-0.16346403,-9.831258270000001,0.003095,9.1e-05,0.003714,-78.07962,95.928024,-210.036255,60.187677,24.830166,13.217201,19.867978,-1.0,-1.0,100.079994,-0.309151,-0.00799,0.017337,0.761994
879042.84069,-0.07753824,-0.17887554,-9.81344331,0.003029,-0.001371,0.002786,-78.106995,95.963318,-209.77327,60.187677,24.830166,13.217201,19.867978,-1.0,-1.0,100.079994,-0.309151,-0.007989,0.01733,0.761989
879042.860675,-0.08023599000000001,-0.15866694,-9.830502899999999,0.002569,-0.000273,0.005246,-78.360672,95.85408,-209.825928,60.187677,24.830166,13.217201,19.867978,-1.0,-1.0,100.079994,-0.309151,-0.007997,0.01732,0.76198
879042.88066,-0.08772102000000001,-0.1651023,-9.81449298,0.003716,-0.000837,0.002758,-77.983475,96.04776,-209.7733,60.187677,24.830166,13.217201,19.867978,-1.0,-1.0,100.080521,-0.354065,-0.007997,0.017317,0.761983
879042.900645,-0.07079877000000001,-0.17124336,-9.81344331,0.003363,5.5e-05,0.004032,-78.284119,95.919601,-209.591278,60.187677,24.830166,13.217201,19.867978,-1.0,-1.0,100.080521,-0.354065,-0.007994,0.017328,0.761968
879042.920631,-0.08457201,-0.1707921,-9.817033770000002,0.002526,-0.000291,0.003639,-78.512756,95.887573,-209.812027,60.187677,24.830166,13.217201,19.867978,-1.0,-1.0,100.080521,-0.354065,-0.007991,0.017329,0.761964
879042.940616,-0.07918631999999999,-0.17064495000000002,-9.81329616,0.002228,0.001528,0.005614,-78.084412,96.010666,-209.529129,60.187677,24.830166,13.217201,19.867978,-1.0,-1.0,100.080521,-0.354065,-0.007986,0.017325,0.761956
879042.940616,-0.07918631999999999,-0.17064495000000002,-9.81329616,0.002228,0.001528,0.005614,-78.084412,96.010666,-209.529129,60.187677,24.830166,13.217201,19.867978,-1.0,-1.0,100.080521,-0.354065,-0.007986,0.017325,0.761956
879042.940616,-0.07918631999999999,-0.17064495000000002,-9.81329616,0.002228,0.001528,0.005614,-78.084412,96.010666,-209.529129,60.187677,24.830166,13.217201,19.867978,-1.0,-1.0,100.080521,-0.354065,-0.007986,0.017325,0.761956
879043.000572,-0.0811287,-0.17019369,-9.82152675,0.003964,0.000173,0.004879,-78.007431,95.921112,-209.443909,60.187677,24.830166,13.217201,19.867978,-1.0,-1.0,100.080521,-0.354065,-0.007951,0.017297,0.76196
879043.020557,-0.0782838,-0.16031502,-9.81808344,0.004425,-3.9e-05,0.003776,-77.924194,96.028015,-209.605179,60.187677,24.830166,13.217201,19.867978,-1.0,-1.0,100.080521,-0.354065,-0.007947,0.017295,0.76197
879043.040542,-0.07993188000000001,-0.17992521,-9.82032993,0.001644,-2.1e-05,0.003341,-78.19606,95.953171,-209.708176,60.187677,24.830166,13.217201,19.867978,-1.0,-1.0,100.080521,-0.354065,-0.007954,0.017302,0.761968
879043.060527,-0.0691605,-0.17274429,-9.812246490000001,0.002508,-0.000516,0.00434,-78.367935,95.875183,-209.596954,60.187677,24.830166,13.217201,19.867978,-1.0,-1.0,100.080521,-0.354065,-0.007951,0.017303,0.761963
879043.080512,-0.07663572,-0.17499078,-9.82930608,0.004025,-0.000136,0.00575,-78.171722,95.95076,-209.501205,60.187677,24.830166,13.217201,19.867978,-1.0,-1.0,100.080521,-0.354065,-0.007947,0.017303,0.761963
879043.120483,-0.07589016,-0.16630893,-9.831258270000001,0.002664,-0.001331,0.0048,-78.050446,96.075058,-209.209961,60.187677,24.830166,13.217201,19.867978,-1.0,-1.0,100.080521,-0.354065,-0.00794,0.017299,0.761976
879043.140468,-0.07873506000000001,-0.1707921,-9.82616688,0.002902,2.7e-05,0.001459,-78.000427,96.02594,-209.138565,60.187677,24.830166,13.217201,19.867978,-1.0,-1.0,100.080521,-0.354065,-0.007946,0.017303,0.761984
879043.160453,-0.07903917,-0.17274429,-9.80581113,0.003673,-0.001238,0.004637,-78.092163,96.113052,-209.093292,60.187677,24.830166,13.217201,19.867978,-1.0,-1.0,100.080521,-0.354065,-0.007947,0.017308,0.761981
879043.160453,-0.07903917,-0.17274429,-9.80581113,0.003673,-0.001238,0.004637,-78.092163,96.113052,-209.093292,60.187677,24.830166,13.217201,19.867978,-1.0,-1.0,100.080521,-0.354065,-0.007947,0.017308,0.761981
879043.200424,-0.06840513000000001,-0.17453952,-9.811343970000001,0.002331,-0.000323,0.002779,-78.126068,96.033554,-209.195541,60.187677,24.830166,13.217201,19.867978,-1.0,-1.0,100.080521,-0.354065,-0.007953,0.017324,0.761981
879043.220409,-0.07215255000000001,-0.15777423000000002,-9.82212516,0.001527,-0.000701,0.005236,-78.289963,95.981506,-209.316757,60.187677,24.830166,13.217201,19.867978,-1.0,-1.0,100.080521,-0.354065,-0.007945,0.017316,0.761984
879043.240394,-0.06930765,-0.17035065,-9.83410317,0.00274,-4.5e-05,0.00522,-78.103424,95.982315,-209.021362,60.187677,24.830166,13.217201,19.867978,-1.0,-1.0,100.080521,-0.354065,-0.007954,0.017313,0.761992
879043.240394,-0.06930765,-0.17035065,-9.83410317,0.00274,-4.5e-05,0.00522,-78.103424,95.982315,-209.021362,60.187677,24.830166,13.217201,19.867978,-1.0,-1.0,100.080521,-0.354065,-0.007954,0.017313,0.761992
879043.280365,-0.08203122,-0.16256151,-9.84592422,0.003525,-0.000791,0.003691,-78.174957,95.854858,-209.516556,60.187677,24.830166,13.217201,19.867978,-1.0,-1.0,100.080521,-0.354065,-0.007958,0.017304,0.761978
879043.30035,-0.07873506000000001,-0.16884972000000004,-9.80535987,0.002957,-0.001143,0.003261,-77.942719,95.846634,-209.442062,60.187677,24.830166,13.217201,19.867978,-1.0,-1.0,100.080521,-0.354065,-0.007962,0.017297,0.761977
879043.320335,-0.07334937000000001,-0.17169462000000002,-9.82466595,0.003428,-0.00134,0.005002,-78.306763,95.96254,-209.725861,60.187677,24.830166,13.217201,19.867978,-1.0,-1.0,100.080521,-0.354065,-0.007971,0.017301,0.76198
879043.34032,-0.09265545000000001,-0.17184177000000003,-9.81119682,0.003865,-4e-05,0.004342,-77.996124,95.944672,-209.315826,60.187677,24.830166,13.217201,19.867978,-1.0,-1.0,100.080521,-0.354065,-0.007974,0.017308,0.761986
879043.360306,-0.07409493,-0.17722746,-9.817485030000002,0.002669,-0.000234,0.004703,-78.006165,95.925034,-209.461212,60.187677,24.830166,13.217201,19.867978,-1.0,-1.0,100.080521,-0.354065,-0.007971,0.017302,0.761984
879043.380291,-0.08876088000000001,-0.16914402,-9.839037600000001,0.002541,-0.000343,0.004618,-78.11702,96.023895,-209.400421,60.187677,24.830166,13.217201,19.867978,-1.0,-1.0,100.080521,-0.354065,-0.00796,0.01729,0.76199
879043.400276,-0.0868185,-0.18427104,-9.80266212,0.001871,-0.000383,0.004302,-78.127365,96.093842,-209.279404,60.187677,24.830166,13.217201,19.867978,-1.0,-1.0,100.080521,-0.354065,-0.00795,0.017277,0.761987
879043.420261,-0.07739109000000001,-0.15926535,-9.82841337,0.002944,0.000382,0.003723,-77.942154,95.991547,-209.492889,60.187677,24.830166,13.217201,19.867978,-1.0,-1.0,100.080521,-0.354065,-0.00795,0.017282,0.761983
879043.440247,-0.07724394000000001,-0.16765290000000002,-9.813139200000002,0.00234,-0.00112,0.004703,-78.109192,95.999634,-209.830383,60.187677,24.830166,13.217201,19.867978,-1.0,-1.0,100.080521,-0.354065,-0.007964,0.017288,0.761976
879043.460232,-0.08053028999999999,-0.16645608,-9.814787280000001,0.00337,-8.2e-05,0.002756,-78.087997,96.00885,-209.466812,60.187677,24.830166,13.217201,19.867978,-1.0,-1.0,100.080521,-0.354065,-0.007969,0.017289,0.76198
879043.480217,-0.07693983,-0.17274429,-9.84876912,0.003521,-0.001473,0.003647,-78.211075,95.987411,-209.504486,60.187677,24.830166,13.217201,19.867978,-1.0,-1.0,100.080521,-0.354065,-0.007958,0.017299,0.761982
879043.500202,-0.07589016,-0.16914402,-9.80565417,0.004303,9.8e-05,0.00389,-78.118057,95.911499,-209.136017,60.187677,24.830166,13.217201,19.867978,-1.0,-1.0,100.080521,-0.354065,-0.00796,0.017312,0.761977
879043.520187,-0.09086022,-0.16930098,-9.831101310000001,0.003567,-0.000227,0.003702,-78.107346,96.072556,-209.235977,60.187677,24.830166,13.217201,19.867978,-1.0,-1.0,100.080521,-0.354065,-0.007968,0.017321,0.761983
879043.540173,-0.07499745000000001,-0.16810416,-9.81434583,0.002677,0.000176,0.004894,-78.107346,96.072556,-209.235977,60.187677,24.830166,13.217201,19.867978,-1.0,-1.0,100.080521,-0.354065,-0.00796,0.01733,0.761978
879043.560158,-0.08217837000000001,-0.16361118,-9.82930608,0.003641,-9.2e-05,0.003982,-78.126251,95.886383,-209.327866,60.187677,24.830166,13.217201,19.867978,-1.0,-1.0,100.080521,-0.354065,-0.007968,0.017339,0.761988
879043.580143,-0.0751446,-0.15657741,-9.84218661,0.00362,4.3e-05,0.003539,-78.104065,95.899796,-209.423416,60.187677,24.830166,13.217201,19.867978,-1.0,-1.0,100.080521,-0.354065,-0.007963,0.017361,0.76199
879043.600128,-0.07768539,-0.16525926000000002,-9.80385894,0.004749,0.00058,0.004225,-78.165756,95.954163,-209.768463,60.187677,24.830166,13.217201,19.867978,-1.0,-1.0,100.080521,-0.354065,-0.007954,0.01737,0.761991
879043.620114,-0.08427771,-0.1764819,-9.83290635,0.002858,-0.00135,0.003829,-78.030579,96.026596,-209.165161,60.187677,24.830166,13.217201,19.867978,-1.0,-1.0,100.080521,-0.354065,-0.007952,0.01738,0.762002
879043.640099,-0.07693983,-0.16870257000000002,-9.803711790000001,0.003513,-0.000148,0.004949,-78.035843,96.024033,-209.723587,60.187677,24.830166,13.217201,19.867978,-1.0,-1.0,100.080521,-0.354065,-0.007946,0.017381,0.76198
879043.680069,-0.07858791000000001,-0.17154747,-9.82661814,0.002909,-0.00104,0.004892,-78.025635,96.138,-209.313995,60.187677,24.830166,13.217201,19.867978,-1.0,-1.0,100.080521,-0.354065,-0.007949,0.017397,0.761975
879043.680069,-0.07858791000000001,-0.17154747,-9.82661814,0.002909,-0.00104,0.004892,-78.025635,96.138,-209.313995,60.187677,24.830166,13.217201,19.867978,-1.0,-1.0,100.080521,-0.354065,-0.007949,0.017397,0.761975
879043.72004,-0.07589016,-0.15582204,-9.84098979,0.003598,1.2e-05,0.004865,-78.165451,95.99353,-209.74704,60.187677,24.830166,13.217201,19.867978,-1.0,-1.0,100.080521,-0.354065,-0.007977,0.017428,0.761991
879043.72004,-0.07589016,-0.15582204,-9.84098979,0.003598,1.2e-05,0.004865,-78.165451,95.99353,-209.74704,60.187677,24.830166,13.217201,19.867978,-1.0,-1.0,100.080521,-0.354065,-0.007977,0.017428,0.761991
879043.760011,-0.07304526,-0.1707921,-9.835143030000001,0.004504,-0.000319,0.005654,-78.149704,95.894424,-209.232269,60.187677,24.830166,13.217201,19.867978,-1.0,-1.0,100.080521,-0.354065,-0.007976,0.017433,0.762006
879043.779996,-0.0779895,-0.17184177000000003,-9.81763218,0.004314,-0.00051,0.004465,-78.155487,96.119247,-209.177505,60.187677,24.830166,13.217201,19.867978,-1.0,-1.0,100.080521,-0.354065,-0.007967,0.017437,0.762008
879043.799981,-0.07739109000000001,-0.18471249,-9.81074556,0.002984,-0.000305,0.003814,-78.343124,95.886917,-209.242752,60.187677,24.830166,13.217201,19.867978,-1.0,-1.0,100.080521,-0.354065,-0.007972,0.017446,0.762007
879043.819966,-0.07933347,-0.16854560999999998,-9.83724237,0.002157,-0.000236,0.003607,-78.157806,95.854843,-208.811142,60.187677,24.830166,13.217201,19.867978,-1.0,-1.0,100.080521,-0.354065,-0.007971,0.017448,0.762008
879043.839951,-0.07813665,-0.17812998000000002,-9.80191656,0.003655,0.000114,0.003484,-78.254929,95.99353,-209.161896,60.187677,24.830166,13.217201,19.867978,-1.0,-1.0,100.080521,-0.354065,-0.007967,0.017449,0.762019
879043.839951,-0.07813665,-0.17812998000000002,-9.80191656,0.003655,0.000114,0.003484,-78.254929,95.99353,-209.161896,60.187677,24.830166,13.217201,19.867978,-1.0,-1.0,100.080521,-0.354065,-0.007967,0.017449,0.762019
879043.879922,-0.08696565,-0.16750575,-9.811049670000001,0.00246,0.000134,0.003835,-78.106705,95.9767,-209.240829,60.187677,24.830166,13.217201,19.867978,-1.0,-1.0,100.080521,-0.354065,-0.007958,0.017455,0.762006
879043.899907,-0.07574301000000001,-0.16810416,-9.82152675,0.002787,-0.000807,0.005077,-78.08226,95.877945,-209.106064,60.187677,24.830166,13.217201,19.867978,-1.0,-1.0,100.080521,-0.354065,-0.007966,0.017457,0.762002
879043.919893,-0.09056592000000001,-0.17184177000000003,-9.82152675,0.003831,-0.000289,0.003371,-78.350616,95.861435,-209.235611,60.187677,24.830166,13.217201,19.867978,-1.0,-1.0,100.080521,-0.354065,-0.007981,0.017463,0.762006
879043.919893,-0.09056592000000001,-0.17184177000000003,-9.82152675,0.003831,-0.000289,0.003371,-78.350616,95.861435,-209.235611,60.187677,24.830166,13.217201,19.867978,-1.0,-1.0,100.080521,-0.354065,-0.007981,0.017463,0.762006
879043.959863,-0.07724394000000001,-0.17827713000000003,-9.837840779999999,0.00304,-0.000262,0.002988,-78.171173,95.89624,-209.11525,60.187677,24.830166,13.217201,19.867978,-1.0,-1.0,100.081123,-0.404274,-0.007988,0.017467,0.762001
879043.979848,-0.0754389,-0.17334270000000002,-9.79428438,0.002781,-5.5e-05,0.006218,-78.05275,95.932037,-209.457642,60.187677,24.830166,13.217201,19.867978,-1.0,-1.0,100.081123,-0.404274,-0.007983,0.017464,0.761989
879043.999834,-0.0751446,-0.16720164,-9.82601973,0.002947,-0.000803,0.004292,-78.220398,96.054199,-209.166824,60.187677,24.830166,13.217201,19.867978,-1.0,-1.0,100.081123,-0.404274,-0.007974,0.017452,0.761995
879044.019819,-0.07648857,-0.16570071,-9.818377739999999,0.004216,-0.000659,0.004487,-78.021896,95.962692,-209.352219,60.187677,24.830166,13.217201,19.867978,-1.0,-1.0,100.081123,-0.404274,-0.007978,0.017448,0.761998
879044.039804,-0.07229970000000001,-0.17004654,-9.81823059,0.003371,-0.000727,0.002936,-78.131134,95.822754,-209.425308,60.187677,24.830166,13.217201,19.867978,-1.0,-1.0,100.081123,-0.404274,-0.007971,0.017459,0.761993
879044.059789,-0.07993188000000001,-0.17244018,-9.819427410000001,0.001192,-0.000127,0.003827,-78.036423,96.055969,-209.000076,60.187677,24.830166,13.217201,19.867978,-1.0,-1.0,100.081123,-0.404274,-0.007966,0.017467,0.761993
879044.079775,-0.07184844,-0.16675038,-9.80925444,0.003304,-0.002207,0.004262,-78.222534,96.080139,-209.382904,60.187677,24.830166,13.217201,19.867978,-1.0,-1.0,100.081123,-0.404274,-0.007942,0.017445,0.761983
879044.09976,-0.07394778,-0.17154747,-9.810304109999999,0.003909,-0.000708,0.00327,-78.229935,96.012634,-209.489212,60.187677,24.830166,13.217201,19.867978,-1.0,-1.0,100.081123,-0.404274,-0.007957,0.017447,0.761991
879044.119745,-0.07529175,-0.15866694,-9.819731520000001,0.002551,0.000607,0.005008,-78.102097,96.030487,-209.313843,60.187677,24.830166,13.217201,19.867978,-1.0,-1.0,100.081123,-0.404274,-0.007961,0.017451,0.761999
879044.13973,-0.07784234999999999,-0.17438256000000002,-9.80820477,0.002867,-0.00113,0.004165,-78.10817,96.106674,-209.23938,60.187677,24.830166,13.217201,19.867978,-1.0,-1.0,100.081123,-0.404274,-0.007958,0.017444,0.762002
879044.159716,-0.08397360000000001,-0.17483382000000003,-9.82990449,0.004323,-0.000509,0.003304,-78.328796,96.01622,-209.000717,60.187677,24.830166,13.217201,19.867978,-1.0,-1.0,100.081123,-0.404274,-0.007973,0.017453,0.762008
879044.179701,-0.07978473,-0.16256151,-9.80162226,0.0053,0.000303,0.003313,-78.137924,95.914322,-209.250549,60.187677,24.830166,13.217201,19.867978,-1.0,-1.0,100.081123,-0.404274,-0.007979,0.01746,0.761991
879044.199686,-0.08382645000000001,-0.17184177000000003,-9.84143124,0.0042,-0.000378,0.003399,-78.221283,96.116852,-209.215836,60.187677,24.830166,13.217201,19.867978,-1.0,-1.0,100.081123,-0.404274,-0.00798,0.017481,0.761982
879044.219672,-0.08217837000000001,-0.16794720000000002,-9.82796211,0.004136,-0.000119,0.003734,-78.040833,96.188309,-209.187485,60.187677,24.830166,13.217201,19.867978,-1.0,-1.0,100.081123,-0.404274,-0.007989,0.017482,0.761975
879044.239657,-0.08532738,-0.17035065,-9.81628821,0.003337,-0.001017,0.003791,-78.040833,96.188309,-209.187485,60.187677,24.830166,13.217201,19.867978,-1.0,-1.0,100.081123,-0.404274,-0.007983,0.017498,0.761977
879044.259642,-0.07663572,-0.17303859,-9.835751250000001,0.002385,0.000295,0.004296,-78.134888,96.153595,-208.848572,60.187677,24.830166,13.217201,19.867978,-1.0,-1.0,100.081123,-0.404274,-0.007989,0.017503,0.761984
879044.279627,-0.06765957,-0.18367263,-9.79758054,0.003787,-0.00116,0.004525,-78.011307,96.100403,-208.717514,60.187677,24.830166,13.217201,19.867978,-1.0,-1.0,100.081123,-0.404274,-0.007984,0.017505,0.761986
879044.319598,-0.07244685000000001,-0.16660323000000002,-9.816141060000001,0.003242,-0.001265,0.004678,-78.22142,95.935318,-209.041351,60.187677,24.830166,13.217201,19.867978,-1.0,-1.0,100.081123,-0.404274,-0.008004,0.017514,0.761992
879044.319598,-0.07244685000000001,-0.16660323000000002,-9.816141060000001,0.003242,-0.001265,0.004678,-78.22142,95.935318,-209.041351,60.187677,24.830166,13.217201,19.867978,-1.0,-1.0,100.081123,-0.404274,-0.008004,0.017514,0.761992
879044.359568,-0.07768539,-0.16705449,-9.82122264,0.003447,-9.3e-05,0.004297,-78.024353,96.2668,-209.217361,60.187677,24.830166,13.217201,19.867978,-1.0,-1.0,100.081123,-0.404274,-0.008014,0.017517,0.761995
879044.359568,-0.07768539,-0.16705449,-9.82122264,0.003447,-9.3e-05,0.004297,-78.024353,96.2668,-209.217361,60.187677,24.830166,13.217201,19.867978,-1.0,-1.0,100.081123,-0.404274,-0.008014,0.017517,0.761995
879044.399539,-0.06780672,-0.16989939,-9.82975734,0.003311,9.7e-05,0.003279,-78.07225,96.101303,-209.135376,60.187677,24.830166,13.217201,19.867978,-1.0,-1.0,100.081123,-0.404274,-0.008,0.01753,0.762001
879044.419524,-0.07724394000000001,-0.16825131000000002,-9.81628821,0.003211,0.000104,0.00402,-78.153625,96.172394,-209.171188,60.187677,24.830166,13.217201,19.867978,-1.0,-1.0,100.081123,-0.404274,-0.008001,0.017525,0.762
879044.43951,-0.06856209,-0.16989939,-9.81119682,0.004986,-0.000351,0.004171,-78.054428,96.167221,-208.996765,60.187677,24.830166,13.217201,19.867978,-1.0,-1.0,100.081123,-0.404274,-0.008008,0.017526,0.761997
879044.43951,-0.06856209,-0.16989939,-9.81119682,0.004986,-0.000351,0.004171,-78.054428,96.167221,-208.996765,60.187677,24.830166,13.217201,19.867978,-1.0,-1.0,100.081123,-0.404274,-0.008008,0.017526,0.761997
879044.459495,-0.06615864,-0.16435674000000003,-9.82152675,0.003942,0.000235,0.004213,-78.073563,96.096054,-208.70079,60.187677,24.830166,13.217201,19.867978,-1.0,-1.0,100.081123,-0.404274,-0.008003,0.017536,0.761997
879044.47948,-0.09789399,-0.16930098,-9.82556847,0.003218,-0.00065,0.005329,-78.014801,96.096634,-209.014069,60.187677,24.830166,13.217201,19.867978,-1.0,-1.0,100.081123,-0.404274,-0.007993,0.017548,0.761992
879044.499465,-0.07079877000000001,-0.1707921,-9.82062423,0.00234,-0.00013,0.005024,-78.159927,96.111938,-209.092484,60.187677,24.830166,13.217201,19.867978,-1.0,-1.0,100.081123,-0.404274,-0.007993,0.017539,0.762005
879044.539436,-0.08352234000000001,-0.16076628,-9.82511721,0.003487,-0.000984,0.002826,-78.173859,96.073654,-209.509827,60.187677,24.830166,13.217201,19.867978,-1.0,-1.0,100.081123,-0.404274,-0.007991,0.01754,0.762018
879044.559421,-0.08157996,-0.16540641000000003,-9.81554265,0.003245,-0.000462,0.002936,-78.197128,96.168182,-209.121246,60.187677,24.830166,13.217201,19.867978,-1.0,-1.0,100.081123,-0.404274,-0.007985,0.017544,0.762007
879044.599392,-0.08397360000000001,-0.16959528000000001,-9.8128449,0.002802,-0.00253,0.002988,-77.981659,96.240128,-208.962509,60.187677,24.830166,13.217201,19.867978,-1.0,-1.0,100.081123,-0.404274,-0.007989,0.017553,0.761995
879044.639362,-0.08277678,-0.17035065,-9.82646118,0.004651,-0.000193,0.005327,-77.894119,96.026779,-209.051498,60.187677,24.830166,13.217201,19.867978,-1.0,-1.0,100.081123,-0.404274,-0.008007,0.017539,0.761982
879044.639362,-0.08277678,-0.17035065,-9.82646118,0.004651,-0.000193,0.005327,-77.894119,96.026779,-209.051498,60.187677,24.830166,13.217201,19.867978,-1.0,-1.0,100.081123,-0.404274,-0.008007,0.017539,0.761982
879044.679333,-0.07619427,-0.16839846000000003,-9.830502899999999,0.003687,-0.000177,0.004934,-78.036652,96.020523,-208.752075,60.187677,24.830166,13.217201,19.867978,-1.0,-1.0,100.081123,-0.404274,-0.008016,0.017538,0.761998
879044.699318,-0.07289811,-0.16420959000000002,-9.820025820000001,0.001848,-0.001005,0.004749,-77.771362,95.749161,-208.544998,60.187677,24.830166,13.217201,19.867978,-1.0,-1.0,100.081123,-0.404274,-0.008016,0.017541,0.762005
879044.719303,-0.08696565,-0.16600482,-9.820928340000002,0.002569,-0.001465,0.003872,-78.173553,96.036514,-208.982605,60.187677,24.830166,13.217201,19.867978,-1.0,-1.0,100.081123,-0.404274,-0.008025,0.017532,0.762009
879044.739289,-0.07589016,-0.17124336,-9.816582510000002,0.003277,0.000358,0.00509,-78.073105,96.092773,-209.062393,60.187677,24.830166,13.217201,19.867978,-1.0,-1.0,100.081123,-0.404274,-0.008026,0.01754,0.762009
879044.759274,-0.07380063,-0.17708031000000002,-9.80550702,0.002543,-0.00078,0.003317,-78.174927,95.940872,-209.225327,60.187677,24.830166,13.217201,19.867978,-1.0,-1.0,100.081123,-0.404274,-0.007997,0.01755,0.762009
879044.779259,-0.07963758,-0.1651023,-9.82332198,0.002382,-0.000741,0.00408,-78.273636,95.803925,-209.06012,60.187677,24.830166,13.217201,19.867978,-1.0,-1.0,100.081123,-0.404274,-0.007986,0.017544,0.762003
879044.799245,-0.07888221,-0.17738442000000001,-9.80281908,0.003031,-0.00029,0.005267,-78.279465,95.962875,-209.055023,60.187677,24.830166,13.217201,19.867978,-1.0,-1.0,100.081123,-0.404274,-0.007979,0.01753,0.762001
879044.81923,-0.08831943,-0.16600482,-9.828266220000001,0.002662,0.000725,0.004347,-78.301147,95.872787,-208.780472,60.187677,24.830166,13.217201,19.867978,-1.0,-1.0,100.081123,-0.404274,-0.00798,0.017518,0.762001
879044.839215,-0.08352234000000001,-0.16825131000000002,-9.81209934,0.002734,0.000271,0.003777,-78.221878,96.130753,-209.425064,60.187677,24.830166,13.217201,19.867978,-1.0,-1.0,100.081123,-0.404274,-0.007974,0.017508,0.761996
879044.8592,-0.06691401,-0.17767872,-9.81808344,0.003481,-0.000866,0.004132,-78.223907,95.973007,-209.006332,60.187677,24.830166,13.217201,19.867978,-1.0,-1.0,100.081123,-0.404274,-0.007971,0.017503,0.76199
879044.879186,-0.06256818,-0.17303859,-9.82975734,0.004349,-0.000733,0.004346,-78.116348,96.148453,-209.213181,60.187677,24.830166,13.217201,19.867978,-1.0,-1.0,100.081123,-0.404274,-0.007969,0.017486,0.761985
879044.899171,-0.06316659000000001,-0.17468667000000002,-9.80655669,0.003291,-0.001009,0.004326,-78.218216,96.056122,-209.110687,60.187677,24.830166,13.217201,19.867978,-1.0,-1.0,100.081123,-0.404274,-0.007981,0.017478,0.76198
879044.919156,-0.08382645000000001,-0.16450389,-9.82766781,0.003785,-0.000234,0.003167,-78.181305,95.852753,-209.236496,60.187677,24.830166,13.217201,19.867978,-1.0,-1.0,100.081123,-0.404274,-0.007977,0.017468,0.76198
879044.959127,-0.07409493,-0.17678601,-9.82990449,0.003724,0.002113,0.005242,-78.163467,95.782196,-209.174759,60.187677,24.830166,13.217201,19.867978,-1.0,-1.0,100.081123,-0.404274,-0.00797,0.017484,0.761951
879044.979112,-0.08786817,-0.16675038,-9.812246490000001,0.003677,-0.000878,0.003461,-78.397141,95.904984,-209.147369,60.187677,24.830166,13.217201,19.867978,-1.0,-1.0,100.081123,-0.404274,-0.007953,0.017479,0.761958
879044.999097,-0.08262963000000001,-0.16375833,-9.813590460000002,0.002815,-0.000262,0.003378,-78.08934,95.967209,-209.041702,60.187677,24.830166,13.217201,19.867978,-1.0,-1.0,100.081123,-0.404274,-0.007954,0.017484,0.761953
879045.019083,-0.06870924,-0.16226721000000002,-9.83200383,0.002504,0.000581,0.004603,-78.190063,95.918823,-209.174759,60.187677,24.830166,13.217201,19.867978,-1.0,-1.0,100.081123,-0.404274,-0.007964,0.017482,0.761962
879045.039068,-0.0779895,-0.17782587000000002,-9.80581113,0.003304,-0.001396,0.004761,-78.116943,95.858566,-209.264969,60.187677,24.830166,13.217201,19.867978,-1.0,-1.0,100.081261,-0.41748,-0.007941,0.017476,0.761965
879045.059053,-0.08337519,-0.16286562,-9.82796211,0.003788,-0.000351,0.004445,-78.146927,95.76265,-209.094284,60.187677,24.830166,13.217201,19.867978,-1.0,-1.0,100.081261,-0.41748,-0.007958,0.017488,0.761966
879045.079039,-0.08696565,-0.1764819,-9.81868185,0.002474,-0.001711,0.003018,-78.106888,95.873749,-208.961182,60.187677,24.830166,13.217201,19.867978,-1.0,-1.0,100.081261,-0.41748,-0.007956,0.017484,0.761957
879045.099024,-0.08188407,-0.16420959000000002,-9.8159841,0.002956,-0.000383,0.00449,-78.054245,95.716187,-209.039871,60.187677,24.830166,13.217201,19.867978,-1.0,-1.0,100.081261,-0.41748,-0.007971,0.017474,0.761952
879045.119009,-0.07648857,-0.17019369,-9.8242245,0.003616,0.000446,0.003629,-78.206741,95.678619,-209.118591,60.187676,24.830164,13.370145,19.867979,-1.0,-1.0,100.081261,-0.41748,-0.007972,0.017469,0.76196
879045.138994,-0.07499745000000001,-0.17722746,-9.796079610000001,0.002745,-0.000262,0.004436,-78.254303,95.884689,-209.089935,60.187676,24.830164,13.370145,19.867979,-1.0,-1.0,100.081261,-0.41748,-0.007972,0.017466,0.761963
879045.15898,-0.08277678,-0.16495515000000002,-9.83918475,0.004207,-2.9e-05,0.002661,-78.173828,95.716721,-209.208389,60.187676,24.830164,13.370145,19.867979,-1.0,-1.0,100.081261,-0.41748,-0.007973,0.01746,0.761978
879045.178965,-0.07275096,-0.16375833,-9.807155100000001,0.002485,0.001444,0.002088,-78.009125,95.897964,-209.037567,60.187676,24.830164,13.370145,19.867979,-1.0,-1.0,100.081261,-0.41748,-0.007973,0.01746,0.76199
879045.19895,-0.07948062,-0.15582204,-9.82197801,0.003163,0.000206,0.004724,-78.115234,96.06485,-209.132278,60.187676,24.830164,13.370145,19.867979,-1.0,-1.0,100.081261,-0.41748,-0.007975,0.017464,0.761978
879045.218936,-0.07948062,-0.15806852999999998,-9.819584370000001,0.003392,-0.000846,0.005311,-78.101822,96.015732,-208.967209,60.187676,24.830164,13.370145,19.867979,-1.0,-1.0,100.081261,-0.41748,-0.007962,0.017464,0.761971
879045.238921,-0.08128566000000001,-0.16420959000000002,-9.81209934,0.002705,7e-05,0.005464,-78.102798,96.055496,-209.055466,60.187676,24.830164,13.370145,19.867979,-1.0,-1.0,100.081261,-0.41748,-0.007962,0.017461,0.761977
879045.238921,-0.08128566000000001,-0.16420959000000002,-9.81209934,0.002705,7e-05,0.005464,-78.102798,96.055496,-209.055466,60.187676,24.830164,13.370145,19.867979,-1.0,-1.0,100.081261,-0.41748,-0.007962,0.017461,0.761977
879045.258906,-0.07933347,-0.16346403,-9.839037600000001,0.003694,-0.00081,0.004299,-78.337982,96.048264,-209.096695,60.187676,24.830164,13.370145,19.867979,-1.0,-1.0,100.081261,-0.41748,-0.007964,0.017464,0.761975
879045.298877,-0.08592579,-0.16420959000000002,-9.82631403,0.003337,-0.002049,0.002556,-77.946091,95.85083,-209.189941,60.187676,24.830164,13.370145,19.867979,-1.0,-1.0,100.081261,-0.41748,-0.007971,0.017485,0.761978
879045.318862,-0.07439904,-0.16615197,-9.828266220000001,0.00372,-0.000592,0.005077,-78.041321,95.963547,-209.208099,60.187676,24.830164,13.370145,19.867979,-1.0,-1.0,100.081261,-0.41748,-0.007968,0.017473,0.761974
879045.358833,-0.08232552,-0.1764819,-9.82975734,0.002521,-0.001403,0.003605,-77.975922,95.886276,-209.288589,60.187676,24.830164,13.370145,19.867979,-1.0,-1.0,100.081261,-0.41748,-0.00797,0.017473,0.76199
879045.378818,-0.07753824,-0.16899687,-9.799817220000001,0.003498,-0.001844,0.005891,-78.080582,96.132462,-209.237213,60.187676,24.830164,13.370145,19.867979,-1.0,-1.0,100.081261,-0.41748,-0.007971,0.017475,0.761992
879045.398803,-0.07724394000000001,-0.17378415000000003,-9.81329616,0.001407,5e-06,0.004654,-77.924072,96.025452,-209.054199,60.187676,24.830164,13.370145,19.867979,-1.0,-1.0,100.081261,-0.41748,-0.007987,0.01748,0.762021
879045.418788,-0.07619427,-0.17513793000000002,-9.81164808,0.001625,-0.000778,0.004817,-78.147934,95.852982,-209.457581,60.187676,24.830164,13.370145,19.867979,-1.0,-1.0,100.081261,-0.41748,-0.007971,0.017467,0.762013
879045.438774,-0.07499745000000001,-0.17289144,-9.815238540000001,0.003251,-0.000908,0.003582,-78.152939,95.889282,-209.30368,60.187676,24.830164,13.370145,19.867979,-1.0,-1.0,100.081261,-0.41748,-0.007969,0.017455,0.762012
879045.458759,-0.08083440000000001,-0.17483382000000003,-9.82062423,0.003223,-0.000952,0.004504,-78.200134,96.193817,-209.195999,60.187676,24.830164,13.370145,19.867979,-1.0,-1.0,100.081261,-0.41748,-0.007969,0.017444,0.762012
879045.478744,-0.07858791000000001,-0.16974243,-9.80041563,0.002805,-0.001619,0.004593,-78.101364,96.048126,-209.119568,60.187676,24.830164,13.370145,19.867979,-1.0,-1.0,100.081261,-0.41748,-0.007974,0.017443,0.76202
879045.49873,-0.07933347,-0.17842428,-9.82631403,0.0033,-0.00054,0.003661,-78.077271,95.782196,-209.120819,60.187676,24.830164,13.370145,19.867979,-1.0,-1.0,100.081261,-0.41748,-0.007982,0.017448,0.762027
879045.518715,-0.08217837000000001,-0.17124336,-9.81464013,0.004189,-0.000856,0.003871,-78.234406,95.887543,-209.285507,60.187676,24.830164,13.370145,19.867979,-1.0,-1.0,100.081261,-0.41748,-0.007971,0.017448,0.762031
879045.5387,-0.07903917,-0.16734879000000003,-9.822272309999999,0.003572,-0.001414,0.004484,-78.331528,95.712982,-209.683136,60.187676,24.830164,13.370145,19.867979,-1.0,-1.0,100.081261,-0.41748,-0.007977,0.017446,0.762042
879045.558685,-0.07708698000000001,-0.16914402,-9.82586277,0.003625,0.000555,0.003437,-78.241302,95.986237,-209.34436,60.187676,24.830164,13.370145,19.867979,-1.0,-1.0,100.081261,-0.41748,-0.007981,0.017443,0.762047
879045.578671,-0.07469334000000001,-0.16091343000000002,-9.81868185,0.00297,0.001021,0.004034,-78.274033,95.935349,-209.341125,60.187676,24.830164,13.370145,19.867979,-1.0,-1.0,100.081261,-0.41748,-0.00797,0.017451,0.762042
879045.598656,-0.07574301000000001,-0.17767872,-9.84353058,0.002407,0.000589,0.004048,-78.340149,95.668884,-209.326767,60.187676,24.830164,13.370145,19.867979,-1.0,-1.0,100.081261,-0.41748,-0.00797,0.017452,0.762043
879045.638627,-0.06751242,-0.17722746,-9.83634966,0.002417,-0.000633,0.003445,-78.153946,95.810623,-209.35881,60.187676,24.830164,13.370145,19.867979,-1.0,-1.0,100.081261,-0.41748,-0.007963,0.017447,0.762028
879045.638627,-0.06751242,-0.17722746,-9.83634966,0.002417,-0.000633,0.003445,-78.153946,95.810623,-209.35881,60.187676,24.830164,13.370145,19.867979,-1.0,-1.0,100.081261,-0.41748,-0.007963,0.017447,0.762028
879045.678597,-0.06691401,-0.17169462000000002,-9.807302250000001,0.004776,-0.001266,0.004245,-77.950684,95.8358,-209.445389,60.187676,24.830164,13.370145,19.867979,-1.0,-1.0,100.081261,-0.41748,-0.007949,0.017439,0.762016
879045.698583,-0.07739109000000001,-0.16765290000000002,-9.84218661,0.003727,-0.000145,0.004522,-78.20575,95.924011,-209.470566,60.187676,24.830164,13.370145,19.867979,-1.0,-1.0,100.081261,-0.41748,-0.007959,0.017454,0.762029
879045.718568,-0.07155414,-0.15701886,-9.80565417,0.003353,-0.001131,0.004202,-77.968063,95.990311,-209.475754,60.187676,24.830164,13.370145,19.867979,-1.0,-1.0,100.081261,-0.41748,-0.007946,0.017464,0.762031
879045.738553,-0.08067744,-0.16046217000000002,-9.81987867,0.004042,-0.000461,0.004242,-77.998886,95.815155,-209.485428,60.187676,24.830164,13.370145,19.867979,-1.0,-1.0,100.081261,-0.41748,-0.007959,0.01747,0.762037
879045.758539,-0.07888221,-0.17064495000000002,-9.80909748,0.003422,-0.001466,0.004909,-77.820007,95.985474,-209.679871,60.187676,24.830164,13.370145,19.867979,-1.0,-1.0,100.081261,-0.41748,-0.007956,0.017484,0.762029
879045.778524,-0.07888221,-0.16705449,-9.81164808,0.003086,-5.6e-05,0.004299,-78.139694,95.832306,-209.51091,60.187676,24.830164,13.370145,19.867979,-1.0,-1.0,100.081261,-0.41748,-0.007962,0.017488,0.762026
879045.798509,-0.06990606,-0.16675038,-9.841284090000002,0.002675,-0.000715,0.00598,-78.208786,95.812027,-209.811111,60.187676,24.830164,13.370145,19.867979,-1.0,-1.0,100.081261,-0.41748,-0.007964,0.017488,0.762031
879045.818494,-0.07409493,-0.17438256000000002,-9.79892451,0.003947,-0.000503,0.003961,-78.198318,95.809189,-209.452148,60.187676,24.830164,13.370145,19.867979,-1.0,-1.0,100.081261,-0.41748,-0.007968,0.01748,0.762031
